"Time (s)","Gyroscope x (rad/s)","Gyroscope y (rad/s)","Gyroscope z (rad/s)"
9.296912412E0,4.810422286E-2,-5.589252338E-2,7.635590737E-4
9.306063922E0,3.497100621E-2,-3.848337755E-2,-1.068982761E-3
9.315215381E0,2.626643144E-2,-2.351761982E-2,-1.832541777E-3
9.324366839E0,2.168507688E-2,-5.955760833E-3,-6.108472589E-4
9.333518349E0,2.214321308E-2,9.009997360E-3,-1.221694518E-3
9.342669808E0,2.702999115E-2,1.206423342E-2,-1.832541777E-3
9.351821318E0,3.329117596E-2,4.275931045E-3,-2.290677279E-3
9.360972776E0,3.588727489E-2,-9.620844387E-3,-1.068982761E-3
9.370124287E0,3.481829539E-2,-2.351761982E-2,-1.068982761E-3
9.379275745E0,2.993151546E-2,-2.947338112E-2,-1.068982761E-3
9.388427204E0,2.367033064E-2,-2.290677279E-2,-1.832541777E-3
9.397578714E0,1.801999472E-2,-1.145338640E-2,-1.221694518E-3
9.406730172E0,1.175880991E-2,-1.221694518E-3,-1.221694518E-3
9.415881683E0,1.114796288E-2,-4.886778072E-3,-3.054236295E-3
9.425033141E0,5.650337320E-3,-7.941014133E-3,-3.206948051E-3
9.434184599E0,-5.344913341E-3,-1.038440317E-2,-3.206948051E-3
9.443336110E0,-1.328592747E-2,-1.695101149E-2,-2.596100792E-3
9.452487568E0,-1.038440317E-2,-1.389677543E-2,-1.527118147E-4
9.461639079E0,-5.344913341E-3,-7.941014133E-3,-1.985253533E-3
9.470790537E0,-3.054236295E-3,-1.221694518E-3,-1.374406274E-3
9.479941995E0,-3.665083554E-3,2.290677279E-3,-3.206948051E-3
9.489093506E0,-6.719320081E-3,-0.000000000E0,-2.596100792E-3
9.498244964E0,-6.566607859E-3,-9.009997360E-3,-7.635590737E-4
9.507396474E0,-2.137965523E-3,-2.168507688E-2,-1.527118147E-4
9.516547933E0,3.359660041E-3,-3.023693897E-2,-1.374406274E-3
9.525699443E0,5.803049076E-3,-2.840439789E-2,-6.108472589E-4
9.534850901E0,5.803049076E-3,-1.817270555E-2,-6.108472589E-4
9.544002360E0,-1.679830020E-3,-9.620844387E-3,-7.635590737E-4
9.553153870E0,-7.941014133E-3,-1.038440317E-2,4.581354442E-4
9.562305329E0,-1.221694518E-2,-1.084253844E-2,5.955760833E-3
9.571456839E0,-7.941014133E-3,-7.941014133E-3,9.009997360E-3
9.580608297E0,1.985253533E-3,-4.886778072E-3,9.620844387E-3
9.589759756E0,9.926267900E-3,-3.054236295E-3,7.941014133E-3
9.598911266E0,1.114796288E-2,-3.054236295E-3,6.719320081E-3
9.608062724E0,5.039489828E-3,1.221694518E-3,5.344913341E-3
9.617214235E0,-6.108472589E-4,7.788302377E-3,2.901524538E-3
9.626365693E0,0.000000000E0,9.620844387E-3,2.901524538E-3
9.635517204E0,6.261184346E-3,3.665083554E-3,2.901524538E-3
9.644668662E0,1.114796288E-2,-6.566607859E-3,4.275931045E-3
9.653820120E0,1.496575773E-2,-1.328592747E-2,6.719320081E-3
9.662971631E0,1.374406368E-2,-1.328592747E-2,6.719320081E-3
9.672123089E0,9.926267900E-3,-1.084253844E-2,7.330167107E-3
9.681274599E0,9.315420873E-3,-9.620844387E-3,5.497625098E-3
9.690426058E0,1.053711493E-2,-9.620844387E-3,4.275931045E-3
9.699577516E0,1.191152167E-2,-8.399149403E-3,6.108472589E-4
9.708729026E0,1.114796288E-2,-6.108472589E-3,6.108472589E-4
9.717880485E0,8.857285604E-3,-1.389677543E-2,6.108472589E-4
9.727031995E0,8.246437646E-3,-1.756185852E-2,6.108472589E-4
9.736183454E0,6.872031838E-3,-1.267508045E-2,6.108472589E-4
9.745334964E0,4.428642802E-3,-9.162709117E-3,-1.985253533E-3
9.754486422E0,1.527118147E-4,-1.267508045E-2,-6.261184346E-3
9.763637881E0,-5.955760833E-3,-2.061609551E-2,-9.315420873E-3
9.772789391E0,-7.024743594E-3,-3.023693897E-2,-1.114796288E-2
9.781940849E0,-8.093725890E-3,-4.520269856E-2,-1.114796288E-2
9.791092360E0,-1.481304597E-2,-5.497625470E-2,-8.704573847E-3
9.800243818E0,-1.786728203E-2,-5.436540768E-2,-5.650337320E-3
9.809395329E0,-1.313321572E-2,-4.703523964E-2,-5.650337320E-3
9.818546787E0,-1.527118147E-3,-3.191677108E-2,-4.428642802E-3
9.827698245E0,8.246437646E-3,-1.634016447E-2,-4.275931045E-3
9.836849756E0,1.175880991E-2,-1.832541777E-3,-4.275931045E-3
9.846001214E0,1.175880991E-2,5.344913341E-3,-2.443389036E-3
9.855152672E0,1.099525020E-2,9.620844387E-3,6.108472589E-4
9.864304183E0,1.359135192E-2,8.399149403E-3,2.443389036E-3
9.873455641E0,2.031067200E-2,4.886778072E-3,4.886778072E-3
9.882607151E0,2.275406010E-2,2.443389036E-3,6.108472589E-3
9.891758610E0,3.023693897E-2,6.719320081E-3,6.719320081E-3
9.900910120E0,3.497100621E-2,1.267508045E-2,8.093725890E-3
9.910061579E0,3.252761811E-2,1.389677543E-2,6.261184346E-3
9.919213037E0,2.336490713E-2,1.023169141E-2,6.108472589E-3
9.928364547E0,1.710372418E-2,1.389677543E-2,5.497625098E-3
9.937516006E0,1.466033421E-2,1.924168877E-2,6.719320081E-3
9.946667516E0,1.649287529E-2,2.229592577E-2,7.941014133E-3
9.955818974E0,1.771457121E-2,2.473931387E-2,8.551862091E-3
9.964970485E0,1.710372418E-2,2.229592577E-2,8.551862091E-3
9.974121943E0,1.282779220E-2,1.863084175E-2,7.941014133E-3
9.983273401E0,1.099525020E-2,1.511846948E-2,9.162709117E-3
9.992424912E0,9.773556143E-3,1.206423342E-2,7.941014133E-3
1.000157637E1,4.886778072E-3,2.443389036E-3,7.177455351E-3
1.001072788E1,-4.275931045E-3,-1.084253844E-2,7.788302377E-3
1.001987934E1,-1.038440317E-2,-1.328592747E-2,1.023169141E-2
1.002903085E1,-1.282779220E-2,-4.886778072E-3,1.389677543E-2
1.003818231E1,-1.603474095E-2,0.000000000E0,1.618745178E-2
1.004733377E1,-1.664558798E-2,3.054236295E-3,1.252236869E-2
1.005648528E1,-1.236965694E-2,9.009997360E-3,1.267508045E-2
1.006563674E1,-5.650337320E-3,6.566607859E-3,1.389677543E-2
1.007478824E1,-1.374406274E-3,1.572931744E-2,1.756185852E-2
1.008393970E1,-7.024743594E-3,3.023693897E-2,1.817270555E-2
1.009309116E1,-1.634016447E-2,4.031591862E-2,1.985253580E-2
1.010224267E1,-2.870982140E-2,3.191677108E-2,2.107422985E-2
1.011139413E1,-4.214845970E-2,1.740914769E-2,1.969982497E-2
1.012054564E1,-4.382828996E-2,1.832541777E-3,1.725643501E-2
1.012969710E1,-3.558185324E-2,-1.511846948E-2,1.252236869E-2
1.013884861E1,-2.611372061E-2,-3.023693897E-2,7.635590620E-3
1.014800007E1,-1.878355257E-2,-2.962609194E-2,5.192201585E-3
1.015715158E1,-1.282779220E-2,-1.634016447E-2,5.955760833E-3
1.016630304E1,-1.038440317E-2,-0.000000000E0,5.344913341E-3
1.017545450E1,-8.093725890E-3,1.328592747E-2,4.734066315E-3
1.018460601E1,-3.206948051E-3,1.863084175E-2,3.512371797E-3
1.019375746E1,1.068982761E-3,1.985253580E-2,2.901524538E-3
1.020290897E1,-1.985253533E-3,2.107422985E-2,2.901524538E-3
1.021206043E1,-6.413896102E-3,2.947338112E-2,3.512371797E-3
1.022121189E1,-7.024743594E-3,3.542914242E-2,4.734066315E-3
1.023036340E1,-4.581354558E-3,3.497100621E-2,5.344913341E-3
1.023951486E1,-4.581354558E-3,3.665083647E-2,7.177455351E-3
1.024866637E1,-3.970507067E-3,3.008422814E-2,4.123218823E-3
1.025781783E1,-0.000000000E0,8.399149403E-3,-1.374406274E-3
1.026696934E1,7.482878864E-3,-9.620844387E-3,-4.275931045E-3
1.027612080E1,8.093725890E-3,-7.330167107E-3,-1.832541777E-3
1.028527231E1,8.093725890E-3,-7.330167107E-3,1.832541777E-3
1.029442377E1,1.252236869E-2,-1.572931744E-2,1.832541777E-3
1.030357522E1,1.557660475E-2,-2.168507688E-2,-6.108472589E-4
1.031272674E1,1.450762246E-2,-2.473931387E-2,-4.275931045E-3
1.032187819E1,1.572931744E-2,-2.046338283E-2,-7.941014133E-3
1.033102970E1,1.618745178E-2,-6.719320081E-3,-9.162709117E-3
1.034018116E1,1.175880991E-2,7.177455351E-3,-7.941014133E-3
1.034933262E1,1.221694518E-3,2.107422985E-2,-2.596100792E-3
1.035848413E1,-5.803049076E-3,2.886253223E-2,3.512371797E-3
1.036763559E1,-5.650337320E-3,2.229592577E-2,5.344913341E-3
1.037678710E1,1.527118147E-4,2.443389036E-3,1.679830020E-3
1.038593856E1,5.955760833E-3,-3.069507517E-2,-6.108472589E-4
1.039509007E1,1.099525020E-2,-5.360184610E-2,-3.665083554E-3
1.040424153E1,1.527118124E-2,-5.008947477E-2,-6.108472589E-3
1.041339298E1,1.832541823E-2,-3.252761811E-2,-6.719320081E-3
1.042254450E1,1.863084175E-2,-6.566607859E-3,-6.108472589E-3
1.043169595E1,1.664558798E-2,7.788302377E-3,-2.443389036E-3
1.044084746E1,6.108472589E-3,9.009997360E-3,-1.527118147E-4
1.044999892E1,-3.665083554E-3,-4.734066315E-3,1.679830020E-3
1.045915043E1,-8.857285604E-3,-2.840439789E-2,-7.635590737E-4
1.046830189E1,-5.650337320E-3,-5.131116882E-2,-3.206948051E-3
1.047745340E1,-2.596100792E-3,-5.131116882E-2,-3.817795310E-3
1.048660486E1,-3.359660041E-3,-2.596100792E-2,-4.428642802E-3
1.049575632E1,7.635590737E-4,-6.108472589E-4,-5.650337320E-3
1.050490783E1,9.773556143E-3,1.374406368E-2,-7.941014133E-3
1.051405929E1,1.969982497E-2,1.328592747E-2,-8.551862091E-3
1.052321080E1,1.863084175E-2,-0.000000000E0,-9.162709117E-3
1.053236226E1,1.007897966E-2,-1.817270555E-2,-6.719320081E-3
1.054151377E1,9.162708884E-4,-2.168507688E-2,-2.596100792E-3
1.055066522E1,-5.803049076E-3,-3.069507517E-2,7.177455351E-3
1.055981668E1,-1.450762246E-2,-3.436015919E-2,1.572931744E-2
1.056896819E1,-2.932066843E-2,-2.779355086E-2,1.985253580E-2
1.057811965E1,-3.665083647E-2,-3.863608837E-2,1.740914769E-2
1.058727116E1,-2.718270384E-2,-4.825693369E-2,8.246437646E-3
1.059642262E1,-6.261184346E-3,-5.375456065E-2,2.290677279E-3
1.060557408E1,6.719320081E-3,-5.115845799E-2,1.221694518E-3
1.061472559E1,7.177455351E-3,-3.252761811E-2,-6.108472589E-4
1.062387705E1,6.413896102E-3,-1.878355257E-2,-2.443389036E-3
1.063302856E1,1.023169141E-2,-2.596100792E-2,-7.330167107E-3
1.064218002E1,1.725643501E-2,-4.520269856E-2,-1.343864016E-2
1.065133153E1,3.023693897E-2,-5.604523420E-2,-1.023169141E-2
1.066048298E1,2.840439789E-2,-5.604523420E-2,1.985253533E-3
1.066963450E1,8.399149403E-3,-3.848337755E-2,2.000524849E-2
1.067878595E1,-9.162708884E-4,-3.970507160E-2,3.100049868E-2
1.068793741E1,1.099525020E-2,-6.612421572E-2,3.298575059E-2
1.069708892E1,3.222219273E-2,-9.804098308E-2,3.680354729E-2
1.070624038E1,5.039490014E-2,-1.250709742E-1,4.306473210E-2
1.071539189E1,6.994201243E-2,-1.262926757E-1,5.054761097E-2
1.072454335E1,8.964183182E-2,-1.105633527E-1,5.131116882E-2
1.073369486E1,1.130067408E-1,-1.021642014E-1,4.963133857E-2
1.074284632E1,1.314848661E-1,-1.056765765E-1,4.718795046E-2
1.075199778E1,1.450762302E-1,-1.165191159E-1,4.795150831E-2
1.076114929E1,1.580567211E-1,-1.189625040E-1,5.604523420E-2
1.077030074E1,1.684411317E-1,-1.146865711E-1,6.459710002E-2
1.077945226E1,1.722589284E-1,-1.241547018E-1,6.963659078E-2
1.078860371E1,1.707318127E-1,-1.562241912E-1,7.085828483E-2
1.079775522E1,1.652341783E-1,-1.779092699E-1,7.269082218E-2
1.080690668E1,1.695101112E-1,-1.609582454E-1,7.391251624E-2
1.081605819E1,1.853921413E-1,-1.519482583E-1,7.207997888E-2
1.082520965E1,2.021904439E-1,-1.572931707E-1,6.368082762E-2
1.083436111E1,2.064663768E-1,-1.615691036E-1,5.635065958E-2
1.084351262E1,1.973036677E-1,-1.627907902E-1,5.207473040E-2
1.085266408E1,1.831014603E-1,-1.592784226E-1,5.253286287E-2
1.086181559E1,1.774511337E-1,-1.404948682E-1,5.680879578E-2
1.087096705E1,1.771457046E-1,-1.267508119E-1,5.864133686E-2
1.088011856E1,1.707318127E-1,-1.478250325E-1,5.253286287E-2
1.088927002E1,1.586675793E-1,-1.840177327E-1,4.443913698E-2
1.089842153E1,1.366770715E-1,-2.087570578E-1,3.634541109E-2
1.090757298E1,1.024696305E-1,-2.221956849E-1,3.191677108E-2
1.091672444E1,7.085828483E-2,-2.148655206E-1,3.038965166E-2
1.092587595E1,5.772506446E-2,-1.913478971E-1,3.161134571E-2
1.093502741E1,6.673506647E-2,-1.714953631E-1,3.649812192E-2
1.094417892E1,7.467607409E-2,-1.588202864E-1,4.504998401E-2
1.095333038E1,7.024743408E-2,-1.546970755E-1,4.810422286E-2
1.096248189E1,6.856760383E-2,-1.672194302E-1,4.627167806E-2
1.097163335E1,6.994201243E-2,-1.841704547E-1,4.382828996E-2
1.098078481E1,6.673506647E-2,-1.684411317E-1,4.566083103E-2
1.098993632E1,5.085303262E-2,-1.262926757E-1,4.917320609E-2
1.099908778E1,2.596100792E-2,-9.009996802E-2,5.436540768E-2
1.100823929E1,1.710372418E-2,-6.536065787E-2,6.047387794E-2
1.101739074E1,3.344388679E-2,-4.184303805E-2,6.597150117E-2
1.102654226E1,7.284353673E-2,-3.100049868E-2,6.994201243E-2
1.103569371E1,1.227803007E-1,-4.657710344E-2,7.162184268E-2
1.104484522E1,1.556133330E-1,-6.154286116E-2,6.994201243E-2
1.105399668E1,1.678302884E-1,-4.169032723E-2,7.131642103E-2
1.106314814E1,1.711899489E-1,-1.572931744E-2,7.925742865E-2
1.107229965E1,1.669140160E-1,-1.511846948E-2,9.086353332E-2
1.108145111E1,1.612636745E-1,-1.801999472E-2,1.012479365E-1
1.109060262E1,1.772984117E-1,-1.023169141E-2,1.067455560E-1
1.109975408E1,2.452551723E-1,-4.077405483E-2,1.041494608E-1
1.110890559E1,3.472666740E-1,-7.681404054E-2,1.000262350E-1
1.111805705E1,4.190412164E-1,-1.044548824E-1,9.376505762E-2
1.112720856E1,3.984251320E-1,-1.310267299E-1,8.521319181E-2
1.113636002E1,3.177932799E-1,-1.414111406E-1,7.666133344E-2
1.114551147E1,2.499892414E-1,-1.397313178E-1,7.314895838E-2
1.115466298E1,2.363978922E-1,-1.391204596E-1,7.971556485E-2
1.116381444E1,2.710634768E-1,-1.516428292E-1,9.407047927E-2
1.117296595E1,3.173351586E-1,-1.727170646E-1,1.084253863E-1
1.118211741E1,3.701734245E-1,-2.188360244E-1,1.204896197E-1
1.119126892E1,4.527905285E-1,-2.982461751E-1,1.302631795E-1
1.120042038E1,5.894675851E-1,-3.662029207E-1,1.356080920E-1
1.120957189E1,7.437065244E-1,-4.436278343E-1,1.342336833E-1
1.121872335E1,8.131904006E-1,-5.008947253E-1,1.201841980E-1
1.122787486E1,7.336275578E-1,-4.075878263E-1,9.575030953E-2
1.123702632E1,5.541911721E-1,-2.470877171E-1,7.101099193E-2
1.124617778E1,3.820849657E-1,-1.462979168E-1,5.940489471E-2
1.125532929E1,2.704526186E-1,-7.711946964E-2,5.314370990E-2
1.126448074E1,2.454078794E-1,-2.901524492E-2,5.283828825E-2
1.127363226E1,3.147390485E-1,-7.574506104E-2,6.383354217E-2
1.128278371E1,4.404208660E-1,-2.081461996E-1,8.490777016E-2
1.129193522E1,5.705313683E-1,-3.590254784E-1,1.097997949E-1
1.130108668E1,6.578825116E-1,-4.275930822E-1,1.189625040E-1
1.131023814E1,6.642963886E-1,-3.721587062E-1,1.018587798E-1
1.131938965E1,5.754181147E-1,-2.157817930E-1,8.887827396E-2
1.132854111E1,4.164451063E-1,-8.750387281E-2,9.559759498E-2
1.133769262E1,2.316638231E-1,-2.107422985E-2,8.154810965E-2
1.134684408E1,6.398624927E-2,5.573981255E-2,5.390727147E-2
1.135599559E1,-3.313846514E-2,1.049130186E-1,5.146388337E-2
1.136514705E1,-3.527642787E-2,7.070557028E-2,6.368082762E-2
1.137429856E1,3.481829539E-2,8.093725890E-3,6.184828654E-2
1.138345002E1,1.357607991E-1,-3.756710514E-2,5.451811850E-2
1.139260153E1,2.026485801E-1,-8.322793990E-2,6.917845458E-2
1.140175298E1,2.038702667E-1,-2.275406010E-2,9.651386738E-2
1.141090444E1,1.565296054E-1,1.615691036E-1,1.107160673E-1
1.142005595E1,4.642439261E-2,4.001049399E-1,1.409530044E-1
1.142920741E1,-1.032331884E-1,5.216635466E-1,1.702736765E-1
1.143835892E1,-2.663294077E-1,4.895940721E-1,1.814216375E-1
1.144751038E1,-4.193466306E-1,3.729222417E-1,1.608055383E-1
1.145666189E1,-5.106683373E-1,2.570139766E-1,1.310267299E-1
1.146581335E1,-5.192201734E-1,1.128540337E-1,1.108687744E-1
1.147496486E1,-4.682144225E-1,-6.062658876E-2,9.071081877E-2
1.148411632E1,-4.051444530E-1,-1.378987730E-1,6.978929788E-2
1.149326783E1,-3.594835997E-1,-7.818844914E-2,6.154286116E-2
1.150241929E1,-3.454341292E-1,3.054236295E-4,6.826218218E-2
1.151157074E1,-3.633013964E-1,6.123743951E-2,8.643488586E-2
1.152070950E1,-3.976615667E-1,1.769929975E-1,1.104106456E-1
1.152987371E1,-4.517215490E-1,3.516952991E-1,1.356080920E-1
1.153902522E1,-5.088357925E-1,5.294518471E-1,1.601946950E-1
1.154817668E1,-5.253286362E-1,6.349757314E-1,1.885990947E-1
1.155732819E1,-4.705050886E-1,6.435275674E-1,2.073826492E-1
1.156647965E1,-3.681881726E-1,6.215370893E-1,2.061609477E-1
1.157563116E1,-2.512109280E-1,5.871769190E-1,1.942494214E-1
1.158478262E1,-1.412584335E-1,4.952444136E-1,1.890572309E-1
1.159393413E1,-7.406523079E-2,4.935645759E-1,1.864611208E-1
1.160308559E1,-6.917845458E-2,5.699204803E-1,1.681357026E-1
1.161223705E1,-1.018587798E-1,5.830537081E-1,1.458397806E-1
1.162138856E1,-1.522536725E-1,5.063923597E-1,1.296523362E-1
1.163054002E1,-2.183778882E-1,3.863608837E-1,1.195733473E-1
1.163969153E1,-2.954973578E-1,2.698417902E-1,1.032331884E-1
1.164884298E1,-3.613161445E-1,1.960819662E-1,8.506047726E-2
1.165799450E1,-3.866663277E-1,1.478250325E-1,5.085303262E-2
1.166714595E1,-3.785725832E-1,9.529217333E-2,6.872031838E-3
1.167629746E1,-3.651339412E-1,5.772506446E-2,-4.672981426E-2
1.168544892E1,-3.489464819E-1,-3.970507067E-3,-9.666658193E-2
1.169460038E1,-3.112266660E-1,-6.306997687E-2,-1.317902952E-1
1.170375189E1,-2.698417902E-1,-7.513421029E-2,-1.467560530E-1
1.171290335E1,-2.495311052E-1,-7.024743408E-2,-1.508792788E-1
1.172205486E1,-2.619007528E-1,4.428642802E-3,-1.437018216E-1
1.173120632E1,-3.049654961E-1,1.930277348E-1,-1.191152185E-1
1.174035783E1,-3.649812341E-1,3.329117596E-1,-7.864658535E-2
1.174950929E1,-4.526378214E-1,3.431434333E-1,-5.360184610E-2
1.175866080E1,-5.673243999E-1,3.550549746E-1,-5.818320066E-2
1.176781226E1,-6.740699410E-1,4.366030693E-1,-8.460234851E-2
1.177696377E1,-7.299624681E-1,5.056288242E-1,-1.290414780E-1
1.178611522E1,-7.153021693E-1,4.723376334E-1,-1.801999360E-1
1.179525397E1,-6.296308041E-1,3.675773442E-1,-2.223484069E-1
1.180441819E1,-5.209000111E-1,2.724378705E-1,-2.379250079E-1
1.181356965E1,-4.466820657E-1,2.388412803E-1,-2.209739983E-1
1.182272116E1,-4.378247857E-1,2.457133085E-1,-1.768402755E-1
1.183187262E1,-4.660764635E-1,3.555130959E-1,-1.203369126E-1
1.184102413E1,-4.992149174E-1,5.267030597E-1,-7.009471953E-2
1.185017559E1,-5.366293192E-1,6.317687631E-1,-4.169032723E-2
1.185932710E1,-6.103891134E-1,6.784985662E-1,-3.359659761E-2
1.186847856E1,-6.977402568E-1,7.122479081E-1,-2.076880634E-2
1.187761731E1,-7.270609736E-1,7.472189069E-1,4.581354558E-3
1.188678153E1,-6.245913506E-1,6.503996253E-1,7.177455351E-3
1.189593304E1,-3.513898849E-1,3.323009014E-1,-7.192726433E-2
1.190508450E1,4.367557913E-2,-2.794626169E-2,-2.171562016E-1
1.191423601E1,4.017847776E-1,-1.574458778E-1,-3.568875194E-1
1.192338746E1,6.206207871E-1,2.748812735E-2,-4.685198367E-1
1.193252621E1,7.563816309E-1,3.136700690E-1,-5.318952799E-1
1.194169043E1,9.333745837E-1,5.163186193E-1,-5.465555787E-1
1.195084189E1,1.213600755E0,6.186355352E-1,-5.538857579E-1
1.195999340E1,1.591104388E0,5.987830162E-1,-5.512896776E-1
1.196914486E1,2.017475843E0,3.857500553E-1,-5.199837089E-1
1.197829637E1,2.412693977E0,1.282779220E-2,-4.845545888E-1
1.198743507E1,2.716895819E0,-3.903313875E-1,-4.552339315E-1
1.199659934E1,2.903051615E0,-7.394306064E-1,-4.396573007E-1
1.200575080E1,3.000634432E0,-9.701781869E-1,-4.503471553E-1
1.201490231E1,3.072714329E0,-1.094332814E0,-4.711159468E-1
1.202405377E1,3.175947666E0,-1.198329568E0,-4.715740979E-1
1.203320522E1,3.317664146E0,-1.281252146E0,-4.387410581E-1
1.204234397E1,3.470681429E0,-1.315154195E0,-4.106420577E-1
1.205150819E1,3.622782469E0,-1.248571754E0,-3.804051280E-1
1.206065970E1,3.747853279E0,-1.107771516E0,-3.483356535E-1
1.206979845E1,3.846505165E0,-9.918632507E-1,-3.177932799E-1
1.207896267E1,3.972187042E0,-8.612946272E-1,-2.780882120E-1
1.208811413E1,4.095730782E0,-6.505523324E-1,-2.058555335E-1
1.209726564E1,4.159564495E0,-3.830012381E-1,-1.061347127E-1
1.210641710E1,4.136962891E0,-1.018587798E-1,-1.114796288E-2
1.211556861E1,4.037242413E0,1.288887709E-1,5.024218559E-2
1.212470731E1,3.876131296E0,2.270824611E-1,7.467607409E-2
1.213387158E1,3.681271076E0,2.063136548E-1,1.117850468E-1
1.214302304E1,3.515731335E0,1.305686086E-1,2.064663768E-1
1.215217455E1,3.428838491E0,5.497625098E-3,3.184041381E-1
1.216132601E1,3.405931711E0,-1.461452097E-1,3.964398801E-1
1.217047746E1,3.408680439E0,-3.268032968E-1,4.198047817E-1
1.217962897E1,3.442124367E0,-5.051707029E-1,4.300364852E-1
1.218878043E1,3.488854170E0,-7.069029808E-1,4.482091665E-1
1.219793194E1,3.465336561E0,-9.713998437E-1,4.402681589E-1
1.220707069E1,3.335378647E0,-1.228566527E0,3.924693763E-1
1.221623491E1,3.133799076E0,-1.405101418E0,3.161134422E-1
1.222538637E1,2.944589138E0,-1.576291323E0,2.409792393E-1
1.223452512E1,2.853725672E0,-1.748244882E0,2.002051920E-1
1.224368934E1,2.821961641E0,-1.910577536E0,1.817270666E-1
1.225284085E1,2.749118090E0,-2.041451454E0,1.789782494E-1
1.226197955E1,2.622825384E0,-2.048170805E0,1.884463727E-1
1.227114382E1,2.443541765E0,-1.932109833E0,2.082989216E-1
1.228029528E1,2.228676319E0,-1.762447000E0,2.464768738E-1
1.228943403E1,2.035801172E0,-1.586523056E0,2.974826097E-1
1.229859824E1,1.860335350E0,-1.399298310E0,3.254288733E-1
1.230774970E1,1.666544080E0,-1.100746751E0,3.080197275E-1
1.231688845E1,1.475654244E0,-7.620319724E-1,2.757975459E-1
1.232605267E1,1.322942495E0,-4.921901822E-1,2.837385535E-1
1.233520418E1,1.170536041E0,-2.945810854E-1,3.362714052E-1
1.234434293E1,9.486457705E-1,-1.288887709E-1,4.156815708E-1
1.235350715E1,6.331431866E-1,-2.244863659E-2,4.970769584E-1
1.236265861E1,3.048127890E-1,-1.725643501E-2,5.570927262E-1
1.237179736E1,7.941014320E-2,-1.349972486E-1,6.068767309E-1
1.238096158E1,-2.214321308E-2,-2.845021188E-1,6.184828281E-1
1.239011309E1,-8.918370306E-2,-3.408527672E-1,5.502206683E-1
1.239925179E1,-2.061609477E-1,-3.101576865E-1,4.474456310E-1
1.240841606E1,-3.463504016E-1,-2.371614426E-1,3.620797098E-1
1.241756752E1,-4.527905285E-1,-1.713426560E-1,3.093941510E-1
1.242670627E1,-5.425850749E-1,-1.111742035E-1,3.051182032E-1
1.243587048E1,-6.332958937E-1,1.893626526E-2,3.538332880E-1
1.244502194E1,-7.215633392E-1,1.921114624E-1,4.422534108E-1
1.245417345E1,-8.347227573E-1,2.736595869E-1,5.256340504E-1
1.246332491E1,-9.159654379E-1,2.321219593E-1,5.494571328E-1
1.247247642E1,-9.458969831E-1,1.641651988E-1,4.918847680E-1
1.248162788E1,-1.017976999E0,2.107423097E-1,3.943018913E-1
1.249077939E1,-1.170536041E0,4.091149569E-1,3.313846290E-1
1.249993085E1,-1.378987670E0,5.577035546E-1,3.329117596E-1
1.250906960E1,-1.607139111E0,4.851654470E-1,3.703261614E-1
1.251823382E1,-1.757254839E0,4.289674759E-1,4.097257853E-1
1.252738533E1,-1.624395609E0,6.135960817E-1,4.062134326E-1
1.253652403E1,-1.174659252E0,9.921686649E-1,3.895678520E-1
1.254568830E1,-9.524635673E-1,1.334395885E0,4.824166298E-1
1.255483976E1,-1.236507535E0,1.236965656E0,6.313106418E-1
1.256397851E1,-1.646844268E0,7.684458494E-1,7.033905983E-1
1.257314272E1,-1.942036152E0,7.148439884E-1,6.817055345E-1
1.258229424E1,-2.022973299E0,1.140146375E0,5.538857579E-1
1.259143293E1,-1.826433301E0,1.145491362E0,2.651077211E-1
1.260059720E1,-1.458550572E0,6.484143734E-1,1.175880991E-2
1.260974866E1,-1.233758807E0,2.864873707E-1,-4.810422286E-2
1.261888741E1,-1.322026134E0,4.475983381E-1,5.497625470E-2
1.262805163E1,-1.548192382E0,7.269082665E-1,2.076880634E-1
1.263720309E1,-1.688687205E0,9.487984776E-1,3.182514310E-1
1.264634184E1,-1.662573576E0,1.169619799E0,3.591781855E-1
1.265550606E1,-1.615843654E0,1.258192658E0,3.739912212E-1
1.266465757E1,-1.591257095E0,1.191457629E0,3.962871730E-1
1.267379632E1,-1.538571477E0,1.062721491E0,4.272876680E-1
1.268296054E1,-1.471378326E0,8.148702383E-1,5.097520351E-1
1.269211200E1,-1.412126184E0,5.204418898E-1,5.470137000E-1
1.270125075E1,-1.370741248E0,3.345915973E-1,4.711159468E-1
1.271041496E1,-1.337908268E0,1.314848661E-1,2.626643181E-1
1.271956647E1,-1.283848286E0,1.527118147E-3,2.443389036E-3
1.272870517E1,-1.184280157E0,-3.878879920E-2,-1.776038408E-1
1.273786944E1,-1.052795291E0,-3.390202299E-2,-2.017323077E-1
1.274702090E1,-9.187142849E-1,-1.343863904E-1,-9.819369763E-2
1.275615965E1,-8.993198872E-1,-1.334701329E-1,-1.863084175E-2
1.276532387E1,-9.703308940E-1,8.032641560E-2,5.192201585E-3
1.277447538E1,-1.048213840E0,2.441861928E-1,1.114796288E-2
1.278362684E1,-1.125944257E0,4.007157981E-1,-4.123218823E-3
1.279277830E1,-1.148240089E0,5.693096519E-1,-3.069507517E-2
1.280192981E1,-1.111436605E0,5.916055441E-1,-4.871506989E-2
1.281106856E1,-1.087002754E0,6.132906675E-1,-3.634541109E-2
1.282023278E1,-1.143353343E0,6.241331697E-1,2.290677279E-3
1.282938424E1,-1.218182087E0,5.705313683E-1,2.260134928E-2
1.283853575E1,-1.207645059E0,4.911212027E-1,2.886253223E-2
1.284768720E1,-1.149919987E0,3.151971996E-1,1.710372418E-2
1.285683871E1,-1.101357579E0,1.433963925E-1,-2.947338112E-2
1.286599017E1,-1.049282908E0,-2.596100792E-3,-7.101099193E-2
1.287514168E1,-9.741486907E-1,-1.194206402E-1,-9.910997003E-2
1.288429314E1,-9.269607067E-1,-2.298312783E-1,-1.293469071E-1
1.289344465E1,-9.602518678E-1,-2.112004459E-1,-1.551551968E-1
1.290259611E1,-1.065775752E0,-5.482354015E-2,-1.664558798E-1
1.291174762E1,-1.164580345E0,8.490777016E-2,-1.360662282E-1
1.292089908E1,-1.238645554E0,2.808370292E-1,-8.414421231E-2
1.293005059E1,-1.310572743E0,4.610369802E-1,-3.787253052E-2
1.293920205E1,-1.360204101E0,5.456393361E-1,5.650337320E-3
1.294835356E1,-1.361731291E0,5.480827093E-1,5.268557742E-2
1.295750502E1,-1.299577594E0,4.790569544E-1,8.750387281E-2
1.296665653E1,-1.196955204E0,3.713951409E-1,8.582404256E-2
1.297580799E1,-1.104106426E0,2.754921019E-1,4.627167806E-2
1.298495950E1,-1.039203882E0,2.188360244E-1,-7.635590620E-3
1.299411095E1,-1.014464617E0,1.669140160E-1,-6.169557199E-2
1.300326241E1,-1.028819442E0,1.919587553E-1,-1.046075895E-1
1.301241392E1,-1.103037477E0,3.223746419E-1,-1.369825006E-1
1.302156538E1,-1.203827262E0,4.964661002E-1,-1.495048702E-1
1.303071689E1,-1.250404358E0,6.198572516E-1,-1.583621502E-1
1.303986835E1,-1.245670319E0,6.349757314E-1,-1.437018216E-1
1.304901986E1,-1.233300567E0,6.748335361E-1,-1.204896197E-1
1.305817132E1,-1.203521848E0,7.279772162E-1,-1.160609797E-1
1.306732283E1,-1.143811464E0,6.754443645E-1,-1.345391124E-1
1.307647429E1,-1.076923728E0,5.845808387E-1,-1.601946950E-1
1.308562580E1,-1.012326598E0,5.483881235E-1,-1.976090819E-1
1.309477726E1,-9.568922520E-1,5.723638535E-1,-2.382304370E-1
1.310392877E1,-9.575030804E-1,6.439857483E-1,-2.803788781E-1
1.311308022E1,-9.967499971E-1,7.853968740E-1,-2.941229641E-1
1.312223174E1,-1.038593054E0,9.048175216E-1,-2.805316150E-1
1.313138319E1,-1.064095974E0,9.222266674E-1,-2.476985604E-1
1.314053470E1,-1.076923728E0,8.898517489E-1,-2.240282297E-1
1.314968616E1,-1.093721986E0,8.951966763E-1,-2.246390730E-1
1.315883767E1,-1.096012712E0,8.854231238E-1,-2.356343269E-1
1.316798913E1,-1.083643079E0,8.125795722E-1,-2.307475507E-1
1.317714064E1,-1.068371892E0,7.482879162E-1,-2.084516287E-1
1.318629210E1,-1.105786204E0,7.204943299E-1,-1.940967143E-1
1.319543085E1,-1.207950473E0,7.082774043E-1,-2.064663768E-1
1.320459507E1,-1.325233102E0,7.429429889E-1,-2.310529798E-1
1.321374658E1,-1.406170368E0,7.053758502E-1,-2.585411072E-1
1.322288528E1,-1.404948711E0,5.160132051E-1,-2.822114229E-1
1.323204955E1,-1.313321590E0,3.342861533E-1,-2.838912606E-1
1.324120101E1,-1.145033240E0,1.760767251E-1,-2.648022771E-1
1.325033976E1,-9.083298445E-1,2.886253223E-2,-2.466295809E-1
1.325950397E1,-6.071822047E-1,6.016845629E-2,-2.408265322E-1
1.326865548E1,-2.759502530E-1,2.498365343E-1,-2.605263591E-1
1.327779418E1,6.261184067E-2,4.175141156E-1,-3.510844707E-1
1.328695840E1,4.169032574E-1,4.802786708E-1,-4.830274582E-1
1.329610991E1,8.133431077E-1,5.955760479E-1,-5.751127005E-1
1.330524866E1,1.274838209E0,7.577560544E-1,-6.042806506E-1
1.331441288E1,1.752062678E0,8.771766424E-1,-5.942016840E-1
1.332356439E1,2.176601410E0,8.727480173E-1,-5.460974574E-1
1.333270309E1,2.502183199E0,6.736118197E-1,-4.343124032E-1
1.334186731E1,2.725905895E0,3.316900730E-1,-2.913741469E-1
1.335101882E1,2.898622990E0,-2.489202656E-2,-1.499630064E-1
1.336015757E1,3.056526899E0,-3.206948042E-1,-2.473931387E-2
1.336932179E1,3.191218853E0,-6.056550741E-1,7.467607409E-2
1.337847324E1,3.316442490E0,-8.524373770E-1,1.221694499E-1
1.338761200E1,3.442582369E0,-8.669449687E-1,7.421794534E-2
1.339677621E1,3.577579737E0,-6.766660213E-1,-3.787253052E-2
1.340592772E1,3.722044945E0,-4.424061179E-1,-1.696628332E-1
1.341506642E1,3.882392406E0,-3.920112252E-1,-2.600682080E-1
1.342423069E1,4.012044907E0,-5.503733754E-1,-2.993151546E-1
1.343338215E1,4.046863079E0,-6.612421870E-1,-2.831276953E-1
1.344252090E1,3.985472918E0,-5.993938446E-1,-1.701209545E-1
1.345168512E1,3.861623764E0,-4.752391577E-1,3.054236295E-3
1.346083663E1,3.745715380E0,-4.062134326E-1,1.554606259E-1
1.346997533E1,3.680507421E0,-3.545968235E-1,3.008422852E-1
1.347913960E1,3.633166790E0,-2.901524603E-1,4.440859556E-1
1.348829106E1,3.532682419E0,-2.018850148E-1,5.464028716E-1
1.349744257E1,3.401044846E0,-7.986827940E-2,5.416688323E-1
1.350659403E1,3.307126999E0,-3.390202299E-2,4.750864506E-1
1.351574554E1,3.281929493E0,-1.545443535E-1,4.329380095E-1
1.352489700E1,3.261924267E0,-4.081986845E-1,4.445441067E-1
1.353404851E1,3.159454823E0,-6.988092661E-1,4.897467792E-1
1.354319996E1,2.979712963E0,-1.016449809E0,5.212054253E-1
1.355235147E1,2.819670916E0,-1.318208337E0,5.086830258E-1
1.356150293E1,2.755684614E0,-1.574000716E0,4.393518865E-1
1.357065444E1,2.742093325E0,-1.805053592E0,3.637595475E-1
1.357979314E1,2.699792147E0,-1.953031421E0,3.194731176E-1
1.358895741E1,2.575484753E0,-1.961735964E0,2.887780368E-1
1.359810887E1,2.364742517E0,-1.882784009E0,2.341072112E-1
1.360724762E1,2.113378763E0,-1.722436547E0,1.638597846E-1
1.361641184E1,1.858044624E0,-1.468782187E0,1.250709742E-1
1.362556335E1,1.588813663E0,-1.156486630E0,1.443126649E-1
1.363470205E1,1.309351087E0,-8.667922616E-1,1.983726472E-1
1.364386632E1,1.042105436E0,-6.500942111E-1,2.574721277E-1
1.365301778E1,7.983773947E-1,-5.019637346E-1,3.130592108E-1
1.366215653E1,5.555655956E-1,-4.027010500E-1,3.674246371E-1
1.367132075E1,3.048127890E-1,-3.678827584E-1,4.144598544E-1
1.368047226E1,6.810946763E-2,-3.808632791E-1,4.372139275E-1
1.368962371E1,-1.444653720E-1,-3.775036037E-1,4.588989913E-1
1.369877522E1,-3.098522723E-1,-3.168770075E-1,4.863871336E-1
1.370792668E1,-4.045335948E-1,-2.078407854E-1,5.106683373E-1
1.371706543E1,-4.753918648E-1,-7.650861889E-2,5.118899941E-1
1.372622965E1,-5.893148780E-1,6.047387794E-2,4.834856093E-1
1.373538116E1,-7.524111271E-1,1.915006191E-1,4.498890042E-1
1.374451986E1,-9.388722181E-1,2.464768738E-1,4.107947946E-1
1.375368413E1,-1.101204872E0,2.231119573E-1,3.613161445E-1
1.376283559E1,-1.221541762E0,1.336228400E-1,2.933593988E-1
1.377198705E1,-1.339588046E0,5.955760926E-2,2.345653474E-1
1.378113856E1,-1.437018156E0,7.131642103E-2,1.991362125E-1
1.379029002E1,-1.459772229E0,2.428117841E-1,1.371352077E-1
1.379942877E1,-1.336991906E0,4.885250926E-1,3.527642787E-2
1.380859304E1,-1.195428133E0,7.719582319E-1,5.192201585E-2
1.381774450E1,-1.343100429E0,8.174663186E-1,2.029540092E-1
1.382688325E1,-1.556133389E0,6.256603003E-1,4.048390090E-1
1.383604746E1,-1.517039180E0,7.586722970E-1,6.365028620E-1
1.384519892E1,-1.432894945E0,1.141978979E0,7.803573608E-1
1.385433767E1,-1.476723194E0,8.008207679E-1,6.329904795E-1
1.386350189E1,-1.668834686E0,9.315420687E-2,3.269560039E-1
1.387265340E1,-1.840024710E0,2.289150059E-1,1.282779276E-1
1.388179215E1,-1.823837161E0,5.407525301E-1,5.314370990E-2
1.389095637E1,-1.699682474E0,5.680879354E-1,5.512896553E-2
1.390010783E1,-1.644400835E0,6.137487888E-1,1.362189353E-1
1.390924658E1,-1.800319552E0,9.080244303E-1,2.735068500E-1
1.391841080E1,-2.078713179E0,1.320193648E0,3.872771561E-1
1.392756231E1,-2.181335449E0,1.555827975E0,4.107947946E-1
1.393670106E1,-2.082530975E0,1.476875901E0,3.700207174E-1
1.394586528E1,-1.936538577E0,1.252542257E0,3.022166789E-1
1.395501674E1,-1.811467528E0,1.001178622E0,2.238755226E-1
1.396415549E1,-1.668834686E0,7.169819474E-1,1.939440072E-1
1.397331970E1,-1.471531034E0,4.865398407E-1,1.979145110E-1
1.398247121E1,-1.338366389E0,3.565820754E-1,1.916533262E-1
1.399160996E1,-1.305533290E0,2.780882120E-1,1.608055383E-1
1.400077418E1,-1.311183691E0,2.351761907E-1,1.272089481E-1
1.400992564E1,-1.291331053E0,9.651386738E-2,9.697200358E-2
1.401906439E1,-1.236202121E0,-1.180462316E-1,6.933116168E-2
1.402822861E1,-1.162289619E0,-2.702999115E-1,6.994201243E-2
1.403738012E1,-1.074174881E0,-3.347443044E-1,7.498150319E-2
1.404653158E1,-1.017366052E0,-3.382566571E-1,5.512896553E-2
1.405568309E1,-1.006370902E0,-2.962609231E-1,8.857285604E-3
1.406483455E1,-1.001178622E0,-1.777565479E-1,-4.062134400E-2
1.407397330E1,-9.926267862E-1,-4.275931045E-3,-5.421269313E-2
1.408313752E1,-9.865183234E-1,1.212531775E-1,-3.649812192E-2
1.409228903E1,-1.010494113E0,2.309002578E-1,5.955760833E-3
1.410144049E1,-1.050809979E0,3.304683566E-1,3.115320951E-2
1.411059200E1,-1.088071704E0,4.208737612E-1,4.550812021E-2
1.411974345E1,-1.123806238E0,4.847072959E-1,6.352811307E-2
1.412888220E1,-1.102732062E0,4.443913698E-1,8.704573661E-2
1.413804642E1,-1.056460381E0,3.005368412E-1,9.651386738E-2
1.414719793E1,-1.071273327E0,2.408265322E-1,9.101624042E-2
1.415634939E1,-1.117697716E0,1.960819662E-1,6.200099736E-2
1.416550090E1,-1.120751977E0,1.511846948E-2,2.489202656E-2
1.417465236E1,-1.080436110E0,-1.505738497E-1,-3.054236295E-4
1.418380387E1,-1.039203882E0,-2.622061968E-1,-3.176405653E-2
1.419295533E1,-1.011104941E0,-3.466558158E-1,-6.383354217E-2
1.420210684E1,-1.005607247E0,-3.472666740E-1,-8.948912472E-2
1.421124559E1,-9.836167693E-1,-3.110739589E-1,-9.788827598E-2
1.422040981E1,-9.701781869E-1,-2.983988822E-1,-9.040539712E-2
1.422956132E1,-9.930849075E-1,-2.296785712E-1,-8.582404256E-2
1.423871278E1,-1.020114899E0,-3.390202299E-2,-8.002099395E-2
1.424786424E1,-1.045770526E0,1.372879148E-1,-5.650337040E-2
1.425701574E1,-1.040272832E0,2.646495700E-1,-1.985253580E-2
1.426616726E1,-1.025154471E0,4.220954478E-1,2.107422985E-2
1.427531871E1,-1.053864241E0,5.883986354E-1,5.054761097E-2
1.428447017E1,-1.096470833E0,6.798729897E-1,4.352286831E-2
1.429362168E1,-1.107771516E0,6.829272509E-1,4.718795046E-2
1.430277314E1,-1.080436110E0,5.902311802E-1,5.711421743E-2
1.431192465E1,-1.046075940E0,4.721849263E-1,5.619794875E-2
1.432107611E1,-1.027292371E0,3.822376728E-1,2.214321308E-2
1.433022762E1,-1.004538298E0,2.790044844E-1,-4.535540938E-2
1.433937913E1,-9.619317055E-1,1.786728203E-1,-1.291942000E-1
1.434853059E1,-9.052756429E-1,1.488940120E-1,-2.063136548E-1
1.435768205E1,-8.565605879E-1,1.114796251E-1,-2.512109280E-1
1.436683356E1,-8.478559852E-1,3.985778242E-2,-2.663294077E-1
1.437598507E1,-8.793146014E-1,1.010952219E-1,-2.641914487E-1
1.438513653E1,-9.599464536E-1,2.113531530E-1,-2.580829561E-1
1.439428804E1,-1.047755718E0,2.510582209E-1,-2.446443290E-1
1.440343950E1,-1.099372387E0,2.932066917E-1,-2.237228155E-1
1.441259101E1,-1.130067468E0,3.324536085E-1,-2.069245130E-1
1.442174246E1,-1.167176366E0,3.426853120E-1,-1.966928244E-1
1.443089397E1,-1.211004734E0,3.564293683E-1,-1.933331639E-1
1.444004543E1,-1.234675050E0,3.768927455E-1,-1.916533262E-1
1.444919694E1,-1.227650285E0,3.468085229E-1,-1.910424829E-1
1.445834840E1,-1.192526579E0,2.864873707E-1,-2.066190839E-1
1.446749991E1,-1.148698330E0,2.273878902E-1,-2.338017821E-1
1.447665137E1,-1.079061627E0,1.721062213E-1,-2.490729690E-1
1.448579012E1,-9.787300229E-1,1.053711548E-1,-2.458660156E-1
1.449495434E1,-8.486195803E-1,3.497100621E-2,-2.486148328E-1
1.450410585E1,-6.913263798E-1,5.070032179E-2,-2.854183912E-1
1.451324455E1,-5.355603099E-1,2.328855246E-1,-3.436015844E-1
1.452240882E1,-3.710896969E-1,4.775298536E-1,-3.823903799E-1
1.453156028E1,-1.713426560E-1,6.187883019E-1,-4.054498672E-1
1.454071179E1,7.131642103E-2,6.497887969E-1,-4.288147688E-1
1.454986325E1,3.639122546E-1,6.635328531E-1,-4.347705245E-1
1.455901476E1,7.098045349E-1,7.423321605E-1,-4.537068009E-1
1.456816621E1,1.066997409E0,8.012788892E-1,-4.982986450E-1
1.457731772E1,1.357149839E0,7.623373866E-1,-5.303681493E-1
1.458646918E1,1.577818513E0,6.652126908E-1,-4.999784827E-1
1.459562069E1,1.783674002E0,5.557183027E-1,-4.007157981E-1
1.460477215E1,1.971509576E0,3.830012381E-1,-2.655658424E-1
1.461392366E1,2.132162333E0,1.438545287E-1,-1.537808031E-1
1.462306241E1,2.280292749E0,-1.298050433E-1,-8.597674966E-2
1.463222663E1,2.439418554E0,-3.620797098E-1,-5.467082933E-2
1.464137809E1,2.620382071E0,-5.360184908E-1,-4.352286831E-2
1.465052960E1,2.797374964E0,-6.224533319E-1,-4.092676565E-2
1.465968106E1,2.934815645E0,-7.010999322E-1,-2.779355086E-2
1.466883257E1,3.042783022E0,-7.823426127E-1,-2.397575416E-2
1.467797132E1,3.130897522E0,-7.809682488E-1,-3.054236248E-2
1.468713554E1,3.175642252E0,-6.586460471E-1,-6.520794332E-2
1.469628700E1,3.154109716E0,-4.993676245E-1,-1.308740228E-1
1.470542575E1,3.095773935E0,-3.567348123E-1,-1.893626451E-1
1.471459002E1,3.017127275E0,-2.363978922E-1,-2.009687424E-1
1.472374147E1,2.935579300E0,-1.754658818E-1,-1.502684206E-1
1.473288022E1,2.871134758E0,-1.739387512E-1,-6.398624927E-2
1.474204444E1,2.841814280E0,-1.629435122E-1,1.634016447E-2
1.475119595E1,2.852962017E0,-1.354553849E-1,8.597674966E-2
1.476034741E1,2.920460701E0,-1.339282542E-1,1.505738497E-1
1.476949892E1,3.007659197E0,-1.324011385E-1,2.165453583E-1
1.477865038E1,3.044920921E0,-4.596625641E-2,2.699944973E-1
1.478778913E1,3.023082972E0,5.283828825E-2,2.855710983E-1
1.479695335E1,2.939855099E0,5.207473040E-2,2.733541429E-1
1.480610486E1,2.794931650E0,-1.452289373E-1,2.455606014E-1
1.481524356E1,2.605721712E0,-4.059080184E-1,2.273878902E-1
1.482440783E1,2.457438469E0,-5.665608048E-1,2.276933193E-1
1.483355929E1,2.399102688E0,-6.606312990E-1,2.218902707E-1
1.484271080E1,2.396506548E0,-7.812736630E-1,1.986780763E-1
1.485186226E1,2.398491859E0,-1.004385591E0,1.841704547E-1
1.486101377E1,2.378639221E0,-1.317139387E0,1.714953631E-1
1.487015246E1,2.346264362E0,-1.489551067E0,1.579040140E-1
1.487931674E1,2.290524483E0,-1.397465825E0,1.501157135E-1
1.488846819E1,2.199661016E0,-1.228413820E0,1.395785958E-1
1.489760694E1,2.084821701E0,-1.132816195E0,1.349972486E-1
1.490677116E1,1.946464777E0,-1.093721986E0,1.395785958E-1
1.491592267E1,1.792531252E0,-1.044548869E0,1.476723254E-1
1.492506142E1,1.618287086E0,-9.436063170E-1,1.597365588E-1
1.493422564E1,1.469851255E0,-8.232693672E-1,1.743968874E-1
1.494337710E1,1.371962905E0,-6.986565590E-1,1.876828223E-1
1.495251585E1,1.243226886E0,-5.668662786E-1,1.855448484E-1
1.496168007E1,1.043937922E0,-4.581354558E-1,1.601946950E-1
1.497083158E1,7.893673778E-1,-3.749074936E-1,1.284306347E-1
1.497997033E1,5.239542127E-1,-2.632751763E-1,1.197260618E-1
1.498913455E1,2.977880239E-1,-1.394258887E-1,1.461452097E-1
1.499828601E1,1.224748790E-1,-7.314895838E-2,1.998997629E-1
1.500743752E1,8.246437646E-3,-6.948387623E-2,2.680092454E-1
1.501658897E1,-5.848862603E-2,-8.444963396E-2,3.304683566E-1
1.502574049E1,-1.359135211E-1,-6.215370819E-2,3.640649617E-1
1.503489194E1,-2.706053257E-1,-2.015795931E-2,3.790307343E-1
1.504404345E1,-4.433223903E-1,-1.679829881E-2,3.778090179E-1
1.505319491E1,-6.164975762E-1,-7.620319724E-2,3.619270027E-1
1.506233366E1,-7.514948249E-1,-1.415638477E-1,3.335226178E-1
1.507149788E1,-8.698465228E-1,-1.412584335E-1,3.272614181E-1
1.508064939E1,-9.889616966E-1,-1.238492802E-1,3.495573401E-1
1.508980090E1,-1.073716760E0,-1.780619770E-1,3.636068404E-1
1.509895236E1,-1.071731567E0,-2.319692522E-1,3.246653080E-1
1.510810387E1,-1.056460381E0,-1.666085869E-1,2.037175596E-1
1.511724257E1,-1.119530320E0,1.829487532E-1,9.804098308E-2
1.512640684E1,-1.282015681E0,7.673768401E-1,1.240019947E-1
1.513555830E1,-1.577665806E0,8.921424150E-1,2.719797492E-1
1.514469705E1,-1.850714445E0,5.433486104E-1,5.578562617E-1
1.515386127E1,-1.872704983E0,7.586722970E-1,9.491039515E-1
1.516301278E1,-1.645317078E0,1.388150454E0,1.113269091E0
1.517216424E1,-1.313627005E0,7.858549953E-1,8.942803741E-1
1.518131575E1,-1.421899676E0,2.809897438E-2,5.338805318E-1
1.519046720E1,-1.950282574E0,6.975875497E-1,3.182514310E-1
1.519960595E1,-2.130635262E0,1.276059866E0,2.195995897E-1
1.520877017E1,-1.812994719E0,1.265064716E0,2.029540092E-1
1.521792168E1,-1.505433083E0,1.162747741E0,2.796153426E-1
1.522706043E1,-1.531088710E0,1.168550849E0,3.472666740E-1
1.523622465E1,-1.697086453E0,1.176644564E0,3.570402265E-1
1.524537611E1,-1.765959382E0,1.039051175E0,3.329117596E-1
1.525451486E1,-1.584690452E0,7.769976854E-1,2.788517773E-1
1.526367908E1,-1.249335408E0,4.333961308E-1,2.496838123E-1
1.527283059E1,-1.063943267E0,1.565296054E-1,2.644968629E-1
1.528198205E1,-1.140909910E0,8.475505561E-2,2.530434728E-1
1.529113356E1,-1.264453769E0,1.510319859E-1,1.843231618E-1
1.530028502E1,-1.253153205E0,1.797417998E-1,8.979454637E-2
1.530943653E1,-1.152057886E0,1.374406368E-1,1.603474095E-2
1.531858804E1,-1.048213840E0,6.322269142E-2,-3.023693897E-2
1.532773950E1,-1.010799527E0,9.315420687E-2,-8.246438205E-2
1.533689101E1,-9.776610136E-1,1.233911440E-1,-9.758284688E-2
1.534604246E1,-9.182561636E-1,1.924168877E-2,-8.002099395E-2
1.535519397E1,-9.121476412E-1,9.040539712E-2,-6.963659078E-2
1.536434543E1,-9.216157794E-1,3.104631305E-1,-3.558185324E-2
1.537349694E1,-9.633061290E-1,3.997995257E-1,6.261184346E-3
1.538264840E1,-1.049588323E0,5.280774832E-1,2.382304333E-2
1.539179991E1,-1.102579355E0,5.882459283E-1,4.596625641E-2
1.540095137E1,-1.078756213E0,4.738647640E-1,5.543438718E-2
1.541010288E1,-1.020267606E0,3.443651497E-1,4.978405312E-2
1.541925434E1,-9.689564705E-1,1.956238300E-1,3.374931216E-2
1.542840585E1,-9.100096822E-1,9.254335612E-2,7.330167107E-3
1.543755731E1,-8.698465228E-1,2.687728032E-2,-1.603474095E-2
1.544670882E1,-8.640434742E-1,-4.978405312E-2,-3.909422457E-2
1.545586028E1,-8.880192041E-1,6.261184346E-3,-4.062134400E-2
1.546501179E1,-9.756757617E-1,9.407047927E-2,-4.077405483E-2
1.547416325E1,-1.088377118E0,2.179197669E-1,-6.413896382E-2
1.548331476E1,-1.138008475E0,2.021904439E-1,-8.948912472E-2
1.549246621E1,-1.052947998E0,6.184828654E-2,-8.826743066E-2
1.550161772E1,-8.901571631E-1,-1.113269106E-1,-4.657710344E-2
1.551076918E1,-7.539382577E-1,-2.090624720E-1,2.641914412E-2
1.551992069E1,-7.737907767E-1,-2.112004459E-1,8.246438205E-2
1.552907220E1,-9.261971712E-1,-1.493521482E-1,1.064401343E-1
1.553822366E1,-1.016297102E0,6.505523622E-2,1.220167428E-1
1.554737512E1,-1.029583097E0,2.733541429E-1,7.849387079E-2
1.555652663E1,-1.038898468E0,3.695625961E-1,1.786728203E-2
1.556567814E1,-1.062874198E0,3.205420971E-1,-1.588202827E-2
1.557482960E1,-1.030041218E0,1.603474021E-1,-2.580829710E-2
1.558398111E1,-9.451334476E-1,-3.955236077E-2,-2.275406010E-2
1.559313257E1,-8.477032781E-1,-1.815743446E-1,-1.023169141E-2
1.560228408E1,-8.076927662E-1,-1.783674061E-1,1.985253580E-2
1.561142278E1,-8.797727823E-1,-6.810946763E-2,5.650337040E-2
1.562058705E1,-9.978190064E-1,2.379250079E-1,6.704048812E-2
1.562973851E1,-1.068677306E0,5.932853818E-1,5.909947306E-2
1.563889002E1,-1.130220175E0,8.420529366E-1,7.192726433E-2
1.564804147E1,-1.241852522E0,1.055849433E0,8.429691941E-2
1.565719299E1,-1.354095697E0,1.211157441E0,9.147437662E-2
1.566633168E1,-1.399756551E0,1.135106921E0,9.177979827E-2
1.567549595E1,-1.363716483E0,9.097042680E-1,6.291726977E-2
1.568464741E1,-1.282321095E0,5.746545792E-1,2.031067200E-2
1.569379892E1,-1.162442327E0,2.185306102E-1,-2.321219631E-2
1.570295038E1,-1.056613088E0,3.726168349E-2,-5.711421743E-2
1.571210189E1,-9.988879561E-1,-5.497625470E-2,-9.880454093E-2
1.572124064E1,-9.665130973E-1,-1.841704547E-1,-1.673721522E-1
1.573040486E1,-9.903361201E-1,-1.779092699E-1,-2.438807636E-1
1.573955637E1,-1.067913771E0,-3.771981969E-2,-2.929012477E-1
1.574870783E1,-1.162442327E0,6.383354217E-2,-3.032856584E-1
1.575785929E1,-1.223985195E0,1.203369126E-1,-3.008422852E-1
1.576701080E1,-1.223832488E0,1.681357026E-1,-2.751866877E-1
1.577616231E1,-1.178018928E0,1.942494214E-1,-2.394521236E-1
1.578531377E1,-1.129914761E0,2.547233105E-1,-1.994416267E-1
1.579446528E1,-1.093569279E0,3.603998721E-1,-1.656923145E-1
1.580361674E1,-1.083948493E0,4.604261220E-1,-1.479777545E-1
1.581276825E1,-1.096012712E0,5.013529062E-1,-1.634016484E-1
1.582191970E1,-1.116628766E0,5.709894896E-1,-2.283041626E-1
1.583105845E1,-1.143353343E0,6.404733658E-1,-3.249707520E-1
1.584022267E1,-1.157708287E0,6.297835112E-1,-4.117110670E-1
1.584937418E1,-1.145796776E0,5.621321797E-1,-4.770717025E-1
1.585851293E1,-1.098761559E0,5.024218559E-1,-5.146388412E-1
1.586767715E1,-1.005301833E0,4.477510452E-1,-5.028799772E-1
1.587682861E1,-8.677085042E-1,4.017847776E-1,-4.451549351E-1
1.588596736E1,-7.006418109E-1,3.655920923E-1,-3.698680103E-1
1.589513163E1,-5.230379701E-1,3.981196880E-1,-3.038965166E-1
1.590428309E1,-3.432961702E-1,4.750864506E-1,-2.617480457E-1
1.591342184E1,-1.794363856E-1,4.848600030E-1,-2.722851634E-1
1.592258606E1,7.482878864E-3,4.416425824E-1,-3.234436214E-1
1.593173757E1,3.205420971E-1,4.027010500E-1,-3.871244490E-1
1.594088903E1,7.785248160E-1,4.213318825E-1,-4.628695250E-1
1.595004054E1,1.307824016E0,4.923428893E-1,-5.433486104E-1
1.595919200E1,1.815743446E0,5.097520351E-1,-5.819846988E-1
1.596834351E1,2.198439360E0,4.304946065E-1,-5.370874405E-1
1.597749496E1,2.455300570E0,2.457133085E-1,-4.074351192E-1
1.598664647E1,2.619007587E0,-8.857285604E-3,-2.637332976E-1
1.599578522E1,2.716437817E0,-2.626643181E-1,-1.603474021E-1
1.600494944E1,2.798291206E0,-4.172086716E-1,-1.278197914E-1
1.601410090E1,2.935121059E0,-4.043808877E-1,-1.317902952E-1
1.602323965E1,3.120513201E0,-3.167243004E-1,-1.342336833E-1
1.603240387E1,3.272156000E0,-3.344388604E-1,-9.590301663E-2
1.604155538E1,3.350344419E0,-4.268295169E-1,-2.809897438E-2
1.605069413E1,3.351718903E0,-4.579827189E-1,1.466033421E-2
1.605985835E1,3.301324129E0,-4.219427407E-1,2.229592577E-2
1.606900986E1,3.261160851E0,-3.865135908E-1,-1.343864016E-2
1.607816132E1,3.263146162E0,-3.246653080E-1,-5.925218388E-2
1.608731283E1,3.277500868E0,-2.661767006E-1,-6.719319522E-2
1.609646429E1,3.284525633E0,-2.460187376E-1,-6.108472589E-3
1.610561580E1,3.267574787E0,-2.344126403E-1,5.787777901E-2
1.611476726E1,3.226342440E0,-2.021904439E-1,1.186570823E-1
1.612391877E1,3.173351526E0,-1.647760421E-1,1.731752008E-1
1.613307022E1,3.127537966E0,-1.580567211E-1,2.131856978E-1
1.614222174E1,3.102035046E0,-2.362451702E-1,2.906105816E-1
1.615137319E1,3.089207411E0,-3.767400384E-1,3.877353072E-1
1.616051194E1,3.061719179E0,-5.766398311E-1,4.621059597E-1
1.616967616E1,2.976047754E0,-8.021951914E-1,4.879142344E-1
1.617882767E1,2.853725672E0,-9.639169574E-1,4.657710493E-1
1.618797918E1,2.748812675E0,-9.979717135E-1,4.205683470E-1
1.619713064E1,2.689102411E0,-9.843803644E-1,3.724641204E-1
1.620628215E1,2.655505657E0,-1.009883285E0,3.466558158E-1
1.621543361E1,2.628323078E0,-1.052795291E0,3.214583695E-1
1.622458512E1,2.572430611E0,-1.131899953E0,2.814478874E-1
1.623373658E1,2.473320484E0,-1.257123709E0,2.221956849E-1
1.624287533E1,2.379097462E0,-1.303242683E0,1.574458778E-1
1.625203955E1,2.316485405E0,-1.253458619E0,1.264453828E-1
1.626119106E1,2.252651930E0,-1.215586066E0,1.461452097E-1
1.627032976E1,2.122388840E0,-1.212073684E0,1.855448484E-1
1.627949403E1,1.913937211E0,-1.212226391E0,2.200577259E-1
1.628864548E1,1.681662560E0,-1.179393291E0,2.342599183E-1
1.629778424E1,1.498102903E0,-9.790354371E-1,2.218902707E-1
1.630694845E1,1.385707021E0,-7.328640223E-1,2.110477239E-1
1.631609996E1,1.287818789E0,-5.961869359E-1,1.931804419E-1
1.632523871E1,1.146407604E0,-5.561764240E-1,1.627907902E-1
1.633440293E1,9.654440880E-1,-4.866925478E-1,1.316375881E-1
1.634355439E1,8.225058317E-1,-3.042019308E-1,1.511846930E-1
1.635269314E1,7.050704360E-1,-1.320957243E-1,2.913741469E-1
1.636185741E1,5.080721974E-1,-9.269607067E-2,4.559974670E-1
1.637100887E1,1.965401024E-1,-2.309002578E-1,5.259394646E-1
1.638016038E1,-1.044548824E-1,-3.990359604E-1,4.909684956E-1
1.638931184E1,-2.887780368E-1,-3.677300513E-1,4.095730782E-1
1.639846335E1,-3.494046330E-1,-2.139492482E-1,3.162661791E-1
1.640761481E1,-3.686463237E-1,-9.009996802E-2,2.220429778E-1
1.641676632E1,-4.535540938E-1,-8.261708915E-2,1.634016484E-1
1.642591778E1,-5.864133835E-1,-1.899735034E-1,1.838650256E-1
1.643506929E1,-6.945333481E-1,-3.400892019E-1,2.492256761E-1
1.644422075E1,-7.664605975E-1,-3.816268146E-1,2.909159958E-1
1.645337226E1,-8.354863524E-1,-2.292204350E-1,2.884726226E-1
1.646251101E1,-9.113841057E-1,-1.130067464E-2,2.559449971E-1
1.647167522E1,-1.002247691E0,1.064401343E-1,2.217375487E-1
1.648082674E1,-1.117850542E0,7.803573459E-2,2.128802687E-1
1.648997819E1,-1.253305912E0,-6.108472589E-4,2.052446753E-1
1.649912970E1,-1.392884493E0,-2.443389036E-2,1.823379099E-1
1.650828116E1,-1.550788522E0,6.032116711E-2,1.763821393E-1
1.651743267E1,-1.703194857E0,2.040229887E-1,1.959292591E-1
1.652658413E1,-1.715717196E0,3.578037918E-1,2.128802687E-1
1.653573564E1,-1.495048642E0,6.981984377E-1,2.470877171E-1
1.654487434E1,-1.396854997E0,1.177255392E0,3.689517379E-1
1.655403861E1,-1.580567241E0,1.172674060E0,5.221216679E-1
1.656319007E1,-1.681051612E0,7.417212725E-1,6.853706241E-1
1.657232882E1,-1.640583038E0,5.268557668E-1,9.106205702E-1
1.658149304E1,-1.687770963E0,9.310839176E-1,1.043632507E0
1.659064455E1,-1.884769201E0,1.250709772E0,8.759549856E-1
1.659978330E1,-2.167438745E0,1.262621284E0,5.019637346E-1
1.660894752E1,-2.283194304E0,1.169772506E0,2.087570578E-1
1.661809897E1,-2.146822691E0,1.142895222E0,7.910472155E-2
1.662723772E1,-1.903247356E0,9.382613897E-1,4.795150831E-2
1.663640200E1,-1.686243892E0,5.175403357E-1,7.177454978E-2
1.664555345E1,-1.664864182E0,4.263713956E-1,1.543916464E-1
1.665470496E1,-1.767639279E0,6.380299330E-1,2.635805905E-1
1.666385642E1,-1.769929886E0,6.210789680E-1,3.735330999E-1
1.667300793E1,-1.674943209E0,5.250232220E-1,4.266768098E-1
1.668215939E1,-1.626686215E0,5.917583108E-1,3.915531039E-1
1.669131090E1,-1.622715712E0,6.192464232E-1,2.962609231E-1
1.670046236E1,-1.557813168E0,6.236750484E-1,2.002051920E-1
1.670961387E1,-1.427550077E0,5.628957748E-1,1.524063945E-1
1.671876533E1,-1.294232607E0,4.810422063E-1,1.288887709E-1
1.672791684E1,-1.224596024E0,4.918847680E-1,1.038440317E-1
1.673706830E1,-1.215738773E0,4.863871336E-1,7.146912813E-2
1.674621981E1,-1.214517117E0,4.350759685E-1,4.230117425E-2
1.675537132E1,-1.163358569E0,3.694098890E-1,3.283303976E-2
1.676452278E1,-1.047755718E0,2.502946556E-1,3.863608837E-2
1.677367429E1,-9.234483242E-1,5.955760926E-2,5.619794875E-2
1.678282574E1,-8.293778896E-1,-1.282779276E-1,6.368082762E-2
1.679197726E1,-7.939487100E-1,-2.095206082E-1,5.604523420E-2
1.680112871E1,-7.797465324E-1,-2.246390730E-1,5.436540768E-2
1.681028022E1,-7.870767117E-1,-2.221956849E-1,3.726168349E-2
1.681943168E1,-7.963921428E-1,-1.398840249E-1,1.939439960E-2
1.682858319E1,-8.125795722E-1,-3.451287001E-2,-3.512371797E-3
1.683773465E1,-8.185353279E-1,9.437590092E-2,-4.321744293E-2
1.684688616E1,-8.263236284E-1,1.569877416E-1,-5.803048983E-2
1.685603762E1,-8.385405540E-1,2.009687424E-1,-4.474456236E-2
1.686518913E1,-8.383878469E-1,2.545706034E-1,-3.497100621E-2
1.687434064E1,-8.449544907E-1,2.954973578E-1,-3.436015919E-2
1.688349210E1,-8.486195803E-1,2.948864996E-1,-3.680354729E-2
1.689264361E1,-8.336538076E-1,2.003578991E-1,-3.191677108E-2
1.690179507E1,-8.142594099E-1,9.926267713E-2,-2.000524849E-2
1.691094658E1,-7.814263701E-1,6.795676053E-2,-1.985253580E-2
1.692009804E1,-7.469134927E-1,4.581354442E-4,-2.932066843E-2
1.692924955E1,-7.220214605E-1,-8.811471611E-2,-3.817795217E-2
1.693840101E1,-7.174401283E-1,-1.200314835E-1,-3.313846514E-2
1.694755252E1,-7.114843726E-1,-1.572931707E-1,-2.519745007E-2
1.695670397E1,-7.195780873E-1,-1.638597846E-1,-1.863084175E-2
1.696585549E1,-7.605048418E-1,-5.741964281E-2,-1.343864016E-2
1.697500700E1,-8.342646360E-1,1.119377613E-1,-1.527118124E-2
1.698415845E1,-9.072608948E-1,2.762556672E-1,-1.343864016E-2
1.699330996E1,-1.001942158E0,4.573718905E-1,-2.046338283E-2
1.700246142E1,-1.073869467E0,5.977140665E-1,-4.963133857E-2
1.701161293E1,-1.112352848E0,7.108734846E-1,-6.352811307E-2
1.702076439E1,-1.113116384E0,7.192726731E-1,-6.597150117E-2
1.702991590E1,-1.104564548E0,7.175928354E-1,-4.871506989E-2
1.703906736E1,-1.105786204E0,7.120952010E-1,-2.977880463E-2
1.704821887E1,-1.097539783E0,6.169557571E-1,-3.649812192E-2
1.705737033E1,-1.071731567E0,5.036435723E-1,-5.451811850E-2
1.706652184E1,-1.049130201E0,3.932329118E-1,-8.842013776E-2
1.707567330E1,-1.088682532E0,2.901524603E-1,-1.119377613E-1
1.708482481E1,-1.161984205E0,2.849602401E-1,-1.417165697E-1
1.709397632E1,-1.227802992E0,3.617742956E-1,-1.824906170E-1
1.710312778E1,-1.274685502E0,3.904841244E-1,-2.255553454E-1
1.711227929E1,-1.302326322E0,3.987305462E-1,-2.582356930E-1
1.712143074E1,-1.313779712E0,4.361449480E-1,-2.667875290E-1
1.713058226E1,-1.301410079E0,4.277457893E-1,-2.637332976E-1
1.713973371E1,-1.271478534E0,3.326063454E-1,-2.585411072E-1
1.714888522E1,-1.240325332E0,2.742704153E-1,-2.399102598E-1
1.715803668E1,-1.204285383E0,2.948864996E-1,-2.141019702E-1
1.716718819E1,-1.160915256E0,2.774773538E-1,-2.107423097E-1
1.717633965E1,-1.118766785E0,3.191677034E-1,-2.195995897E-1
1.718549116E1,-1.096012712E0,4.100312293E-1,-2.463241518E-1
1.719464267E1,-1.115712523E0,4.260659516E-1,-2.910687327E-1
1.720379413E1,-1.150072694E0,4.337015450E-1,-3.408527672E-1
1.721294564E1,-1.161373377E0,4.853181541E-1,-3.830012381E-1
1.722209710E1,-1.138161182E0,5.841227174E-1,-4.031592011E-1
1.723124861E1,-1.100288630E0,6.872031689E-1,-4.059080184E-1
1.724040007E1,-1.072953224E0,7.986828089E-1,-4.081986845E-1
1.724955158E1,-1.048366666E0,9.463551044E-1,-4.106420577E-1
1.725869028E1,-9.959864616E-1,1.094791055E0,-3.975088596E-1
1.726785455E1,-8.935168386E-1,1.121515512E0,-3.736858070E-1
1.727700601E1,-7.131641507E-1,9.579612017E-1,-3.680354655E-1
1.728614476E1,-4.475983381E-1,7.050704360E-1,-4.068242610E-1
1.729530897E1,-1.207950488E-1,4.987567961E-1,-4.454603493E-1
1.730446048E1,2.348707765E-1,3.463504016E-1,-4.347705245E-1
1.731359924E1,5.740436912E-1,2.589992285E-1,-4.231644273E-1
1.732276345E1,8.625163436E-1,2.557922900E-1,-4.352286756E-1
1.733191496E1,1.112200141E0,2.651077211E-1,-4.492781460E-1
1.734106642E1,1.325385809E0,1.896680743E-1,-4.178195298E-1
1.735021793E1,1.504669547E0,1.496575773E-2,-3.486410677E-1
1.735936939E1,1.674179673E0,-2.237228155E-1,-2.745758295E-1
1.736850814E1,1.857128382E0,-5.030327439E-1,-2.168507725E-1
1.737767236E1,2.072299242E0,-8.133431077E-1,-1.785201132E-1
1.738682387E1,2.328244209E0,-1.112352848E0,-1.514901221E-1
1.739597538E1,2.607401609E0,-1.352721214E0,-1.065928489E-1
1.740512684E1,2.862124920E0,-1.460077643E0,-6.016845629E-2
1.741427835E1,3.052709103E0,-1.344474792E0,-1.863084175E-2
1.742342981E1,3.156400442E0,-1.011715770E0,-1.985253580E-2
1.743258132E1,3.184041262E0,-7.218687534E-1,-4.550812021E-2
1.744173278E1,3.169075489E0,-5.538857579E-1,-6.474980712E-2
1.745087153E1,3.146779537E0,-4.573718905E-1,-5.940489471E-2
1.746003575E1,3.149833918E0,-4.036173224E-1,-2.702999115E-2
1.746918726E1,3.171977043E0,-3.431434333E-1,1.145338640E-2
1.747833871E1,3.199465275E0,-2.777827978E-1,6.413896382E-2
1.748749022E1,3.218706846E0,-2.553341687E-1,1.449235082E-1
1.749664174E1,3.224662781E0,-2.102841735E-1,2.267770469E-1
1.750579319E1,3.232298374E0,-1.250709742E-1,2.884726226E-1
1.751494470E1,3.244209766E0,-2.916795574E-2,3.208475113E-1
1.752409616E1,3.233367205E0,8.292251825E-2,3.266505599E-1
1.753324767E1,3.175184011E0,1.805053651E-1,3.310792148E-1
1.754239913E1,3.075921297E0,2.002051920E-1,3.138227761E-1
1.755155064E1,2.962303877E0,8.903098851E-2,2.948864996E-1
1.756070210E1,2.878312349E0,-9.972081333E-2,2.901524603E-1
1.756985361E1,2.793404579E0,-3.336753249E-1,2.964136302E-1
1.757900507E1,2.672151327E0,-5.538857579E-1,2.925958335E-1
1.758815658E1,2.556548595E0,-7.114843726E-1,2.638860047E-1
1.759730804E1,2.521119356E0,-8.133431077E-1,2.606790662E-1
1.760645955E1,2.537459612E0,-9.217684865E-1,2.596100867E-1
1.761561106E1,2.538986683E0,-1.105022669E0,2.628170252E-1
1.762476252E1,2.461103678E0,-1.297286868E0,2.611372173E-1
1.763391403E1,2.307475567E0,-1.398992896E0,2.357870489E-1
1.764305278E1,2.130177021E0,-1.411973476E0,2.070772201E-1
1.765221700E1,1.994110823E0,-1.411057115E0,1.695101112E-1
1.766136845E1,1.902331114E0,-1.456107140E0,1.291942000E-1
1.767050720E1,1.805053592E0,-1.462979198E0,9.727742523E-2
1.767967147E1,1.668071151E0,-1.371046662E0,6.215370819E-2
1.768882293E1,1.474585295E0,-1.198634982E0,1.542389300E-2
1.769796168E1,1.235896707E0,-1.034011722E0,-1.939439960E-2
1.770712590E1,9.923213720E-1,-8.874083757E-1,-2.550287358E-2
1.771627741E1,7.834116220E-1,-6.870504618E-1,5.803049076E-3
1.772542887E1,6.166502833E-1,-4.074351192E-1,6.795676053E-2
1.773458038E1,4.674508572E-1,-8.429691941E-2,1.522536725E-1
1.774373184E1,3.023693860E-1,2.044811249E-1,2.454078794E-1
1.775288335E1,1.360662282E-1,3.533751369E-1,3.437542915E-1
1.776203481E1,-2.076880634E-2,3.420744538E-1,4.201101959E-1
1.777118632E1,-1.699682474E-1,2.709107697E-1,4.564556181E-1
1.778033778E1,-3.252761662E-1,1.945548505E-1,4.382829070E-1
1.778948929E1,-4.917320311E-1,1.574458778E-1,3.914003670E-1
1.779864080E1,-6.627692580E-1,1.521009654E-1,3.468085229E-1
1.780779226E1,-7.853968740E-1,9.269607067E-2,3.118375242E-1
1.781694377E1,-8.484668136E-1,-1.893626526E-2,2.838912606E-1
1.782609522E1,-9.014578462E-1,-9.147437662E-2,2.560977042E-1
1.783523397E1,-9.914051294E-1,-7.253811508E-2,2.200577259E-1
1.784439819E1,-1.100288630E0,-2.901524538E-3,1.801999360E-1
1.785354970E1,-1.231926203E0,4.856235534E-2,1.510319859E-1
1.786270116E1,-1.396854997E0,9.529217333E-2,1.395785958E-1
1.787185267E1,-1.549108624E0,1.546970755E-1,1.469087601E-1
1.788100418E1,-1.708539724E0,1.974563748E-1,1.837123185E-1
1.789014288E1,-1.884769201E0,1.688992679E-1,2.185306102E-1
1.789930715E1,-2.061151266E0,1.620272398E-1,2.324273884E-1
1.790845861E1,-2.096885920E0,3.626905680E-1,2.461714447E-1
1.791759736E1,-1.829182148E0,8.895463347E-1,3.092414141E-1
1.792676158E1,-1.617065430E0,1.437476277E0,4.381301999E-1
1.793591309E1,-1.655396104E0,1.422510505E0,6.368082762E-1
1.794505184E1,-1.683189631E0,8.351809382E-1,8.666395545E-1
1.795421606E1,-1.819561243E0,5.231906772E-1,9.764393568E-1
1.796336752E1,-2.107270241E0,8.811471462E-1,9.124531150E-1
1.797250627E1,-2.195843220E0,1.568503022E0,6.132906675E-1
1.798167054E1,-2.022973299E0,1.828418612E0,2.577775419E-1
1.799082200E1,-1.823073626E0,1.200773001E0,-5.787777901E-2
1.799996075E1,-1.787033677E0,6.850652099E-1,-2.197522968E-1
1.800912496E1,-1.832999945E0,8.185353279E-1,-1.200314835E-1
1.801827647E1,-1.750230074E0,7.043069005E-1,8.093725890E-2
1.802741522E1,-1.452289343E0,1.925695986E-1,2.055501044E-1
1.803657944E1,-1.191304922E0,-8.811471611E-2,2.930539846E-1
1.804573090E1,-1.238798261E0,2.580829710E-2,3.507790267E-1
1.805486965E1,-1.484511495E0,3.103103936E-1,3.066453338E-1
1.806403392E1,-1.626380801E0,4.960079789E-1,2.127275616E-1
1.807318538E1,-1.536433578E0,4.136963189E-1,1.241547018E-1
1.808232413E1,-1.313627005E0,2.035648525E-1,4.779879749E-2
1.809148835E1,-1.114490867E0,1.618745178E-2,-1.832541823E-2
1.810063986E1,-1.012173891E0,-8.032641560E-2,-9.208522737E-2
1.810977856E1,-9.578084946E-1,-1.038440317E-2,-1.253764033E-1
1.811894283E1,-8.993198872E-1,4.642439261E-2,-9.269607067E-2
1.812809429E1,-8.597674966E-1,2.137965336E-2,-3.374931216E-2
1.813723304E1,-8.612946272E-1,1.374406368E-2,3.710897267E-2
1.814639726E1,-8.761076927E-1,4.825693369E-2,9.009996802E-2
1.815554877E1,-8.904625773E-1,1.209477559E-1,1.553079188E-1
1.816468752E1,-9.109259844E-1,1.824906170E-1,1.873773932E-1
1.817385174E1,-9.115368128E-1,2.576248348E-1,1.763821393E-1
1.818300325E1,-8.791618943E-1,3.196258247E-1,1.258345395E-1
1.819215470E1,-8.663341403E-1,3.573456407E-1,5.146388337E-2
1.820130621E1,-9.051229358E-1,4.683671296E-1,-4.718795046E-2
1.821045767E1,-9.579612017E-1,5.589252710E-1,-1.417165697E-1
1.821959642E1,-9.941539168E-1,5.893148780E-1,-2.212794125E-1
1.822876064E1,-1.037371397E0,6.282563806E-1,-2.681619525E-1
1.823791215E1,-1.074327588E0,6.201626658E-1,-2.884726226E-1
1.824706361E1,-1.088682532E0,5.755708218E-1,-2.848075330E-1
1.825621512E1,-1.085017443E0,4.979932308E-1,-2.542651594E-1
1.826536663E1,-1.049130201E0,3.089359999E-1,-2.067717910E-1
1.827451809E1,-9.918632507E-1,1.682884246E-1,-1.611109674E-1
1.828366960E1,-9.403993487E-1,1.046075895E-1,-1.382041872E-1
1.829282106E1,-9.344435930E-1,-3.817795310E-3,-1.386623234E-1
1.830197257E1,-9.940012097E-1,-1.009425074E-1,-1.469087601E-1
1.831112403E1,-1.068982720E0,1.572931744E-2,-1.493521482E-1
1.832027554E1,-1.114643574E0,1.718007922E-1,-1.473668963E-1
1.832942705E1,-1.115865231E0,3.176405728E-1,-1.542389393E-1
1.833857851E1,-1.077381849E0,4.827220440E-1,-1.437018216E-1
1.834773002E1,-1.039509296E0,6.438329816E-1,-1.111742035E-1
1.835688147E1,-1.031262875E0,8.115105629E-1,-7.574506104E-2
1.836603298E1,-1.027597785E0,8.845068216E-1,-7.284353673E-2
1.837518444E1,-9.903361201E-1,8.501466513E-1,-8.903098851E-2
1.838433595E1,-9.174925685E-1,7.826480269E-1,-1.012479365E-1
1.839348741E1,-8.032641411E-1,7.204943299E-1,-1.540862173E-1
1.840263892E1,-7.143858671E-1,6.646018028E-1,-2.023431510E-1
1.841179043E1,-6.621584296E-1,6.253548861E-1,-2.214321345E-1
1.842094189E1,-6.387935281E-1,6.439857483E-1,-2.402156889E-1
1.843009340E1,-6.340594292E-1,6.668924689E-1,-2.554868758E-1
1.843924486E1,-6.572716236E-1,6.415423155E-1,-2.574721277E-1
1.844839637E1,-7.044596076E-1,6.184828281E-1,-2.583884001E-1
1.845754783E1,-7.395833135E-1,6.178719997E-1,-2.617480457E-1
1.846669934E1,-7.629482150E-1,5.418215394E-1,-2.648022771E-1
1.847585080E1,-8.017370105E-1,3.953709006E-1,-2.741177082E-1
1.848500231E1,-8.496885300E-1,2.499892414E-1,-2.872509360E-1
1.849415382E1,-8.941276670E-1,1.209477559E-1,-2.898470163E-1
1.850330528E1,-9.158127308E-1,4.627167806E-2,-2.838912606E-1
1.851245679E1,-9.181034565E-1,2.153236605E-2,-2.735068500E-1
1.852160824E1,-9.124531150E-1,9.468132630E-3,-2.570139766E-1
1.853075976E1,-8.942803741E-1,3.145863488E-2,-2.336490750E-1
1.853991121E1,-8.765658140E-1,1.020114943E-1,-2.078407854E-1
1.854906272E1,-8.887827396E-1,2.322746664E-1,-1.947075576E-1
1.855821424E1,-9.248227477E-1,2.754921019E-1,-2.121167034E-1
1.856736569E1,-9.558232427E-1,2.391466945E-1,-2.593046725E-1
1.857651720E1,-9.524635673E-1,2.449497581E-1,-3.110739589E-1
1.858566866E1,-9.109259844E-1,2.918322682E-1,-3.414636254E-1
1.859482017E1,-8.341119289E-1,3.257342875E-1,-3.384093940E-1
1.860395892E1,-7.224795818E-1,3.753656447E-1,-3.261924386E-1
1.861312314E1,-5.827482939E-1,4.827220440E-1,-3.387148082E-1
1.862227460E1,-4.416425824E-1,6.558972597E-1,-3.823903799E-1
1.863141335E1,-3.106158376E-1,8.467870355E-1,-4.433223903E-1
1.864057762E1,-1.569877416E-1,9.932376146E-1,-4.949389994E-1
1.864972908E1,6.001574174E-2,1.064095974E0,-5.074613690E-1
1.865888059E1,3.782671690E-1,1.091736794E0,-4.990622103E-1
1.866803205E1,7.843278646E-1,1.107007980E0,-4.816530645E-1
1.867718356E1,1.218029380E0,1.033706307E0,-4.288147688E-1
1.868632226E1,1.604543090E0,7.707365155E-1,-3.283303976E-1
1.869548653E1,1.869956136E0,3.138227761E-1,-1.801999360E-1
1.870463798E1,2.035343170E0,-2.589992285E-1,-2.901524492E-2
1.871377674E1,2.167438745E0,-8.206732869E-1,7.375980914E-2
1.872294101E1,2.316791058E0,-1.277128935E0,1.123958975E-1
1.873209246E1,2.491798639E0,-1.551704764E0,9.727742523E-2
1.874124397E1,2.689102411E0,-1.610498786E0,6.642963737E-2
1.875039543E1,2.914657593E0,-1.442668557E0,2.809897438E-2
1.875954694E1,3.141587496E0,-1.232689738E0,7.024743594E-3
1.876868569E1,3.307279825E0,-1.088377118E0,1.725643501E-2
1.877784991E1,3.361492395E0,-9.509364963E-1,2.305948362E-2
1.878700142E1,3.327590466E0,-7.985301018E-1,1.114796288E-2
1.879614012E1,3.291092396E0,-6.252021790E-1,-2.290677279E-2
1.880530439E1,3.289412498E0,-4.480564594E-1,-2.305948362E-2
1.881445585E1,3.306821585E0,-3.417690396E-1,3.084778599E-2
1.882360736E1,3.294604778E0,-2.672456801E-1,1.130067408E-1
1.883275882E1,3.242835283E0,-1.621799469E-1,2.096733153E-1
1.884191033E1,3.204046488E0,-7.925742865E-2,3.156553209E-1
1.885106179E1,3.217638016E0,3.436015919E-2,3.749074936E-1
1.886021330E1,3.242377281E0,5.818320066E-2,4.604261220E-1
1.886936476E1,3.255510569E0,-1.679829881E-2,5.357130170E-1
1.887850351E1,3.217790604E0,-6.627693027E-2,5.373928547E-1
1.888766778E1,3.155789614E0,-1.449235082E-1,4.972296655E-1
1.889681924E1,3.073783398E0,-3.439069986E-1,4.692834020E-1
1.890597074E1,3.003077745E0,-6.172611713E-1,4.465293586E-1
1.891512220E1,2.937411785E0,-8.530482054E-1,4.217900336E-1
1.892427371E1,2.829444408E0,-1.040731072E0,3.900259733E-1
1.893341246E1,2.662530422E0,-1.244906664E0,3.449759781E-1
1.894257668E1,2.506458998E0,-1.423579574E0,3.177932799E-1
1.895172819E1,2.425979853E0,-1.507570982E0,3.104631305E-1
1.896086689E1,2.409487009E0,-1.536433578E0,3.324536085E-1
1.897003116E1,2.347180605E0,-1.546054363E0,3.576510847E-1
1.897918262E1,2.174158096E0,-1.506502032E0,3.588727713E-1
1.898832137E1,1.966470003E0,-1.419456363E0,3.414636254E-1
1.899748559E1,1.800319552E0,-1.308434844E0,3.109212518E-1
1.900663710E1,1.675401330E0,-1.179240584E0,2.903051674E-1
1.901577585E1,1.563310862E0,-1.048672080E0,2.765611112E-1
1.902494007E1,1.418081880E0,-9.338327646E-1,2.634278834E-1
1.903409158E1,1.225512266E0,-8.173136115E-1,2.502946556E-1
1.904323028E1,9.936957955E-1,-6.856760383E-1,2.547233105E-1
1.905239455E1,7.314895988E-1,-5.244123936E-1,2.924431264E-1
1.906154601E1,4.807367921E-1,-3.660502136E-1,3.558185399E-1
1.907069752E1,2.617480457E-1,-2.451024652E-1,4.243861437E-1
1.907984897E1,8.597674966E-2,-1.751604527E-1,4.732539058E-1
1.908900048E1,-6.184828654E-2,-1.181989461E-1,4.764608741E-1
1.909815200E1,-2.009687424E-1,-5.054761097E-2,4.308000207E-1
1.910730345E1,-3.122956753E-1,1.481304597E-2,3.903313875E-1
1.911645496E1,-4.034646153E-1,8.322793990E-2,3.529170156E-1
1.912560642E1,-5.008947253E-1,1.070509851E-1,3.089359999E-1
1.913475793E1,-6.088619828E-1,7.055285573E-2,2.757975459E-1
1.914390939E1,-7.136223316E-1,1.191152167E-2,2.580829561E-1
1.915306090E1,-7.864658237E-1,-4.001049697E-2,2.531961799E-1
1.916221236E1,-8.208259940E-1,-6.474980712E-2,2.652604282E-1
1.917136387E1,-8.377770185E-1,-4.428642616E-2,2.773246467E-1
1.918050262E1,-8.956547976E-1,1.114796288E-2,2.756448388E-1
1.918966684E1,-1.059514523E0,7.879929990E-2,2.640387416E-1
1.919881835E1,-1.300188422E0,1.850867122E-1,2.732014358E-1
1.920796981E1,-1.571557283E0,3.168770075E-1,3.042019308E-1
1.921712132E1,-1.845064163E0,4.256078303E-1,3.596363366E-1
1.922627278E1,-2.071382999E0,3.912476599E-1,4.332434237E-1
1.923541153E1,-2.204547644E0,2.386885732E-1,4.787515402E-1
1.924457575E1,-2.173852682E0,2.712161839E-1,4.538595080E-1
1.925372726E1,-1.957765460E0,8.083036542E-1,4.165978432E-1
1.926286601E1,-1.785964727E0,1.298661232E0,4.497362971E-1
1.927203022E1,-1.768555522E0,1.092347622E0,5.361711979E-1
1.928118174E1,-1.804595470E0,6.216897964E-1,6.992673874E-1
1.929032049E1,-1.753895164E0,7.273663878E-1,8.912261724E-1
1.929948470E1,-1.828724027E0,1.014311910E0,9.547542930E-1
1.930863616E1,-2.174921751E0,1.223832488E0,7.579087615E-1
1.931777491E1,-2.514552832E0,1.175575495E0,4.141544402E-1
1.932693918E1,-2.408112526E0,1.155112147E0,1.939440072E-1
1.933609064E1,-1.988918662E0,1.177866220E0,1.363716573E-1
1.934522939E1,-1.632947445E0,1.127929449E0,1.756185889E-1
1.935439361E1,-1.476417780E0,8.832851648E-1,2.538070381E-1
1.936354512E1,-1.504822254E0,4.387410581E-1,3.338280320E-1
1.937268387E1,-1.608360887E0,1.846285909E-1,4.146125913E-1
1.938184809E1,-1.656465054E0,1.235438585E-1,3.959817290E-1
1.939099960E1,-1.604084849E0,4.734066129E-2,2.712161839E-1
1.940013830E1,-1.479624748E0,-8.276980370E-2,1.097997949E-1
1.940930257E1,-1.316528559E0,-2.553341687E-1,-4.474456236E-2
1.941845403E1,-1.163053155E0,-4.320217371E-1,-1.412584335E-1
1.942759278E1,-1.081046939E0,-4.868452549E-1,-1.722589284E-1
1.943675700E1,-1.050962687E0,-3.373403847E-1,-1.580567211E-1
1.944590851E1,-9.981244206E-1,-2.026485801E-1,-9.926267713E-2
1.945506002E1,-9.213103652E-1,-1.588202864E-1,-1.206423342E-2
1.946421147E1,-8.797727823E-1,-1.524063945E-1,6.459710002E-2
1.947336298E1,-8.860339522E-1,-8.002099395E-2,1.059819981E-1
1.948250168E1,-9.165763259E-1,2.305948362E-2,1.105633527E-1
1.949166595E1,-9.474241138E-1,1.687465608E-1,9.254335612E-2
1.950081741E1,-9.553651214E-1,3.113794029E-1,6.612421572E-2
1.950996892E1,-9.575030804E-1,5.024218559E-1,4.520269856E-2
1.951912043E1,-9.707890153E-1,7.577560544E-1,6.413896102E-3
1.952827189E1,-1.016144395E0,9.575030804E-1,-2.382304333E-2
1.953742340E1,-1.077381849E0,1.059819937E0,-3.848337755E-2
1.954657486E1,-1.139535546E0,1.054933190E0,-5.543438718E-2
1.955572637E1,-1.154195905E0,9.823951125E-1,-7.314895838E-2
1.956486507E1,-1.097387075E0,8.336538076E-1,-1.044548824E-1
1.957402934E1,-9.825478196E-1,6.270347238E-1,-1.400367320E-1
1.958318085E1,-8.872556686E-1,3.866663277E-1,-1.550024897E-1
1.959233231E1,-8.606837988E-1,1.950129867E-1,-1.809635013E-1
1.960148382E1,-8.929060102E-1,7.192726433E-2,-2.134911120E-1
1.961063528E1,-9.436063170E-1,5.115845799E-2,-2.443388999E-1
1.961978679E1,-9.952229261E-1,9.743013978E-2,-2.600682080E-1
1.962893824E1,-1.063790560E0,1.696628332E-1,-2.440334857E-1
1.963808976E1,-1.151294351E0,2.864873707E-1,-2.105895877E-1
1.964724127E1,-1.221083641E0,4.318690002E-1,-1.659977436E-1
1.965639272E1,-1.265370131E0,5.427377820E-1,-1.346918195E-1
1.966554424E1,-1.287971497E0,5.813738704E-1,-1.305686086E-1
1.967469569E1,-1.297744989E0,6.445965767E-1,-1.398840249E-1
1.968384720E1,-1.289498568E0,7.794411182E-1,-1.649287641E-1
1.969299866E1,-1.274532795E0,8.927532434E-1,-1.649287641E-1
1.970215017E1,-1.265370131E0,9.634588361E-1,-1.276670843E-1
1.971130163E1,-1.245823026E0,1.041952729E0,-8.903098851E-2
1.972045314E1,-1.212684512E0,1.122126460E0,-8.276980370E-2
1.972959189E1,-1.150988936E0,1.119683027E0,-1.134648770E-1
1.973875611E1,-1.093569279E0,9.859074950E-1,-1.484358907E-1
1.974790762E1,-1.060889006E0,7.278245091E-1,-1.931804419E-1
1.975705908E1,-1.011868477E0,4.433223903E-1,-2.389939874E-1
1.976621059E1,-9.303203821E-1,2.342599183E-1,-2.909159958E-1
1.977536205E1,-8.512156606E-1,1.058292910E-1,-3.329117596E-1
1.978451356E1,-8.200624585E-1,-2.748812549E-3,-3.527642787E-1
1.979366507E1,-8.284615874E-1,-1.021642014E-1,-3.594835997E-1
1.980281653E1,-8.609892130E-1,-1.107160673E-1,-3.573456407E-1
1.981196804E1,-9.072608948E-1,2.855710872E-2,-3.423798978E-1
1.982111950E1,-9.503256083E-1,1.375933439E-1,-3.208475113E-1
1.983027101E1,-9.782719016E-1,2.142546773E-1,-2.783936262E-1
1.983942246E1,-9.927794933E-1,2.951919436E-1,-2.229592502E-1
1.984857397E1,-1.000109673E0,2.599155009E-1,-1.722589284E-1
1.985772548E1,-1.007897973E0,1.647760421E-1,-1.466033459E-1
1.986687694E1,-1.002553105E0,1.230857223E-1,-1.618745178E-1
1.987602845E1,-9.648332596E-1,4.535540938E-2,-2.029540092E-1
1.988517991E1,-8.625163436E-1,-6.139015034E-2,-2.443388999E-1
1.989431866E1,-7.088882327E-1,-7.391251624E-2,-2.658712566E-1
1.990348288E1,-5.352548957E-1,2.825168520E-2,-2.658712566E-1
1.991263439E1,-3.874298632E-1,1.791309565E-1,-2.747285664E-1
1.992177314E1,-2.747285664E-1,3.423798978E-1,-3.069507480E-1
1.993093736E1,-1.496575773E-1,5.070032477E-1,-3.423798978E-1
1.994008887E1,4.840964451E-2,6.277982593E-1,-3.599417508E-1
1.994924033E1,3.504736125E-1,6.896465421E-1,-3.687990308E-1
1.995839184E1,7.618792653E-1,7.409577370E-1,-3.939964771E-1
1.996754330E1,1.240783453E0,8.354863524E-1,-4.335488379E-1
1.997669481E1,1.695406556E0,9.463551044E-1,-4.744756222E-1
1.998584632E1,2.063136578E0,9.940012097E-1,-4.749337435E-1
1.999499778E1,2.337865114E0,8.945857882E-1,-3.939964771E-1
2.000413653E1,2.522188425E0,5.549547076E-1,-2.483094037E-1
2.001330075E1,2.677954435E0,8.093725890E-3,-9.483403713E-2
2.002245226E1,2.861666679E0,-5.998520255E-1,2.229592577E-2
2.003159101E1,3.057901382E0,-1.082421303E0,9.544488788E-2
2.004075522E1,3.228175163E0,-1.323095202E0,1.261399537E-1
2.004990674E1,3.354773045E0,-1.350736022E0,1.148392856E-1
2.005905819E1,3.448080063E0,-1.221236348E0,7.024743408E-2
2.006820970E1,3.502445459E0,-9.927794933E-1,3.084778599E-2
2.007736116E1,3.503972530E0,-7.548545003E-1,2.626643144E-2
2.008649991E1,3.480913162E0,-5.902311802E-1,5.528167635E-2
2.009566413E1,3.450523376E0,-4.550811946E-1,9.345962852E-2
2.010481564E1,3.413872719E0,-2.709107697E-1,7.605048269E-2
2.011395439E1,3.352329731E0,-1.174353883E-1,2.596100792E-2
2.012311861E1,3.316137075E0,-1.369825006E-1,5.650337320E-3
2.013227012E1,3.301018476E0,-2.423536479E-1,1.908897609E-2
2.014142158E1,3.271697998E0,-3.089359999E-1,1.091889441E-1
2.015057309E1,3.197632790E0,-2.599155009E-1,1.795890927E-1
2.015972455E1,3.100507975E0,-1.827960461E-1,2.221956849E-1
2.016887606E1,3.047211647E0,-2.189887464E-1,2.516690791E-1
2.017802757E1,3.010713339E0,-3.652866483E-1,2.802261710E-1
2.018717903E1,2.908854723E0,-4.979932308E-1,3.058817685E-1
2.019631778E1,2.744231224E0,-5.664080977E-1,3.005368412E-1
2.020548200E1,2.562198877E0,-6.601731777E-1,2.663294077E-1
2.021463351E1,2.405516624E0,-7.733326554E-1,2.316638231E-1
2.022377226E1,2.275711536E0,-8.706100583E-1,2.156290859E-1
2.023293647E1,2.157665253E0,-9.607100487E-1,1.959292591E-1
2.024208798E1,2.037633657E0,-1.031415582E0,1.731752008E-1
2.025122668E1,1.934858680E0,-1.105175376E0,1.426328421E-1
2.026039095E1,1.854684949E0,-1.160304427E0,1.090362370E-1
2.026954241E1,1.781535983E0,-1.175575495E0,9.147437662E-2
2.027869392E1,1.692810416E0,-1.184585571E0,1.043021679E-1
2.028784538E1,1.581789017E0,-1.184890985E0,1.186570823E-1
2.029699689E1,1.427855492E0,-1.191152096E0,1.067455560E-1
2.030613564E1,1.257123709E0,-1.175881028E0,5.971032009E-2
2.031529986E1,1.104411840E0,-1.111131191E0,2.855710872E-2
2.032445137E1,9.776610136E-1,-9.239065051E-1,3.115320951E-2
2.033360283E1,8.495358229E-1,-6.667397618E-1,6.795676053E-2
2.034275434E1,6.904101372E-1,-4.619532526E-1,1.149920002E-1
2.035190580E1,4.928010404E-1,-3.185568452E-1,1.550024897E-1
2.036105731E1,2.693836391E-1,-2.331909388E-1,2.089097649E-1
2.037020882E1,3.634541109E-2,-1.893626451E-1,2.793098986E-1
2.037936028E1,-1.985253543E-1,-1.435490996E-1,3.490992188E-1
2.038851179E1,-4.071297050E-1,-7.620319724E-2,4.164451063E-1
2.039766324E1,-5.764871240E-1,-4.504998401E-2,4.567610323E-1
2.040681476E1,-6.980457306E-1,-1.072036922E-1,4.529432356E-1
2.041596621E1,-7.655443549E-1,-1.791309565E-1,4.158342779E-1
2.042511772E1,-8.096780181E-1,-1.892099380E-1,3.581092060E-1
2.043426918E1,-8.863393664E-1,-1.389677525E-1,2.892361879E-1
2.044340793E1,-1.017518878E0,-5.070032179E-2,2.418955117E-1
2.045257220E1,-1.185654521E0,-4.581354442E-4,2.351761907E-1
2.046172366E1,-1.384485364E0,-3.313846514E-2,2.684673667E-1
2.047086241E1,-1.583926916E0,-2.473931387E-2,3.281776905E-1
2.048002663E1,-1.744579792E0,4.749337584E-2,3.947600424E-1
2.048917814E1,-1.834832430E0,1.276670843E-1,4.440859556E-1
2.049832960E1,-1.792225838E0,2.626643181E-1,4.388937652E-1
2.050748111E1,-1.654632568E0,5.984776020E-1,4.194993675E-1
2.051663262E1,-1.642568231E0,1.084559321E0,5.089884996E-1
2.052577132E1,-1.806733489E0,1.185959935E0,6.407787800E-1
2.053493559E1,-1.868734479E0,6.933116317E-1,7.273663878E-1
2.054408705E1,-1.756491303E0,5.125008225E-1,8.205205798E-1
2.055322580E1,-1.775732994E0,1.129151106E0,8.701519370E-1
2.056239007E1,-1.945853949E0,1.309809208E0,7.643226385E-1
2.057154153E1,-2.130787849E0,1.027750492E0,4.902049303E-1
2.058068028E1,-2.228218079E0,1.143047929E0,2.696890533E-1
2.058984450E1,-2.261356592E0,1.360814929E0,1.966928244E-1
2.059899601E1,-2.160413980E0,1.214058876E0,2.377723008E-1
2.060813476E1,-1.902941942E0,8.335011005E-1,3.710896969E-1
2.061729897E1,-1.680440784E0,5.373928547E-1,5.262449384E-1
2.062645043E1,-1.601030707E0,3.064926267E-1,6.080984473E-1
2.063558918E1,-1.587439299E0,1.600419879E-1,6.106945276E-1
2.064475345E1,-1.520551562E0,-1.035386100E-1,5.192201734E-1
2.065390491E1,-1.377460599E0,-3.704788685E-1,3.115321100E-1
2.066304366E1,-1.183669329E0,-5.735855699E-1,7.559234649E-2
2.067220793E1,-9.804098606E-1,-7.641699314E-1,-6.581879407E-2
2.068135939E1,-8.333483934E-1,-7.678350210E-1,-1.142284349E-1
2.069049814E1,-7.774558663E-1,-5.978667736E-1,-1.389677525E-1
2.069966236E1,-8.090671897E-1,-2.249445021E-1,-1.608055383E-1
2.070881387E1,-8.492304087E-1,5.940489471E-2,-1.527118087E-1
2.071795262E1,-8.758022785E-1,1.711899489E-1,-9.132166207E-2
2.072711684E1,-9.289459586E-1,2.925958335E-1,-2.596100792E-3
2.073626830E1,-1.001636744E0,3.872771561E-1,6.642963737E-2
2.074541981E1,-1.039662004E0,4.807367921E-1,1.052184403E-1
2.075457132E1,-1.008050680E0,5.476245880E-1,1.070509851E-1
2.076372278E1,-9.594883323E-1,5.705313683E-1,6.658235192E-2
2.077287429E1,-9.327637553E-1,5.722111464E-1,9.315420873E-3
2.078202575E1,-9.268079996E-1,6.244385839E-1,-3.649812192E-2
2.079117726E1,-9.054283500E-1,7.099572420E-1,-4.978405312E-2
2.080031601E1,-8.632798791E-1,7.003363967E-1,-6.230641901E-2
2.080948022E1,-8.446490765E-1,6.244385839E-1,-5.909947306E-2
2.081863174E1,-8.994725943E-1,5.358657837E-1,-4.657710344E-2
2.082777043E1,-9.648332596E-1,3.851391971E-1,-2.382304333E-2
2.083693470E1,-9.907942414E-1,2.353289127E-1,9.162709117E-3
2.084608616E1,-9.684983492E-1,7.452336699E-2,4.917320609E-2
2.085523767E1,-9.396358132E-1,-1.488940120E-1,7.757759839E-2
2.086438918E1,-9.547542930E-1,-2.579302490E-1,8.796200156E-2
2.087354064E1,-9.840749502E-1,-2.092151791E-1,8.643488586E-2
2.088267939E1,-9.862129092E-1,-1.777565479E-1,9.071081877E-2
2.089184361E1,-9.878927469E-1,-1.392731816E-1,1.047603041E-1
2.090099512E1,-1.013853788E0,4.886778072E-3,1.068982705E-1
2.091013387E1,-1.033706307E0,1.753131598E-1,9.681928903E-2
2.091929809E1,-1.049588323E0,2.252499312E-1,9.422318637E-2
2.092844960E1,-1.084101200E0,2.848075330E-1,9.575030953E-2
2.093760106E1,-1.159693480E0,4.190412164E-1,8.231166750E-2
2.094675257E1,-1.236965656E0,5.291464329E-1,5.726693198E-2
2.095590403E1,-1.271325827E0,5.879405141E-1,2.702999115E-2
2.096505554E1,-1.270867705E0,6.120689511E-1,1.786728203E-2
2.097420700E1,-1.245823026E0,5.693096519E-1,1.527118147E-3
2.098335851E1,-1.185196400E0,4.891359508E-1,-7.635590620E-3
2.099251002E1,-1.112505555E0,4.133908749E-1,-2.137965523E-3
2.100166147E1,-1.056002140E0,3.591781855E-1,-5.497625098E-3
2.101081298E1,-1.037218690E0,2.754921019E-1,-2.718270384E-2
2.101996444E1,-1.054475069E0,1.649287641E-1,-7.055285573E-2
2.102911595E1,-1.066233873E0,1.374406368E-1,-1.543916464E-1
2.103826746E1,-1.042563558E0,1.516428292E-1,-2.538070381E-1
2.104741892E1,-9.952229261E-1,1.924168915E-1,-3.272614181E-1
2.105657043E1,-9.469659925E-1,2.669402659E-1,-3.581092060E-1
2.106572189E1,-9.200887084E-1,3.634541333E-1,-3.585673273E-1
2.107487340E1,-9.069554806E-1,4.630222321E-1,-3.353551328E-1
2.108402486E1,-9.177979827E-1,5.686988235E-1,-2.941229641E-1
2.109317637E1,-9.411629438E-1,6.801784039E-1,-2.527380586E-1
2.110232788E1,-9.965972900E-1,7.243121266E-1,-2.177670449E-1
2.111147934E1,-1.083490372E0,7.122479081E-1,-1.957765520E-1
2.112063085E1,-1.167481780E0,6.668924689E-1,-1.927223057E-1
2.112976960E1,-1.234980464E0,5.648810267E-1,-2.084516287E-1
2.113893382E1,-1.275449038E0,4.115583301E-1,-2.359397560E-1
2.114808533E1,-1.262468576E0,2.831276953E-1,-2.767138183E-1
2.115722403E1,-1.200467587E0,1.988307834E-1,-3.092414141E-1
2.116638830E1,-1.126860499E0,1.632489264E-1,-3.098522723E-1
2.117553976E1,-1.070509791E0,1.815743446E-1,-2.820587158E-1
2.118467851E1,-1.038593054E0,2.672456801E-1,-2.629697323E-1
2.119384272E1,-9.959864616E-1,4.547757804E-1,-2.597627938E-1
2.120299424E1,-8.843541145E-1,7.267554998E-1,-2.518217862E-1
2.121213298E1,-6.768187881E-1,8.929060102E-1,-2.284568697E-1
2.122129720E1,-3.936910629E-1,7.931851745E-1,-2.360924631E-1
2.123044871E1,-5.558710173E-2,5.748072863E-1,-2.855710983E-1
2.123958741E1,3.151971996E-1,4.950917065E-1,-3.408527672E-1
2.124875168E1,6.817055345E-1,6.106945276E-1,-3.773508966E-1
2.125790314E1,1.019198656E0,7.040014863E-1,-3.866663277E-1
2.126704189E1,1.331494331E0,6.639909744E-1,-3.857500553E-1
2.127620616E1,1.622410297E0,5.169295073E-1,-3.738385141E-1
2.128535762E1,1.875301123E0,2.944283783E-1,-3.553603888E-1
2.129449637E1,2.071077585E0,2.733541466E-2,-3.355078697E-1
2.130366059E1,2.223942041E0,-2.562504113E-1,-3.353551328E-1
2.131281210E1,2.378333807E0,-4.921901822E-1,-3.286358118E-1
2.132195085E1,2.559297323E0,-6.775823236E-1,-3.193204105E-1
2.133111507E1,2.765152931E0,-8.368607163E-1,-2.921377122E-1
2.134026658E1,2.961234808E0,-9.458969831E-1,-2.325800955E-1
2.134941804E1,3.109365225E0,-9.200887084E-1,-1.624853760E-1
2.135856955E1,3.186179399E0,-7.860077024E-1,-1.059819981E-1
2.136772101E1,3.197938204E0,-5.931326747E-1,-9.498675168E-2
2.137685976E1,3.183125019E0,-4.491254389E-1,-9.956810623E-2
2.138602403E1,3.162661791E0,-3.683409095E-1,-8.200624585E-2
2.139517549E1,3.149070263E0,-2.530434728E-1,-4.611896724E-2
2.140432700E1,3.149223089E0,-1.430909634E-1,1.542389300E-2
2.141347845E1,3.155484200E0,-5.909947306E-2,8.322793990E-2
2.142262996E1,3.137464285E0,-7.635590620E-3,1.531699449E-1
2.143178142E1,3.108754396E0,7.635590620E-3,2.342599183E-1
2.144093293E1,3.099744320E0,7.941014133E-3,2.996205688E-1
2.145008444E1,3.101118803E0,4.535540938E-2,3.416163325E-1
2.145923590E1,3.084931374E0,5.390727147E-2,3.683409095E-1
2.146838741E1,3.042324781E0,-1.359135192E-2,3.901786804E-1
2.147753887E1,2.951308489E0,-1.059819981E-1,3.669664860E-1
2.148669038E1,2.811882734E0,-1.305686086E-1,2.915268540E-1
2.149584189E1,2.686658859E0,-1.521009654E-1,2.315111160E-1
2.150499335E1,2.629697561E0,-1.800472289E-1,2.121167034E-1
2.151413210E1,2.615648031E0,-2.686200738E-1,2.090624720E-1
2.152329632E1,2.621145487E0,-4.034646153E-1,2.305948436E-1
2.153244783E1,2.599460602E0,-5.558710098E-1,2.689255178E-1
2.154159929E1,2.539597511E0,-6.974348426E-1,3.058817685E-1
2.155075080E1,2.464768648E0,-8.258655071E-1,3.176405728E-1
2.155990231E1,2.390703440E0,-9.423846006E-1,2.988570333E-1
2.156905377E1,2.314500332E0,-1.025154471E0,2.586938143E-1
2.157820528E1,2.234173775E0,-1.104564548E0,1.910424829E-1
2.158735674E1,2.135827541E0,-1.158624530E0,1.165191159E-1
2.159649549E1,2.026943922E0,-1.165038466E0,6.016845629E-2
2.160565970E1,1.915158868E0,-1.118308663E0,1.603474095E-2
2.161481121E1,1.789324284E0,-1.023474574E0,-1.313321572E-2
2.162394996E1,1.655090690E0,-9.068027735E-1,-2.382304333E-2
2.163311418E1,1.513832211E0,-8.189934492E-1,-2.122694254E-2
2.164226569E1,1.345391035E0,-7.421793938E-1,-9.009997360E-3
2.165141715E1,1.160609841E0,-6.248967648E-1,1.389677543E-2
2.166056866E1,9.807152748E-1,-4.393518865E-1,4.734066129E-2
2.166972012E1,8.208259940E-1,-2.208212912E-1,8.460234851E-2
2.167887163E1,6.975875497E-1,-3.878879920E-2,1.207950488E-1
2.168802314E1,5.942016840E-1,7.085828483E-2,1.603474021E-1
2.169717460E1,4.811949134E-1,8.460234851E-2,2.009687424E-1
2.170632611E1,3.362714052E-1,-2.748812549E-3,2.464768738E-1
2.171547757E1,2.000524700E-1,-1.661504507E-1,2.828222811E-1
2.172462908E1,9.040539712E-2,-3.151971996E-1,2.870981991E-1
2.173376783E1,3.206948051E-3,-3.341334462E-1,2.614426315E-1
2.174293205E1,-8.536590636E-2,-2.005106062E-1,2.252499312E-1
2.175208356E1,-1.994416267E-1,-4.001049697E-2,1.919587553E-1
2.176123502E1,-3.370349705E-1,5.253286287E-2,1.666085869E-1
2.177038653E1,-4.973823726E-1,6.429167092E-2,1.635543555E-1
2.177953804E1,-6.783458591E-1,2.367033064E-2,1.867665499E-1
2.178868950E1,-8.538117409E-1,-1.496575773E-2,2.264716178E-1
2.179784101E1,-1.015533566E0,-7.421794534E-2,2.522799075E-1
2.180699246E1,-1.177255392E0,-1.130067408E-1,2.528907657E-1
2.181614397E1,-1.309503794E0,-8.674030751E-2,2.379250079E-1
2.182529543E1,-1.453969240E0,-3.466558084E-2,2.064663768E-1
2.183444694E1,-1.640430331E0,-5.070032179E-2,1.788255423E-1
2.184359845E1,-1.823073626E0,-2.458660305E-2,1.653869003E-1
2.185274991E1,-1.924626946E0,1.747023165E-1,1.687465608E-1
2.186190142E1,-1.891488552E0,4.001049399E-1,1.437018216E-1
2.187104017E1,-1.739387512E0,6.514685750E-1,1.220167428E-1
2.188020439E1,-1.634627223E0,1.133732557E0,2.725905776E-1
2.188935590E1,-1.642262816E0,1.368603230E0,5.544965863E-1
2.189849460E1,-1.531241417E0,1.189930439E0,9.266552925E-1
2.190765887E1,-1.305685997E0,1.173743010E0,1.283695459E0
2.191681033E1,-1.603932142E0,1.357760787E0,1.308892965E0
2.192594908E1,-2.366269588E0,1.143811464E0,8.591566682E-1
2.193511335E1,-2.764083862E0,9.211576581E-1,3.155026138E-1
2.194426481E1,-2.328855276E0,9.129112363E-1,2.977880463E-2
2.195340356E1,-1.525743723E0,8.157865405E-1,-3.588727489E-2
2.196256778E1,-9.571976662E-1,4.727957845E-1,3.420744836E-2
2.197171929E1,-1.028514028E0,9.315420687E-2,2.079934925E-1
2.198085804E1,-1.533379316E0,8.750387281E-2,3.535278440E-1
2.199002226E1,-1.857128382E0,4.431696832E-1,3.808632791E-1
2.199917377E1,-1.794058442E0,6.039752364E-1,3.243598938E-1
2.200831246E1,-1.583468795E0,5.076140761E-1,2.478512824E-1
2.201747674E1,-1.458703279E0,3.683409095E-1,1.853921413E-1
2.202662819E1,-1.428924441E0,1.149920002E-1,1.105633527E-1
2.203576694E1,-1.388761282E0,-1.262926757E-1,-1.527118147E-4
2.204493121E1,-1.235591292E0,-2.476985604E-1,-1.162136942E-1
2.205408267E1,-1.064095974E0,-2.553341687E-1,-1.516428292E-1
2.206323418E1,-1.022405624E0,-1.462979168E-1,-1.550024897E-1
2.207238564E1,-1.059514523E0,8.139539510E-2,-1.688992679E-1
2.208153715E1,-1.064401388E0,2.718270421E-1,-1.550024897E-1
2.209067590E1,-1.041189194E0,3.347443044E-1,-9.743013978E-2
2.209984012E1,-1.055849433E0,3.620797098E-1,-4.092676565E-2
2.210899163E1,-1.091584086E0,4.146125913E-1,3.054236295E-4
2.211814309E1,-1.094791055E0,4.188885093E-1,2.535016090E-2
2.212729460E1,-1.052642584E0,3.255815804E-1,3.741439432E-2
2.213644606E1,-1.018893242E0,3.454341292E-1,1.557660475E-2
2.214559757E1,-1.036607742E0,4.109475017E-1,-2.916795574E-2
2.215474908E1,-1.077381849E0,4.421007037E-1,-7.223268598E-2
2.216390054E1,-1.111742020E0,4.515688419E-1,-9.743013978E-2
2.217305205E1,-1.139077425E0,3.955236077E-1,-9.880454093E-2
2.218220351E1,-1.145796776E0,3.208475113E-1,-7.864658535E-2
2.219135502E1,-1.087460876E0,1.866138428E-1,-5.375456065E-2
2.220050653E1,-9.991934299E-1,-3.374931216E-2,-4.016320780E-2
2.220965798E1,-9.500201941E-1,-1.788255423E-1,-3.909422457E-2
2.221880950E1,-9.668185115E-1,-2.156290859E-1,-4.413371533E-2
2.222796095E1,-1.026986957E0,-1.777565479E-1,-3.542914242E-2
2.223711246E1,-1.055238605E0,-2.006633282E-1,-2.031067200E-2
2.224626397E1,-1.044090629E0,-2.023431510E-1,-7.330167107E-3
2.225541543E1,-1.055085897E0,-8.307522535E-2,9.162708884E-4
2.226456694E1,-1.084712029E0,-7.788302377E-3,-8.399149403E-3
2.227371840E1,-1.108993173E0,2.458660305E-2,-3.176405653E-2
2.228286991E1,-1.111436605E0,9.865183383E-2,-4.291202128E-2
2.229202137E1,-1.075243831E0,1.843231618E-1,-2.382304333E-2
2.230117288E1,-1.017824292E0,2.399102598E-1,-7.635590737E-4
2.231032439E1,-9.936957955E-1,2.883199155E-1,7.941014133E-3
2.231947585E1,-9.998042583E-1,3.599417508E-1,3.512371797E-3
2.232862736E1,-9.883508682E-1,4.431696832E-1,2.901524538E-3
2.233777882E1,-9.547542930E-1,4.853181541E-1,4.275931045E-3
2.234693033E1,-9.315420985E-1,5.106683373E-1,-7.635590620E-3
2.235608184E1,-9.251281619E-1,5.659499764E-1,-1.985253580E-2
2.236523330E1,-9.339854717E-1,5.835118294E-1,-2.611372061E-2
2.237438481E1,-9.558232427E-1,6.088619828E-1,-1.832541777E-3
2.238353627E1,-9.352071285E-1,5.740436912E-1,1.908897609E-2
2.239268778E1,-8.800781965E-1,4.734066129E-1,4.886778072E-3
2.240183929E1,-8.440381885E-1,4.028537571E-1,-4.611896724E-2
2.241099075E1,-8.315158486E-1,4.175141156E-1,-1.162136942E-1
2.242014226E1,-8.489249945E-1,4.631749392E-1,-1.743968874E-1
2.242929371E1,-8.423583508E-1,4.269822240E-1,-1.963873953E-1
2.243844522E1,-7.751652002E-1,3.523061574E-1,-2.037175596E-1
2.244759674E1,-6.934643388E-1,3.145863414E-1,-1.817270666E-1
2.245674819E1,-6.675033569E-1,3.484883606E-1,-1.491994411E-1
2.246589970E1,-7.301151752E-1,3.900259733E-1,-1.368297935E-1
2.247505116E1,-8.382351398E-1,3.506263196E-1,-1.394258887E-1
2.248420267E1,-9.260444641E-1,3.106158376E-1,-1.424801201E-1
2.249335418E1,-9.715525508E-1,2.991624475E-1,-1.372879148E-1
2.250250564E1,-9.472714067E-1,2.619007528E-1,-1.328592747E-1
2.251165715E1,-8.732061386E-1,2.506000996E-1,-1.261399537E-1
2.252080861E1,-8.058602214E-1,2.272351831E-1,-1.085781008E-1
2.252996012E1,-7.566870451E-1,1.695101112E-1,-1.003316641E-1
2.253911163E1,-7.415685654E-1,1.447708011E-1,-1.154501289E-1
2.254826309E1,-7.412631512E-1,1.910424829E-1,-1.563768983E-1
2.255741460E1,-7.330167294E-1,2.680092454E-1,-2.095206082E-1
2.256656606E1,-7.282826304E-1,3.081724346E-1,-2.490729690E-1
2.257571757E1,-7.065975666E-1,3.611634374E-1,-2.661767006E-1
2.258486903E1,-6.418477297E-1,4.378247857E-1,-2.742704153E-1
2.259402054E1,-5.619794726E-1,5.312843919E-1,-2.738122940E-1
2.260317205E1,-5.103628635E-1,5.566345453E-1,-2.790044844E-1
2.261232351E1,-5.025745630E-1,5.198310018E-1,-2.886253297E-1
2.262147502E1,-5.004366040E-1,4.850127101E-1,-2.837385535E-1
2.263062647E1,-4.891359508E-1,4.567610323E-1,-2.750339806E-1
2.263977799E1,-4.618005157E-1,4.230117202E-1,-2.724378705E-1
2.264892950E1,-4.054498672E-1,3.972034156E-1,-2.701472044E-1
2.265808095E1,-3.200839758E-1,3.660502136E-1,-2.646495700E-1
2.266721970E1,-2.305948436E-1,3.463504016E-1,-2.457133085E-1
2.267638392E1,-1.374406368E-1,4.056025743E-1,-2.408265322E-1
2.268553543E1,-5.192201585E-2,5.092939138E-1,-2.762556672E-1
2.269468694E1,2.275406010E-2,6.018372774E-1,-3.478775024E-1
2.270383840E1,9.407047927E-2,6.485670805E-1,-4.378247857E-1
2.271298991E1,1.366770715E-1,6.852179170E-1,-5.028799772E-1
2.272214137E1,1.517955512E-1,7.339329720E-1,-5.389199853E-1
2.273129288E1,1.722589284E-1,7.243121266E-1,-5.412106514E-1
2.274044434E1,2.353289127E-1,6.166502833E-1,-5.131117105E-1
2.274959585E1,3.489464819E-1,4.301891923E-1,-4.816530645E-1
2.275874736E1,5.089884996E-1,1.772984117E-1,-4.682144225E-1
2.276789882E1,7.061394453E-1,-9.834641218E-2,-4.769189954E-1
2.277705033E1,9.104678631E-1,-3.377985358E-1,-4.790569544E-1
2.278620179E1,1.098150611E0,-5.121954083E-1,-4.512633979E-1
2.279535330E1,1.256665468E0,-6.244385839E-1,-3.871244490E-1
2.280449205E1,1.378071427E0,-6.781931520E-1,-2.970244884E-1
2.281365627E1,1.451678514E0,-6.830799580E-1,-2.067717910E-1
2.282280778E1,1.488176584E0,-6.575770974E-1,-1.418692768E-1
2.283195924E1,1.494437814E0,-6.108472347E-1,-1.009425074E-1
2.284111074E1,1.490620017E0,-5.511369109E-1,-7.711946964E-2
2.285026226E1,1.498102903E0,-4.889832437E-1,-5.696150661E-2
2.285941371E1,1.525438309E0,-4.550811946E-1,-4.092676565E-2
2.286856522E1,1.569266558E0,-4.567610323E-1,-3.206948191E-2
2.287771668E1,1.609429836E0,-4.837910235E-1,-2.321219631E-2
2.288685543E1,1.632947445E0,-4.934118688E-1,-4.734066315E-3
2.289601965E1,1.635696292E0,-4.781406820E-1,2.458660305E-2
2.290517116E1,1.620730519E0,-4.691306949E-1,5.619794875E-2
2.291430991E1,1.608819008E0,-4.671454430E-1,9.880454093E-2
2.292347413E1,1.604848504E0,-4.566083252E-1,1.525591016E-1
2.293262564E1,1.607291818E0,-4.075878263E-1,1.947075576E-1
2.294177710E1,1.596602082E0,-3.280249834E-1,2.257080674E-1
2.295092861E1,1.552468300E0,-2.231119573E-1,2.490729690E-1
2.296008012E1,1.481304646E0,-1.400367320E-1,2.626643181E-1
2.296923158E1,1.427244663E0,-1.563768983E-1,2.597627938E-1
2.297838309E1,1.410140872E0,-2.330382317E-1,2.286095917E-1
2.298753460E1,1.395480514E0,-2.791571915E-1,1.765348613E-1
2.299668606E1,1.354248405E0,-2.510582209E-1,1.097997949E-1
2.300583757E1,1.258650780E0,-1.600419879E-1,4.245388508E-2
2.301498903E1,1.103953719E0,-7.345438004E-2,1.374406368E-2
2.302414054E1,9.251281619E-1,-7.314895838E-2,3.206948191E-2
2.303329200E1,7.711946368E-1,-1.727170646E-1,6.887302548E-2
2.304244351E1,6.668924689E-1,-3.058817685E-1,1.024696305E-1
2.305159502E1,5.934380889E-1,-3.872771561E-1,1.246128380E-1
2.306074647E1,5.292991400E-1,-3.927747905E-1,1.363716573E-1
2.306989798E1,4.753918648E-1,-3.561239541E-1,1.273616552E-1
2.307904944E1,4.283566475E-1,-3.086305857E-1,1.068982705E-1
2.308820095E1,3.736858070E-1,-2.551814318E-1,9.055810422E-2
2.309735246E1,3.096995652E-1,-1.931804419E-1,7.666133344E-2
2.310649116E1,2.359397560E-1,-1.517955512E-1,6.581879407E-2
2.311565543E1,1.453816444E-1,-1.496575773E-1,4.367557913E-2
2.312480689E1,3.878879920E-2,-2.029540092E-1,3.145863488E-2
2.313395840E1,-6.444438547E-2,-3.248180151E-1,2.901524492E-2
2.314310991E1,-1.502684206E-1,-4.944808483E-1,2.290677279E-2
2.315226137E1,-2.223484069E-1,-6.355865598E-1,1.832541823E-2
2.316141288E1,-2.880144715E-1,-6.844543815E-1,2.825168520E-2
2.317056434E1,-3.440597057E-1,-6.187883019E-1,4.001049697E-2
2.317971585E1,-3.846810758E-1,-4.921901822E-1,4.932591692E-2
2.318886736E1,-4.191939235E-1,-3.559712470E-1,5.451811850E-2
2.319801882E1,-4.578300118E-1,-2.409792393E-1,5.909947306E-2
2.320717033E1,-5.176930428E-1,-1.579040140E-1,5.192201585E-2
2.321632179E1,-5.940489769E-1,-9.239064902E-2,3.176405653E-2
2.322547330E1,-6.768187881E-1,-6.245913357E-2,1.160609815E-2
2.323462481E1,-7.511894107E-1,-6.933116168E-2,-3.665083554E-3
2.324377627E1,-8.032641411E-1,-1.081199646E-1,-1.435491070E-2
2.325292778E1,-8.393041492E-1,-1.514901221E-1,-2.061609551E-2
2.326207924E1,-8.710681796E-1,-1.815743446E-1,-1.847812906E-2
2.327123074E1,-8.970292211E-1,-1.876828223E-1,-2.748812549E-3
2.328038226E1,-9.170344472E-1,-1.647760421E-1,9.315420873E-3
2.328953371E1,-9.275715351E-1,-1.514901221E-1,1.298050396E-2
2.329868522E1,-9.126058221E-1,-1.780619770E-1,1.420219894E-2
2.330783668E1,-8.761076927E-1,-1.983726472E-1,3.100049868E-2
2.331698819E1,-8.246437907E-1,-1.734806150E-1,6.429167092E-2
2.332613970E1,-7.707365155E-1,-1.467560530E-1,1.020114943E-1
2.333529116E1,-7.258392572E-1,-1.627907902E-1,1.310267299E-1
2.334444267E1,-6.928535104E-1,-2.012741715E-1,1.519482583E-1
2.335359413E1,-6.705575585E-1,-2.113531530E-1,1.650814712E-1
2.336274564E1,-6.734591126E-1,-1.577513069E-1,1.594311297E-1
2.337189715E1,-7.235485911E-1,-6.093201414E-2,1.383569092E-1
2.338104861E1,-8.171609044E-1,1.710372418E-2,1.149920002E-1
2.339020012E1,-9.035958052E-1,9.529217333E-2,8.368607610E-2
2.339935158E1,-9.093988538E-1,1.403421611E-1,5.375456065E-2
2.340849033E1,-8.412894011E-1,1.258345395E-1,3.787253052E-2
2.341765460E1,-7.682931423E-1,9.284878522E-2,3.283303976E-2
2.342680606E1,-7.295043468E-1,9.529217333E-2,2.397575416E-2
2.343595757E1,-6.939224601E-1,1.194206402E-1,2.779355086E-2
2.344510903E1,-6.459710002E-1,1.287360638E-1,4.886778072E-2
2.345426054E1,-6.357392669E-1,1.491994411E-1,7.711946964E-2
2.346341205E1,-6.952968836E-1,2.426590770E-1,1.027750522E-1
2.347256351E1,-7.908945084E-1,3.739912212E-1,1.215586066E-1
2.348171502E1,-8.426637650E-1,4.427115619E-1,1.481304616E-1
2.349086647E1,-8.296833038E-1,4.253024161E-1,1.688992679E-1
2.350001799E1,-7.970029712E-1,3.512371778E-1,1.740914732E-1
2.350916950E1,-7.780666947E-1,2.307475507E-1,1.656923145E-1
2.351832095E1,-7.731798887E-1,1.137702987E-1,1.450762302E-1
2.352747246E1,-7.817317843E-1,4.138490185E-2,1.122431830E-1
2.353662392E1,-7.857022882E-1,2.244863659E-2,8.108997345E-2
2.354577543E1,-7.695148587E-1,4.428642802E-3,6.642963737E-2
2.355492694E1,-7.438592315E-1,-3.894151375E-2,7.040014863E-2
2.356407840E1,-7.458444834E-1,-1.003316641E-1,8.933641016E-2
2.357322991E1,-7.809682488E-1,-1.165191159E-1,1.036913246E-1
2.358238137E1,-7.919634581E-1,-6.413896382E-2,1.134648770E-1
2.359153288E1,-7.802046537E-1,1.527118147E-3,1.262926757E-1
2.360068439E1,-7.982246280E-1,1.068982668E-2,1.504211426E-1
2.360983585E1,-8.458707333E-1,-5.619794875E-2,1.728697717E-1
2.361898736E1,-9.009997249E-1,-1.001789495E-1,1.901262105E-1
2.362813882E1,-9.472714067E-1,-9.300149232E-2,2.008160353E-1
2.363729033E1,-9.674293399E-1,-5.757235363E-2,1.847812980E-1
2.364644184E1,-9.387195110E-1,4.428642802E-3,1.403421611E-1
2.365559330E1,-8.557969928E-1,7.070557028E-2,9.086353332E-2
2.366474481E1,-7.740961909E-1,1.206423342E-1,5.528167635E-2
2.367389627E1,-7.206470370E-1,1.417165697E-1,2.214321308E-2
2.368304778E1,-6.810947061E-1,1.609582454E-1,-9.926267900E-3
2.369219929E1,-6.621584296E-1,1.747023165E-1,-2.076880634E-2
2.370135075E1,-6.733064055E-1,1.789782494E-1,-1.175880991E-2
2.371050226E1,-6.994200945E-1,1.928750277E-1,5.803049076E-3
2.371965371E1,-7.194253802E-1,2.200577259E-1,2.275406010E-2
2.372880522E1,-7.142331600E-1,2.570139766E-1,4.963133857E-2
2.373795674E1,-6.870504618E-1,2.968717813E-1,7.528692484E-2
2.374710819E1,-6.577298045E-1,3.295520842E-1,8.780929446E-2
2.375625970E1,-6.473453641E-1,3.426853120E-1,8.108997345E-2
2.376541116E1,-6.519267559E-1,3.011476994E-1,7.681404054E-2
2.377456267E1,-6.636855602E-1,2.341072112E-1,6.887302548E-2
2.378371418E1,-6.601731777E-1,2.044811249E-1,3.833066672E-2
2.379286564E1,-6.412369013E-1,1.725643575E-1,9.773556143E-3
2.380201715E1,-6.247440577E-1,1.181989461E-1,-7.635590620E-3
2.381116861E1,-6.174138784E-1,6.704048812E-2,-2.473931387E-2
2.382032012E1,-5.925218463E-1,5.604523420E-2,-3.497100621E-2
2.382947163E1,-5.396835804E-1,6.520794332E-2,-2.840439789E-2
2.383862309E1,-4.805840850E-1,6.780404598E-2,-1.099525020E-2
2.384777460E1,-4.308000207E-1,8.124268800E-2,2.137965523E-3
2.385692606E1,-3.891097009E-1,9.040539712E-2,8.551862091E-3
2.386607757E1,-3.513898849E-1,7.299624383E-2,1.740914769E-2
2.387522908E1,-3.061871827E-1,4.184303805E-2,2.626643144E-2
2.388438054E1,-2.461714447E-1,2.076880634E-2,2.733541466E-2
2.389353205E1,-1.655396074E-1,3.359659761E-2,3.588727489E-2
2.390268351E1,-8.475505561E-2,9.101624042E-2,5.711421743E-2
2.391183502E1,-2.672456764E-2,1.340809762E-1,7.345438004E-2
2.392098653E1,4.123218823E-3,1.371352077E-1,7.727217674E-2
2.393013799E1,3.329117596E-2,1.094943732E-1,7.757759839E-2
2.393928950E1,5.986303091E-2,1.076618284E-1,8.017370105E-2
2.394844095E1,5.894676223E-2,1.426328421E-1,8.139539510E-2
2.395759246E1,3.100049868E-2,1.618745178E-1,7.681404054E-2
2.396674397E1,9.162708884E-4,1.586675793E-1,6.994201243E-2
2.397589543E1,-1.817270555E-2,1.592784226E-1,5.757235363E-2
2.398504694E1,-2.489202656E-2,1.585148573E-1,4.474456236E-2
2.399419840E1,-1.725643501E-2,1.308740228E-1,3.802524135E-2
2.400334991E1,-1.527118147E-4,8.078455180E-2,3.588727489E-2
2.401250142E1,1.435491070E-2,4.840964451E-2,3.283303976E-2
2.402165288E1,2.046338283E-2,4.459185153E-2,2.504473738E-2
2.403080439E1,5.344913341E-3,2.840439789E-2,1.695101149E-2
2.403995585E1,-2.504473738E-2,-2.412846684E-2,1.130067464E-2
2.404910736E1,-6.291726977E-2,-5.558710173E-2,6.719320081E-3
2.405825887E1,-9.575030953E-2,-4.779879749E-2,9.009997360E-3
2.406741033E1,-1.168245375E-1,-2.779355086E-2,1.191152167E-2
2.407656184E1,-1.120904684E-1,-9.773556143E-3,1.496575773E-2
2.408571330E1,-8.551861346E-2,-5.497625098E-3,1.389677543E-2
2.409486481E1,-5.405998230E-2,-2.596100792E-2,1.038440317E-2
2.410401632E1,-2.840439789E-2,-6.337540597E-2,1.527118147E-3
2.411316778E1,-2.321219631E-2,-8.811471611E-2,-6.872031838E-3
2.412231929E1,-2.641914412E-2,-7.299624383E-2,-9.468132630E-3
2.413147074E1,-3.497100621E-2,-6.719320081E-3,-4.734066315E-3
2.414062226E1,-4.413371533E-2,4.520269856E-2,5.039489828E-3
2.414977377E1,-4.779879749E-2,4.398100078E-2,1.236965694E-2
2.415892522E1,-4.535540938E-2,3.603998944E-2,1.236965694E-2
2.416807674E1,-4.230117425E-2,5.054761097E-2,9.315420873E-3
2.417722819E1,-4.184303805E-2,6.077930331E-2,9.926267900E-3
2.418637970E1,-4.352286831E-2,4.825693369E-2,1.603474095E-2
2.419553121E1,-3.909422457E-2,3.497100621E-2,1.908897609E-2
2.420468267E1,-2.748812735E-2,3.909422457E-2,1.801999472E-2
2.421383418E1,-2.260134928E-2,5.115845799E-2,1.618745178E-2
2.422298569E1,-2.993151546E-2,4.153761268E-2,1.313321572E-2
2.423213715E1,-4.321744293E-2,7.788302377E-3,7.482878864E-3
2.424128866E1,-5.467082933E-2,-1.160609815E-2,7.635590737E-4
2.425044012E1,-4.917320609E-2,-1.221694518E-2,-1.679830020E-3
2.425959163E1,-4.001049697E-2,1.191152167E-2,-2.901524538E-3
2.426874309E1,-3.237490356E-2,5.711421743E-2,-6.566607859E-3
2.427789460E1,-1.588202827E-2,6.917845458E-2,-7.635590620E-3
2.428704611E1,3.054236295E-4,4.275930673E-2,-5.039489828E-3
2.429619757E1,-2.290677279E-3,-1.527118147E-4,-7.482878864E-3
2.430534908E1,-2.367033064E-2,-3.268032894E-2,-8.246437646E-3
2.431450054E1,-4.321744293E-2,-4.291202128E-2,-7.788302377E-3
2.432365205E1,-4.642439261E-2,-3.512371704E-2,-4.734066315E-3
2.433280356E1,-1.878355257E-2,-2.351761982E-2,-3.970507067E-3
2.434195502E1,1.313321572E-2,-8.399149403E-3,-4.886778072E-3
2.435110653E1,2.489202656E-2,-8.399149403E-3,-9.773556143E-3
2.436025804E1,1.359135192E-2,-4.535540938E-2,-1.710372418E-2
2.436940950E1,-6.566607859E-3,-8.322793990E-2,-2.275406010E-2
2.437856101E1,-1.985253580E-2,-9.834641218E-2,-2.275406010E-2
2.438771246E1,-2.183778957E-2,-7.971556485E-2,-2.153236605E-2
2.439686397E1,-1.068982668E-2,-3.390202299E-2,-1.664558798E-2
2.440601543E1,1.832541777E-3,5.344913341E-3,-9.315420873E-3
2.441516694E1,1.832541777E-3,5.955760833E-3,-3.817795310E-3
2.442431845E1,-1.343864016E-2,-9.162709117E-3,-3.359660041E-3
2.443346991E1,-2.870982140E-2,-2.962609194E-2,-3.359660041E-3
2.444262142E1,-3.222219273E-2,-4.764608666E-2,-3.359660041E-3
2.445177288E1,-2.596100792E-2,-5.787777901E-2,3.054236295E-4
2.446092439E1,-2.168507688E-2,-4.764608666E-2,6.413896102E-3
2.447007590E1,-9.773556143E-3,-1.435491070E-2,1.695101149E-2
2.447922736E1,3.665083554E-3,3.054236295E-3,2.244863659E-2
2.448837887E1,1.313321572E-2,-2.290677279E-2,1.893626526E-2
2.449753033E1,1.481304597E-2,-6.200099736E-2,7.330167107E-3
2.450668184E1,1.007897966E-2,-8.139539510E-2,-6.719320081E-3
2.451583335E1,1.374406274E-3,-6.704048812E-2,-1.847812906E-2
2.452498481E1,-1.053711493E-2,-4.230117425E-2,-2.153236605E-2
2.453413632E1,-2.367033064E-2,-2.779355086E-2,-1.679829881E-2
2.454328778E1,-2.764083818E-2,-1.374406274E-3,-1.191152167E-2
2.455243929E1,-2.305948362E-2,4.031591862E-2,-1.191152167E-2
2.456159080E1,-1.634016447E-2,4.749337584E-2,-1.496575773E-2
2.457074226E1,-1.038440317E-2,2.901524538E-3,-1.603474095E-2
2.457989377E1,-2.596100792E-3,-3.374931216E-2,-1.603474095E-2
2.458904528E1,2.290677279E-3,-2.596100792E-2,-1.481304597E-2
2.459819674E1,3.206948051E-3,-6.108472589E-3,-8.093725890E-3
2.460734824E1,-6.108472589E-4,8.399149403E-3,-1.374406274E-3
2.461649970E1,-6.872031838E-3,3.069507517E-2,-2.596100792E-3
2.462565121E1,-1.328592747E-2,3.726168349E-2,-2.137965523E-3
2.463480272E1,-1.542389300E-2,2.107422985E-2,-3.359660041E-3
2.464395418E1,-2.351761982E-2,1.313321572E-2,-5.803049076E-3
2.465310569E1,-3.405473381E-2,2.275406010E-2,-6.566607859E-3
2.466225715E1,-4.398100078E-2,4.443913698E-2,-4.123218823E-3
2.467140866E1,-4.810422286E-2,8.307522535E-2,-4.734066315E-3
2.468056017E1,-4.535540938E-2,1.119377613E-1,-5.344913341E-3
2.468971163E1,-4.092676565E-2,1.041494608E-1,-5.955760833E-3
2.469886314E1,-3.512371704E-2,7.589777559E-2,-4.734066315E-3
2.470801460E1,-2.870982140E-2,4.581354558E-2,-2.137965523E-3
2.471716611E1,-2.550287358E-2,3.237490356E-2,-2.137965523E-3
2.472631762E1,-2.061609551E-2,4.398100078E-2,9.162708884E-4
2.473546908E1,-1.466033421E-2,6.688777357E-2,5.803049076E-3
2.474462059E1,-1.175880991E-2,8.551861346E-2,8.857285604E-3
2.475377205E1,-1.252236869E-2,9.513945878E-2,7.635590620E-3
2.476292356E1,-2.061609551E-2,1.000262350E-1,2.748812549E-3
2.477207507E1,-3.344388679E-2,8.796200156E-2,-1.679830020E-3
2.478122653E1,-3.802524135E-2,6.444438547E-2,-6.566607859E-3
2.479037804E1,-3.420744836E-2,4.993676394E-2,-9.009997360E-3
2.479952950E1,-2.870982140E-2,4.871506989E-2,-1.130067464E-2
2.480868101E1,-2.687728032E-2,5.344913527E-2,-1.191152167E-2
2.481783252E1,-2.870982140E-2,4.993676394E-2,-1.252236869E-2
2.482698397E1,-3.054236248E-2,4.199574888E-2,-1.007897966E-2
2.483613548E1,-2.305948362E-2,3.909422457E-2,-1.007897966E-2
2.484528694E1,-6.872031838E-3,3.374931216E-2,-8.246437646E-3
2.485443845E1,7.482878864E-3,1.389677543E-2,-8.093725890E-3
2.486358996E1,7.024743594E-3,-1.206423342E-2,-7.330167107E-3
2.487274142E1,2.748812549E-3,-2.657185495E-2,-4.428642802E-3
2.488189293E1,-5.344913341E-3,-1.572931744E-2,-1.985253533E-3
2.489104439E1,-1.359135192E-2,1.679829881E-2,-3.359660041E-3
2.490019590E1,-1.359135192E-2,2.580829710E-2,-1.007897966E-2
2.490934741E1,-1.756185852E-2,-1.099525020E-2,-1.618745178E-2
2.491849887E1,-2.412846684E-2,-5.008947477E-2,-1.924168877E-2
2.492765038E1,-2.779355086E-2,-5.192201585E-2,-2.229592577E-2
2.493680184E1,-2.977880463E-2,-3.268032894E-2,-2.412846684E-2
2.494595335E1,-2.794626169E-2,-2.672456764E-2,-1.924168877E-2
2.495510486E1,-1.634016447E-2,-2.122694254E-2,-1.252236869E-2
2.496425632E1,-2.290677279E-3,-0.000000000E0,-8.093725890E-3
2.497340783E1,8.093725890E-3,9.009997360E-3,-6.872031838E-3
2.498255929E1,1.206423342E-2,-2.473931387E-2,-7.941014133E-3
2.499171080E1,1.679829881E-2,-6.627693027E-2,-1.160609815E-2
2.500086231E1,1.130067464E-2,-8.872556686E-2,-1.404948719E-2
2.501001377E1,-1.527118147E-3,-8.078455180E-2,-1.420219894E-2
2.501916528E1,-9.162709117E-3,-6.276455522E-2,-1.114796288E-2
2.502831679E1,-6.413896102E-3,-3.023693897E-2,-6.872031838E-3
2.503746825E1,0.000000000E0,6.566607859E-3,-6.872031838E-3
2.504661976E1,6.872031838E-3,5.955760833E-3,-9.926267900E-3
2.505577121E1,1.389677543E-2,-2.962609194E-2,-1.221694518E-2
2.506492272E1,1.236965694E-2,-6.215370819E-2,-1.404948719E-2
2.507407424E1,6.872031838E-3,-6.704048812E-2,-1.282779220E-2
2.508322569E1,-0.000000000E0,-5.314370990E-2,-9.926267900E-3
2.509237720E1,4.581354442E-4,-3.924693540E-2,-5.650337320E-3
2.510152866E1,5.803049076E-3,-2.779355086E-2,-2.443389036E-3
2.511068017E1,1.252236869E-2,-1.985253580E-2,-1.832541777E-3
2.511983168E1,1.313321572E-2,-1.878355257E-2,-6.108472589E-3
2.512898314E1,1.206423342E-2,-3.191677108E-2,-9.162709117E-3
2.513813465E1,5.344913341E-3,-4.352286831E-2,-1.160609815E-2
2.514728611E1,-5.039489828E-3,-4.596625641E-2,-1.175880991E-2
2.515643762E1,-6.261184346E-3,-3.802524135E-2,-9.926267900E-3
2.516558913E1,3.054236295E-4,-2.290677279E-2,-6.872031838E-3
2.517474059E1,5.039489828E-3,-1.389677543E-2,-2.596100792E-3
2.518389210E1,1.007897966E-2,-1.450762246E-2,1.832541777E-3
2.519304356E1,9.620844387E-3,-3.130592033E-2,1.832541777E-3
2.520219507E1,4.886778072E-3,-5.482354015E-2,-3.054236295E-3
2.521134658E1,2.596100792E-3,-6.749862432E-2,-6.108472589E-3
2.522049804E1,-6.872031838E-3,-4.764608666E-2,-8.093725890E-3
2.522964955E1,-2.428117767E-2,-1.878355257E-2,-1.130067464E-2
2.523880101E1,-3.558185324E-2,-7.330167107E-3,-1.130067464E-2
2.524795252E1,-3.497100621E-2,-7.941014133E-3,-8.857285604E-3
2.525710403E1,-2.687728032E-2,-1.221694518E-2,-7.024743594E-3
2.526625549E1,-2.015795931E-2,-4.886778072E-3,-3.970507067E-3
2.527540700E1,-1.664558798E-2,6.566607859E-3,3.054236295E-4
2.528455845E1,-1.603474095E-2,8.399149403E-3,-3.054236295E-4
2.529370996E1,-1.649287529E-2,-1.221694518E-3,3.054236295E-4
2.530286147E1,-1.343864016E-2,-4.275931045E-3,1.068982761E-3
2.531201293E1,-9.315420873E-3,2.351761982E-2,3.512371797E-3
2.532116444E1,-1.267508045E-2,5.115845799E-2,5.192201585E-3
2.533031590E1,-1.817270555E-2,4.092676565E-2,4.581354558E-3
2.533946741E1,-1.481304597E-2,1.328592747E-2,5.803049076E-3
2.534861892E1,-6.719320081E-3,-2.443389036E-3,7.788302377E-3
2.535777038E1,-2.596100792E-3,1.389677543E-2,9.009997360E-3
2.536692189E1,-4.581354558E-3,3.619270027E-2,1.145338640E-2
2.537607340E1,-1.007897966E-2,2.947338112E-2,9.009997360E-3
2.538522486E1,-1.786728203E-2,3.665083554E-3,3.970507067E-3
2.539437637E1,-2.076880634E-2,-1.511846948E-2,-9.162708884E-4
2.540352783E1,-2.382304333E-2,-1.328592747E-2,-3.054236295E-4
2.541267934E1,-3.191677108E-2,-8.551862091E-3,3.054236295E-4
2.542183085E1,-3.252761811E-2,-6.108472589E-3,1.527118147E-3
2.543098231E1,-2.397575416E-2,2.901524538E-3,2.137965523E-3
2.544013382E1,-1.175880991E-2,1.618745178E-2,2.748812549E-3
2.544928528E1,-4.428642802E-3,1.679829881E-2,2.901524538E-3
2.545843679E1,-6.108472589E-3,2.443389036E-3,2.901524538E-3
2.546758830E1,-1.328592747E-2,-2.046338283E-2,2.290677279E-3
2.547673976E1,-1.695101149E-2,-2.473931387E-2,3.512371797E-3
2.548589127E1,-1.160609815E-2,-6.108472589E-4,6.566607859E-3
2.549504272E1,-7.024743594E-3,2.412846684E-2,1.206423342E-2
2.550419424E1,-7.024743594E-3,3.008422814E-2,1.084253844E-2
2.551334575E1,-5.039489828E-3,2.168507688E-2,8.399149403E-3
2.552249720E1,-4.886778072E-3,6.566607859E-3,2.901524538E-3
2.553164871E1,-1.099525020E-2,-4.275931045E-3,-1.985253533E-3
2.554080017E1,-1.817270555E-2,-1.572931744E-2,-4.581354558E-3
2.554995168E1,-1.313321572E-2,-2.962609194E-2,-4.428642802E-3
2.555910319E1,-7.024743594E-3,-2.840439789E-2,-7.635590737E-4
2.556825465E1,-1.068982761E-3,-1.389677543E-2,1.068982761E-3
2.557740616E1,3.817795310E-3,-1.221694518E-3,3.512371797E-3
2.558655762E1,2.443389036E-3,-3.054236295E-3,4.734066315E-3
2.559570913E1,-9.162709117E-3,-1.206423342E-2,4.734066315E-3
2.560486064E1,-1.893626526E-2,-1.038440317E-2,1.527118147E-3
2.561401210E1,-2.382304333E-2,-1.206423342E-2,9.162708884E-4