"Time (s)","Gyroscope x (rad/s)","Gyroscope y (rad/s)","Gyroscope z (rad/s)"
1.128057580E1,7.024743594E-3,-1.511846948E-2,3.512371797E-3
1.128972731E1,1.007897966E-2,-1.695101149E-2,3.665083554E-3
1.129887882E1,1.557660475E-2,-1.084253844E-2,2.443389036E-3
1.130803033E1,1.908897609E-2,7.330167107E-3,1.832541777E-3
1.131718184E1,1.954711229E-2,1.740914769E-2,3.665083554E-3
1.132633335E1,1.420219894E-2,4.886778072E-3,3.665083554E-3
1.133548486E1,6.413896102E-3,-1.450762246E-2,1.679830020E-3
1.134463637E1,-3.054236295E-4,-2.412846684E-2,-1.527118147E-4
1.135378788E1,-7.635590620E-3,-2.718270384E-2,-1.374406274E-3
1.136293939E1,-1.389677543E-2,-1.878355257E-2,-2.137965523E-3
1.137209090E1,-1.771457121E-2,-7.330167107E-3,-3.359660041E-3
1.138124241E1,-9.009997360E-3,-7.941014133E-3,-5.650337320E-3
1.139039392E1,6.413896102E-3,-1.099525020E-2,-8.093725890E-3
1.139954543E1,1.618745178E-2,-1.389677543E-2,-7.941014133E-3
1.140869694E1,1.679829881E-2,-1.328592747E-2,-7.330167107E-3
1.141784840E1,1.068982668E-2,-8.551862091E-3,-4.275931045E-3
1.142699996E1,3.817795310E-3,-9.620844387E-3,-1.527118147E-4
1.143615142E1,5.039489828E-3,-7.330167107E-3,2.901524538E-3
1.144530298E1,1.359135192E-2,1.832541777E-3,6.108472589E-3
1.145445449E1,1.908897609E-2,9.009997360E-3,5.497625098E-3
1.146360595E1,2.275406010E-2,2.443389036E-3,4.886778072E-3
1.147275746E1,2.046338283E-2,-7.177455351E-3,4.886778072E-3
1.148190897E1,1.801999472E-2,-4.275931045E-3,3.054236295E-3
1.149106054E1,1.359135192E-2,5.955760833E-3,2.443389036E-3
1.150021205E1,8.551862091E-3,1.206423342E-2,1.679830020E-3
1.150936350E1,6.719320081E-3,1.450762246E-2,2.901524538E-3
1.151851501E1,5.344913341E-3,2.168507688E-2,1.679830020E-3
1.152766652E1,2.290677279E-3,2.825168520E-2,1.068982761E-3
1.153681804E1,1.068982761E-3,1.863084175E-2,1.068982761E-3
1.154596955E1,5.497625098E-3,6.566607859E-3,1.068982761E-3
1.155512106E1,1.420219894E-2,6.566607859E-3,3.665083554E-3
1.156427257E1,1.175880991E-2,4.275931045E-3,1.832541777E-3
1.157342408E1,4.428642802E-3,-3.665083554E-3,4.581354442E-4
1.158257559E1,1.985253533E-3,-6.108472589E-3,-7.635590737E-4
1.159172710E1,4.428642802E-3,0.000000000E0,1.679830020E-3
1.160087861E1,3.054236295E-3,1.267508045E-2,1.068982761E-3
1.161003012E1,-4.428642802E-3,2.947338112E-2,4.581354442E-4
1.161918163E1,-8.857285604E-3,2.947338112E-2,4.581354442E-4
1.162833314E1,-4.886778072E-3,1.832541777E-3,-2.596100792E-3
1.163748465E1,-3.512371797E-3,-1.572931744E-2,-5.650337320E-3
1.164663616E1,-6.566607859E-3,-9.620844387E-3,-4.428642802E-3
1.165578767E1,-9.773556143E-3,5.955760833E-3,-3.206948051E-3
1.166493918E1,-5.039489828E-3,1.924168877E-2,-1.985253533E-3
1.167409069E1,9.009997360E-3,2.764083818E-2,-1.374406274E-3
1.168324220E1,2.458660305E-2,2.229592577E-2,-0.000000000E0
1.169239371E1,2.962609194E-2,4.886778072E-3,6.108472589E-4
1.170154522E1,2.412846684E-2,-6.566607859E-3,4.886778072E-3
1.171069673E1,1.359135192E-2,1.221694518E-3,9.162709117E-3
1.171984824E1,-3.206948051E-3,1.084253844E-2,1.145338640E-2
1.172899975E1,-1.618745178E-2,1.801999472E-2,8.246437646E-3
1.173815126E1,-1.725643501E-2,1.435491070E-2,3.970507067E-3
1.174730278E1,-8.093725890E-3,1.145338640E-2,2.901524538E-3
1.175645428E1,-1.374406274E-3,1.985253580E-2,-7.635590737E-4
1.176560580E1,-3.970507067E-3,2.886253223E-2,-1.374406274E-3
1.177475731E1,-6.261184346E-3,2.168507688E-2,-1.374406274E-3
1.178390882E1,3.054236295E-3,1.267508045E-2,4.581354442E-4
1.179306033E1,1.359135192E-2,9.620844387E-3,1.832541777E-3
1.180221184E1,1.160609815E-2,1.756185852E-2,5.344913341E-3
1.181136335E1,5.344913341E-3,2.657185495E-2,7.788302377E-3
1.182051486E1,1.221694518E-3,1.450762246E-2,5.344913341E-3
1.182966637E1,-4.275931045E-3,-5.344913341E-3,4.123218823E-3
1.183881788E1,-1.099525020E-2,-1.695101149E-2,4.734066315E-3
1.184796939E1,-1.710372418E-2,-1.267508045E-2,4.581354558E-3
1.185712090E1,-2.580829710E-2,-0.000000000E0,9.162708884E-4
1.186627241E1,-2.641914412E-2,-6.108472589E-4,-2.748812549E-3
1.187542392E1,-1.572931744E-2,-1.695101149E-2,-3.359660041E-3
1.188457543E1,-5.192201585E-3,-2.535016090E-2,-8.093725890E-3
1.189372694E1,3.970507067E-3,-2.412846684E-2,-9.315420873E-3
1.190287845E1,5.803049076E-3,-2.535016090E-2,-8.551862091E-3
1.191202996E1,7.788302377E-3,-3.863608837E-2,-5.497625098E-3
1.192118147E1,4.123218823E-3,-4.825693369E-2,-4.886778072E-3
1.193033298E1,2.901524538E-3,-4.337015375E-2,-5.650337320E-3
1.193948449E1,5.955760833E-3,-3.436015919E-2,-4.275931045E-3
1.194863600E1,9.620844387E-3,-3.374931216E-2,-4.275931045E-3
1.195778751E1,9.620844387E-3,-2.840439789E-2,-4.275931045E-3
1.196693902E1,1.068982668E-2,-1.939439960E-2,-6.108472589E-3
1.197609054E1,1.374406368E-2,-9.620844387E-3,-7.330167107E-3
1.198524205E1,1.557660475E-2,-7.941014133E-3,-7.330167107E-3
1.199439356E1,6.872031838E-3,-5.497625098E-3,-4.428642802E-3
1.200354507E1,-7.941014133E-3,5.955760833E-3,1.679830020E-3
1.201269658E1,-1.542389300E-2,9.009997360E-3,7.635590620E-3
1.202184809E1,-4.581354442E-4,-2.443389036E-3,5.344913341E-3
1.203099960E1,2.611372061E-2,-2.107422985E-2,-2.443389036E-3
1.204015111E1,4.535540938E-2,-3.313846514E-2,-6.566607859E-3
1.204930262E1,4.657710344E-2,-2.764083818E-2,-4.734066315E-3
1.205845413E1,4.153761268E-2,-1.801999472E-2,-2.290677279E-3
1.206760564E1,4.092676565E-2,-1.679829881E-2,1.527118147E-4
1.207675715E1,3.894151375E-2,-1.145338640E-2,1.527118147E-4
1.208590866E1,2.977880463E-2,-7.177455351E-3,1.221694518E-3
1.209506017E1,1.679829881E-2,-6.719320081E-3,6.108472589E-4
1.210421168E1,1.252236869E-2,-1.450762246E-2,-6.108472589E-4
1.211336319E1,1.374406368E-2,-2.107422985E-2,-2.443389036E-3
1.212251470E1,6.413896102E-3,-2.290677279E-2,-6.261184346E-3
1.213166621E1,-5.192201585E-3,-2.657185495E-2,-7.482878864E-3
1.214081772E1,-1.130067464E-2,-2.962609194E-2,-9.315420873E-3
1.214996923E1,-7.635590620E-3,-2.657185495E-2,-1.114796288E-2
1.215912074E1,-1.007897966E-2,-2.596100792E-2,-1.298050396E-2
1.216827225E1,-1.511846948E-2,-1.817270555E-2,-1.175880991E-2
1.217742376E1,-9.620844387E-3,-9.773556143E-3,-9.926267900E-3
1.218657528E1,3.359660041E-3,-1.863084175E-2,-9.315420873E-3
1.219572679E1,1.832541823E-2,-3.130592033E-2,-7.941014133E-3
1.220487830E1,2.565558441E-2,-3.497100621E-2,-7.330167107E-3
1.221402981E1,2.260134928E-2,-3.130592033E-2,-3.054236295E-3
1.222318132E1,2.000524849E-2,-3.069507517E-2,-0.000000000E0
1.223233283E1,1.756185852E-2,-1.985253580E-2,6.108472589E-4
1.224148434E1,2.153236605E-2,6.108472589E-3,-6.108472589E-4
1.225063585E1,2.458660305E-2,1.389677543E-2,-2.443389036E-3
1.225978736E1,2.519745007E-2,1.496575773E-2,-4.886778072E-3
1.226893887E1,2.458660305E-2,1.740914769E-2,-6.108472589E-3
1.227809038E1,1.847812906E-2,1.511846948E-2,-3.054236295E-3
1.228724189E1,1.053711493E-2,1.832541777E-3,-0.000000000E0
1.229639340E1,1.130067464E-2,-1.084253844E-2,3.054236295E-3
1.230554491E1,1.557660475E-2,-1.695101149E-2,3.665083554E-3
1.231469642E1,1.679829881E-2,-1.572931744E-2,1.221694518E-3
1.232384793E1,1.435491070E-2,-1.756185852E-2,-3.665083554E-3
1.233299944E1,1.328592747E-2,-2.718270384E-2,-7.941014133E-3
1.234215095E1,9.773556143E-3,-4.169032723E-2,-9.773556143E-3
1.235130246E1,3.512371797E-3,-4.107947648E-2,-1.175880991E-2
1.236045397E1,-3.970507067E-3,-3.451287001E-2,-1.114796288E-2
1.236960548E1,-7.024743594E-3,-3.084778599E-2,-9.315420873E-3
1.237875699E1,-9.162708884E-4,-2.535016090E-2,-6.872031838E-3
1.238790850E1,1.191152167E-2,-1.572931744E-2,-3.054236295E-3
1.239706001E1,2.061609551E-2,-1.863084175E-2,-3.665083554E-3
1.240621153E1,1.572931744E-2,-2.779355086E-2,-3.054236295E-3
1.241536304E1,-2.748812549E-3,-1.924168877E-2,-3.206948051E-3
1.242451455E1,-1.603474095E-2,4.734066315E-3,9.162708884E-4
1.243366606E1,-1.236965694E-2,1.985253580E-2,2.137965523E-3
1.244281757E1,-6.108472589E-4,1.618745178E-2,-7.635590737E-4
1.245196908E1,7.941014133E-3,1.023169141E-2,-1.985253533E-3
1.246112059E1,5.497625098E-3,9.009997360E-3,-2.596100792E-3
1.247027210E1,3.054236295E-3,6.566607859E-3,-7.635590737E-4
1.247942361E1,9.926267900E-3,-3.665083554E-3,2.901524538E-3
1.248857512E1,1.801999472E-2,-1.740914769E-2,4.275931045E-3
1.249772663E1,1.618745178E-2,-1.863084175E-2,1.832541777E-3
1.250687814E1,8.704573847E-3,-7.788302377E-3,-0.000000000E0
1.251602965E1,1.527118147E-4,-1.832541777E-3,1.068982761E-3
1.252518116E1,-1.099525020E-2,6.108472589E-4,2.290677279E-3
1.253433267E1,-9.162709117E-3,1.221694518E-3,2.290677279E-3
1.254348418E1,-2.443389036E-3,3.512371797E-3,-1.985253533E-3
1.255263569E1,-4.734066315E-3,-7.177455351E-3,-3.817795310E-3
1.256178720E1,-1.267508045E-2,-2.535016090E-2,-2.596100792E-3
1.257093871E1,-1.939439960E-2,-2.229592577E-2,-2.137965523E-3
1.258009022E1,-2.199050039E-2,-3.665083554E-3,-2.137965523E-3
1.258924173E1,-2.275406010E-2,5.955760833E-3,-3.054236295E-4
1.259839324E1,-2.046338283E-2,1.374406368E-2,2.748812549E-3
1.260754475E1,-1.664558798E-2,1.389677543E-2,5.803049076E-3
1.261669626E1,-1.160609815E-2,-6.108472589E-4,7.177455351E-3
1.262584778E1,-9.162709117E-3,-1.328592747E-2,6.566607859E-3
1.263499929E1,-1.160609815E-2,-1.267508045E-2,7.177455351E-3
1.264415080E1,-1.710372418E-2,-9.162709117E-3,5.803049076E-3
1.265330231E1,-1.908897609E-2,-3.054236295E-3,5.803049076E-3
1.266245382E1,-2.153236605E-2,7.177455351E-3,3.359660041E-3
1.267160533E1,-2.535016090E-2,1.985253580E-2,3.970507067E-3
1.268075684E1,-2.977880463E-2,2.336490713E-2,3.970507067E-3
1.268990835E1,-3.161134571E-2,2.214321308E-2,5.192201585E-3
1.269905986E1,-2.977880463E-2,2.275406010E-2,8.857285604E-3
1.270821137E1,-2.290677279E-2,1.863084175E-2,1.435491070E-2
1.271736288E1,-9.315420873E-3,8.551862091E-3,1.924168877E-2
1.272651439E1,4.581354442E-4,8.399149403E-3,2.244863659E-2
1.273566590E1,1.679830020E-3,1.450762246E-2,2.367033064E-2
1.274481741E1,-7.635590737E-4,1.695101149E-2,2.489202656E-2
1.275396892E1,-2.596100792E-3,4.886778072E-3,2.367033064E-2
1.276312043E1,-6.719320081E-3,-9.009997360E-3,2.122694254E-2
1.277227194E1,-1.221694518E-2,-6.566607859E-3,1.740914769E-2
1.278142345E1,-1.969982497E-2,4.275931045E-3,1.557660475E-2
1.279057496E1,-2.779355086E-2,1.496575773E-2,1.435491070E-2
1.279972647E1,-2.794626169E-2,2.168507688E-2,1.374406368E-2
1.280887798E1,-2.305948362E-2,3.191677108E-2,1.068982668E-2
1.281802955E1,-2.107422985E-2,2.351761982E-2,1.068982668E-2
1.282718106E1,-2.336490713E-2,-1.832541777E-3,1.068982668E-2
1.283633257E1,-2.702999115E-2,-1.389677543E-2,1.435491070E-2
1.284548408E1,-3.145863488E-2,-5.497625098E-3,1.801999472E-2
1.285463559E1,-3.329117596E-2,4.123218823E-3,1.908897609E-2
1.286378710E1,-3.145863488E-2,7.177455351E-3,2.107422985E-2
1.287293861E1,-2.672456764E-2,1.801999472E-2,2.168507688E-2
1.288209012E1,-2.122694254E-2,2.351761982E-2,2.168507688E-2
1.289124163E1,-1.679829881E-2,1.695101149E-2,2.168507688E-2
1.290039314E1,-1.740914769E-2,1.145338640E-2,2.351761982E-2
1.290954465E1,-2.794626169E-2,3.023693897E-2,2.336490713E-2
1.291869616E1,-4.657710344E-2,3.665083647E-2,2.336490713E-2
1.292784767E1,-6.872031838E-2,3.420744836E-2,2.076880634E-2
1.293699918E1,-8.231166750E-2,4.810422286E-2,1.939439960E-2
1.294615069E1,-8.750387281E-2,5.833591148E-2,1.756185852E-2
1.295530220E1,-8.246438205E-2,5.589252338E-2,1.695101149E-2
1.296445371E1,-7.314895838E-2,5.115845799E-2,1.756185852E-2
1.297360522E1,-6.306997687E-2,3.558185324E-2,1.771457121E-2
1.298275673E1,-5.604523420E-2,1.832541777E-3,2.076880634E-2
1.299190824E1,-4.917320609E-2,-2.290677279E-2,2.519745007E-2
1.300105975E1,-3.863608837E-2,-2.657185495E-2,2.702999115E-2
1.301021126E1,-3.313846514E-2,-2.947338112E-2,2.962609194E-2
1.301936278E1,-2.794626169E-2,-4.459185153E-2,3.268032894E-2
1.302851428E1,-1.679829881E-2,-5.360184610E-2,3.268032894E-2
1.303766580E1,-2.137965523E-3,-4.810422286E-2,3.161134571E-2
1.304681731E1,-1.527118147E-3,-5.176930502E-2,3.038965166E-2
1.305596882E1,-1.740914769E-2,-6.139015034E-2,2.962609194E-2
1.306512033E1,-3.283303976E-2,-5.115845799E-2,3.084778599E-2
1.307427184E1,-3.619270027E-2,-3.008422814E-2,3.436015919E-2
1.308342335E1,-4.306473210E-2,-1.206423342E-2,3.374931216E-2
1.309257486E1,-5.115845799E-2,-7.788302377E-3,3.008422814E-2
1.310172637E1,-5.238015205E-2,-1.084253844E-2,2.886253223E-2
1.311087788E1,-4.611896724E-2,-2.290677279E-2,3.069507517E-2
1.312002939E1,-3.848337755E-2,-4.214845970E-2,3.619270027E-2
1.312918090E1,-3.481829539E-2,-5.299099907E-2,4.550812021E-2
1.313833241E1,-2.672456764E-2,-6.368082762E-2,4.978405312E-2
1.314748392E1,-2.092151903E-2,-7.941014320E-2,4.917320609E-2
1.315663543E1,-1.786728203E-2,-9.025268257E-2,4.627167806E-2
1.316578694E1,-2.397575416E-2,-8.475505561E-2,4.489727318E-2
1.317493845E1,-3.909422457E-2,-5.650337040E-2,4.718795046E-2
1.318408996E1,-5.665608495E-2,-2.519745007E-2,4.764608666E-2
1.319324147E1,-7.162184268E-2,-1.221694518E-3,4.703523964E-2
1.320239298E1,-7.727217674E-2,9.009997360E-3,4.688252881E-2
1.321154449E1,-7.345438004E-2,-1.679830020E-3,4.810422286E-2
1.322069600E1,-5.955760926E-2,-3.848337755E-2,4.825693369E-2
1.322984751E1,-4.382828996E-2,-7.345438004E-2,4.963133857E-2
1.323899902E1,-4.077405483E-2,-7.941014320E-2,5.207473040E-2
1.324815054E1,-4.825693369E-2,-6.016845629E-2,5.696150661E-2
1.325730205E1,-6.200099736E-2,-4.871506989E-2,6.291726977E-2
1.326645356E1,-7.253811508E-2,-4.153761268E-2,6.597150117E-2
1.327560507E1,-6.581879407E-2,-4.031591862E-2,6.597150117E-2
1.328475658E1,-5.024218559E-2,-4.443913698E-2,6.001574174E-2
1.329390809E1,-3.344388679E-2,-6.184828654E-2,5.161659420E-2
1.330305960E1,-2.092151903E-2,-8.368607610E-2,4.550812021E-2
1.331221111E1,-1.114796288E-2,-8.429691941E-2,4.566083103E-2
1.332136262E1,-1.817270555E-2,-6.184828654E-2,5.650337040E-2
1.333051413E1,-4.245388508E-2,-3.466558084E-2,7.406523079E-2
1.333966564E1,-8.032641560E-2,-1.786728203E-2,8.903098851E-2
1.334881715E1,-1.128540337E-1,-2.397575416E-2,9.132166207E-2
1.335796866E1,-1.194206402E-1,-5.176930502E-2,8.032641560E-2
1.336712017E1,-1.023169160E-1,-8.429691941E-2,5.711421743E-2
1.337627168E1,-6.566607952E-2,-1.090362370E-1,3.909422457E-2
1.338542324E1,-2.107422985E-2,-1.252236813E-1,3.695625812E-2
1.339457470E1,2.748812549E-3,-1.252236813E-1,4.520269856E-2
1.340372621E1,-3.054236295E-4,-1.172826737E-1,5.543438718E-2
1.341287778E1,-3.512371797E-3,-1.203369126E-1,6.154286116E-2
1.342202928E1,1.496575773E-2,-1.105633527E-1,6.169557199E-2
1.343118080E1,4.291202128E-2,-7.375980914E-2,6.551336497E-2
1.344033220E1,6.306997687E-2,-5.207473040E-2,7.421794534E-2
1.344948376E1,6.917845458E-2,-4.718795046E-2,8.399149776E-2
1.345863533E1,7.391251624E-2,-3.817795217E-2,8.826743066E-2
1.346778684E1,8.124268800E-2,-1.771457121E-2,8.047912270E-2
1.347693835E1,8.108997345E-2,1.359135192E-2,6.642963737E-2
1.348608986E1,8.704573661E-2,3.161134571E-2,5.726693198E-2
1.349524137E1,1.117850468E-1,2.641914412E-2,6.474980712E-2
1.350439288E1,1.363716573E-1,2.275406010E-2,8.444963396E-2
1.351354439E1,1.437018216E-1,2.351761982E-2,9.849911928E-2
1.352269590E1,1.446180940E-1,-8.551862091E-3,9.193251282E-2
1.353184741E1,1.550024897E-1,-5.909947306E-2,7.605048269E-2
1.354099892E1,1.727170646E-1,-9.773556143E-2,6.215370819E-2
1.355015043E1,1.710372269E-1,-1.188097894E-1,5.971032009E-2
1.355930194E1,1.475196183E-1,-1.157555580E-1,6.566607952E-2
1.356845345E1,1.270562261E-1,-9.300149232E-2,6.062658876E-2
1.357760496E1,1.157555580E-1,-7.498150319E-2,4.902049154E-2
1.358675647E1,9.559759498E-2,-7.620319724E-2,4.016320780E-2
1.359590798E1,4.764608666E-2,-3.833066672E-2,4.902049154E-2
1.360505949E1,-3.191677108E-2,3.817795217E-2,6.490252167E-2
1.361421100E1,-1.238492802E-1,9.162709117E-2,8.811471611E-2
1.362336251E1,-2.012741715E-1,1.368297935E-1,1.058292910E-1
1.363251402E1,-2.287622988E-1,1.844758689E-1,1.177408099E-1
1.364166554E1,-2.000524700E-1,2.110477239E-1,1.178935245E-1
1.365081705E1,-1.426328421E-1,2.646495700E-1,1.030804738E-1
1.365996856E1,-9.009996802E-2,3.423798978E-1,8.200624585E-2
1.366912007E1,-7.360709459E-2,4.201101959E-1,5.894676223E-2
1.367827158E1,-9.376505762E-2,4.827220440E-1,3.298575059E-2
1.368742309E1,-1.298050433E-1,5.349494815E-1,2.229592577E-2
1.369657460E1,-1.517955512E-1,5.777087808E-1,2.886253223E-2
1.370572611E1,-1.510319859E-1,6.163448691E-1,3.741439432E-2
1.371487762E1,-1.217113137E-1,6.465818286E-1,5.955760926E-2
1.372402913E1,-8.200624585E-2,6.581879258E-1,8.796200156E-2
1.373318064E1,-6.444438547E-2,6.998782754E-1,1.062874198E-1
1.374233215E1,-9.345962852E-2,7.577560544E-1,1.244601309E-1
1.375148366E1,-1.673721522E-1,8.064711094E-1,1.470614821E-1
1.376063517E1,-2.687727809E-1,8.371661901E-1,1.566823274E-1
1.376978673E1,-3.506263196E-1,8.394568563E-1,1.554606259E-1
1.377893824E1,-3.643703759E-1,7.899782062E-1,1.536280811E-1
1.378808975E1,-3.061871827E-1,6.997255087E-1,1.418692768E-1
1.379724126E1,-2.269297540E-1,5.935907960E-1,1.272089481E-1
1.380639278E1,-1.539335102E-1,4.787515402E-1,1.333174109E-1
1.381554429E1,-1.156028435E-1,3.962871730E-1,1.482831687E-1
1.382469580E1,-1.281252056E-1,3.529170156E-1,1.488940120E-1
1.383384731E1,-1.753131598E-1,3.255815804E-1,1.308740228E-1
1.384299882E1,-2.231119573E-1,3.066453338E-1,1.049130186E-1
1.385215033E1,-2.568612695E-1,3.048127890E-1,8.750387281E-2
1.386130184E1,-2.681619525E-1,3.217637837E-1,9.055810422E-2
1.387045335E1,-2.573194206E-1,3.362714052E-1,1.125486046E-1
1.387960486E1,-2.452551723E-1,3.520007432E-1,1.377460510E-1
1.388875637E1,-2.435753495E-1,3.738385141E-1,1.542389393E-1
1.389790788E1,-2.603736520E-1,3.816268146E-1,1.565296054E-1
1.390705939E1,-2.866400778E-1,3.579564989E-1,1.441599578E-1
1.391621090E1,-3.177932799E-1,3.385621011E-1,1.194206402E-1
1.392536241E1,-3.422271907E-1,3.226800561E-1,8.872556686E-2
1.393451392E1,-3.481829464E-1,3.232909143E-1,5.879404768E-2
1.394366543E1,-3.333698809E-1,3.316900730E-1,4.062134400E-2
1.395281694E1,-3.052709103E-1,3.515425920E-1,3.100049868E-2
1.396196845E1,-2.851129472E-1,3.828485310E-1,3.298575059E-2
1.397111996E1,-2.901524603E-1,3.817795515E-1,4.703523964E-2
1.398027147E1,-3.316900730E-1,3.388675153E-1,4.917320609E-2
1.398942298E1,-3.842229247E-1,2.947337925E-1,3.161134571E-2
1.399857449E1,-4.140017331E-1,2.680092454E-1,-1.985253533E-3
1.400772600E1,-4.046863019E-1,2.793098986E-1,-5.085303262E-2
1.401687751E1,-3.765873313E-1,3.292466700E-1,-1.062874198E-1
1.402602903E1,-3.544441164E-1,3.652866483E-1,-1.531699449E-1
1.403518054E1,-3.501681983E-1,3.717005551E-1,-1.721062213E-1
1.404433205E1,-3.810159862E-1,3.915531039E-1,-1.728697717E-1
1.405348356E1,-4.416425824E-1,4.584408700E-1,-1.550024897E-1
1.406263507E1,-4.885250926E-1,5.386145711E-1,-1.322484314E-1
1.407178663E1,-5.005893111E-1,5.639647245E-1,-1.079672500E-1
1.408093814E1,-4.848600030E-1,5.183038712E-1,-9.743013978E-2
1.409008965E1,-4.588989913E-1,4.465293586E-1,-1.160609797E-1
1.409924116E1,-4.314108789E-1,4.205683470E-1,-1.580567211E-1
1.410837991E1,-3.987305462E-1,4.558447599E-1,-2.206685692E-1
1.411771293E1,-3.394783735E-1,4.779879749E-1,-2.806843221E-1
1.412706059E1,-1.609582454E-1,3.823903799E-1,-3.112266660E-1
1.413639507E1,-3.466558084E-2,3.187095523E-1,-3.133646548E-1
1.414571663E1,4.627167806E-2,2.959555089E-1,-3.164188862E-1
1.415506408E1,6.505523622E-2,2.693836391E-1,-3.301629424E-1
1.416439866E1,4.657710344E-2,2.125748396E-1,-3.541387022E-1
1.417372017E1,3.100049868E-2,1.577513069E-1,-3.516952991E-1
1.418306762E1,6.398624927E-2,1.579040140E-1,-3.063398898E-1
1.419240210E1,1.866138428E-1,2.137965411E-1,-2.615953386E-1
1.420172366E1,4.173613787E-1,2.414373755E-1,-2.179197669E-1
1.421107116E1,7.771504521E-1,1.644706279E-1,-1.736333370E-1
1.422040569E1,1.265522838E0,-1.649287529E-2,-1.279724985E-1
1.422972720E1,1.817881465E0,-2.438807636E-1,-8.918370306E-2
1.423907470E1,2.341835737E0,-4.014793634E-1,-7.375980914E-2
1.424840923E1,2.780729532E0,-3.953709006E-1,-8.658760041E-2
1.425773074E1,3.129523277E0,-2.371614426E-1,-1.201841980E-1
1.426707824E1,3.406542540E0,-2.473931387E-2,-1.678302884E-1
1.427641278E1,3.648437977E0,4.581354558E-2,-2.522799075E-1
1.428573428E1,3.851086617E0,-1.597365588E-1,-3.497100472E-1
1.429508178E1,3.960886240E0,-5.725166202E-1,-4.022429287E-1
1.430441626E1,3.937216043E0,-9.750649333E-1,-3.771981895E-1
1.431373778E1,3.791223526E0,-1.262315869E0,-2.545706034E-1
1.432308528E1,3.585367918E0,-1.404185176E0,-8.872556686E-2
1.433241975E1,3.395699978E0,-1.442210436E0,1.195733473E-1
1.434174126E1,3.271545172E0,-1.378834963E0,3.316900730E-1
1.435090772E1,3.197327375E0,-1.231926203E0,5.111264586E-1
1.436005923E1,3.174420595E0,-1.126096964E0,6.264238358E-1
1.436919798E1,3.231229305E0,-1.031110168E0,6.792621613E-1
1.437836225E1,3.378901720E0,-9.135220647E-1,6.587987542E-1
1.438751376E1,3.548717260E0,-8.496885300E-1,5.885513425E-1
1.439665251E1,3.638969898E0,-8.895463347E-1,4.859289825E-1
1.440581678E1,3.652408361E0,-1.047908425E0,4.031592011E-1
1.441496830E1,3.643551111E0,-1.198176861E0,3.151971996E-1
1.442411981E1,3.661876678E0,-1.335922956E0,2.086043358E-1
1.443327132E1,3.682645321E0,-1.513832211E0,1.801999360E-1
1.444242283E1,3.644772768E0,-1.707165360E0,2.276933193E-1
1.445157434E1,3.539707184E0,-1.872704983E0,3.217637837E-1
1.446072590E1,3.441055298E0,-1.915769696E0,4.388937652E-1
1.446987741E1,3.378596306E0,-1.805206418E0,5.384618640E-1
1.447902892E1,3.352329731E0,-1.634627223E0,5.754181147E-1
1.448818043E1,3.328964949E0,-1.556286097E0,5.575508475E-1
1.449733194E1,3.261313438E0,-1.639055848E0,5.267030597E-1
1.450647069E1,3.120971441E0,-1.780467033E0,4.964661002E-1
1.451563496E1,2.912367105E0,-1.866596460E0,4.369085133E-1
1.452478647E1,2.684368372E0,-1.923710704E0,3.944546282E-1
1.453392522E1,2.507833481E0,-1.941730738E0,3.382566571E-1
1.454308949E1,2.370392799E0,-1.920351028E0,3.025220931E-1
1.455224100E1,2.206991196E0,-1.892557502E0,2.646495700E-1
1.456137975E1,2.011214495E0,-1.835137844E0,2.174616307E-1
1.457054402E1,1.786880970E0,-1.743510842E0,1.707318127E-1
1.457969554E1,1.545290828E0,-1.598739982E0,1.450762302E-1
1.458883428E1,1.322026134E0,-1.374406338E0,1.554606259E-1
1.459799856E1,1.138772011E0,-1.085322857E0,1.624853760E-1
1.460715007E1,9.492566586E-1,-7.776085734E-1,1.982199401E-1
1.461628882E1,7.191199064E-1,-5.160132051E-1,2.764083743E-1
1.462545309E1,4.886777997E-1,-2.948864996E-1,3.607053161E-1
1.463460460E1,2.985515893E-1,-8.399149776E-2,4.385883212E-1
1.464375611E1,1.530172378E-1,1.027750522E-1,5.094466209E-1
1.465290762E1,5.054761097E-2,2.293731421E-1,5.618267655E-1
1.466205913E1,-3.069507517E-2,2.739650011E-1,5.911474228E-1
1.467121064E1,-1.211004704E-1,2.467822880E-1,5.960342288E-1
1.468036215E1,-2.507528067E-1,2.072299272E-1,5.749599934E-1
1.468951366E1,-4.074351192E-1,1.756185889E-1,5.396835804E-1
1.469865246E1,-5.650337338E-1,1.673721522E-1,5.050179958E-1
1.470781668E1,-7.232431769E-1,1.640124917E-1,4.819584787E-1
1.471696819E1,-9.141329527E-1,1.377460510E-1,4.640912116E-1
1.472611975E1,-1.149003744E0,7.391251624E-2,4.471401870E-1
1.473527126E1,-1.431978703E0,1.740914769E-2,4.311054647E-1
1.474442278E1,-1.730530262E0,4.947862774E-2,4.278984964E-1
1.475356152E1,-1.881256819E0,1.721062213E-1,4.004103839E-1
1.476272580E1,-1.680288076E0,3.480302393E-1,3.187095523E-1
1.477187731E1,-1.084559321E0,6.551336646E-1,3.385621011E-1
1.478101606E1,-7.435538173E-1,8.173136115E-1,5.422796607E-1
1.479018033E1,-1.398076653E0,3.880407214E-1,7.151494026E-1
1.479933184E1,-2.243642092E0,-3.142809272E-1,6.876612902E-1
1.480847059E1,-2.565711260E0,-8.460234851E-2,5.661026835E-1
1.481763486E1,-2.481566906E0,4.428642690E-1,4.112529159E-1
1.482678637E1,-2.215848446E0,3.524588645E-1,2.953446507E-1
1.483592512E1,-1.946006656E0,1.403421611E-1,3.315373361E-1
1.484508939E1,-1.694795728E0,-4.367557913E-2,6.290199757E-1
1.485424090E1,-1.764890432E0,8.551861346E-2,1.050351858E0
1.486337965E1,-2.274031639E0,3.403946459E-1,1.249946237E0
1.487254392E1,-2.857543468E0,5.903838873E-1,1.143658757E0
1.488169543E1,-3.081113577E0,7.577560544E-1,8.727480173E-1
1.489083423E1,-2.794778824E0,7.238540053E-1,5.914528370E-1
1.489999845E1,-2.309155464E0,5.622848868E-1,3.532224298E-1
1.490914996E1,-2.035953999E0,4.150707126E-1,1.890572309E-1
1.491828876E1,-2.012588978E0,2.250972092E-1,1.394258887E-1
1.492745304E1,-1.995332599E0,5.955760926E-2,1.939440072E-1
1.493660455E1,-1.911493778E0,-3.878879920E-2,2.641914487E-1
1.494574330E1,-1.837886691E0,-1.415638477E-1,2.959555089E-1
1.495490757E1,-1.818797708E0,-1.745496094E-1,3.315373361E-1
1.496405908E1,-1.867665529E0,-9.804098308E-2,3.854446113E-1
1.497319783E1,-1.932720780E0,-5.803049076E-3,4.173613787E-1
1.498236210E1,-1.953184128E0,7.437065244E-2,4.213318825E-1
1.499151361E1,-1.898971438E0,1.418692768E-1,4.052971601E-1
1.500065236E1,-1.824142575E0,2.165453583E-1,3.481829464E-1
1.500981663E1,-1.817881465E0,3.939964771E-1,2.498365343E-1
1.501896814E1,-1.865527511E0,6.916317940E-1,1.131594554E-1
1.502810689E1,-1.937912941E0,1.046686769E0,9.162709117E-3
1.503727116E1,-1.989224076E0,1.352568507E0,-8.551862091E-3
1.504642267E1,-2.036870241E0,1.549261332E0,4.840964451E-2
1.505556142E1,-2.148655176E0,1.749924660E0,2.582356930E-1
1.506472569E1,-2.153847456E0,1.857739210E0,4.185830951E-1
1.507387720E1,-1.902025700E0,1.547123432E0,3.936910629E-1
1.508301600E1,-1.589271903E0,1.063485026E0,3.219164908E-1
1.509218022E1,-1.405254126E0,8.632798791E-1,2.304421216E-1
1.510133173E1,-1.396854997E0,8.654178381E-1,1.328592747E-1
1.511047054E1,-1.503905892E0,9.533798695E-1,5.390727147E-2
1.511963481E1,-1.638903141E0,1.041647315E0,-9.162708884E-4
1.512878632E1,-1.735417008E0,1.085322857E0,-1.863084175E-2
1.513792507E1,-1.751757264E0,1.123958945E0,6.108472589E-4
1.514708934E1,-1.680593491E0,1.195428133E0,5.558710173E-2
1.515624085E1,-1.587286592E0,1.285069942E0,1.250709742E-1
1.516539236E1,-1.513221383E0,1.397313118E0,1.542389393E-1
1.517454387E1,-1.446639061E0,1.531241417E0,1.667613089E-1
1.518369538E1,-1.384485364E0,1.610346079E0,1.721062213E-1
1.519284689E1,-1.318971992E0,1.601794243E0,1.230857223E-1
1.520199840E1,-1.266133666E0,1.464811683E0,3.374931216E-2
1.521114991E1,-1.244448543E0,1.345085621E0,-5.757235363E-2
1.522030142E1,-1.272394896E0,1.323706031E0,-1.157555580E-1
1.522945293E1,-1.281099439E0,1.353179336E0,-1.554606259E-1
1.523860444E1,-1.217876673E0,1.336381078E0,-1.776038408E-1
1.524774319E1,-1.105328083E0,1.233453274E0,-1.982199401E-1
1.525690746E1,-1.036607742E0,1.071273327E0,-2.342599183E-1
1.526605897E1,-1.058598280E0,8.641961813E-1,-2.904578745E-1
1.527519778E1,-1.143353343E0,5.740436912E-1,-3.408527672E-1
1.528436199E1,-1.220167398E0,2.805316150E-1,-3.613161445E-1
1.529351350E1,-1.226428628E0,7.742489129E-2,-3.538332880E-1
1.530265231E1,-1.118614078E0,-4.840964451E-2,-3.481829464E-1
1.531181653E1,-9.109259844E-1,-1.252236813E-1,-3.558185399E-1
1.532096809E1,-6.777350307E-1,-1.302631795E-1,-3.773508966E-1
1.533010684E1,-4.877615273E-1,-5.955760926E-2,-3.920112252E-1
1.533927111E1,-4.014793634E-1,7.513421029E-2,-3.694098890E-1
1.534842262E1,-4.424061179E-1,2.913741469E-1,-3.436015844E-1
1.535757413E1,-5.380037427E-1,5.781669021E-1,-3.292466700E-1
1.536672564E1,-5.829010010E-1,8.336538076E-1,-3.009949923E-1
1.537587715E1,-5.224271417E-1,1.023016453E0,-2.713688910E-1
1.538501590E1,-3.610107303E-1,1.157708287E0,-2.637332976E-1
1.539418017E1,-1.435490996E-1,1.252084136E0,-2.841966748E-1
1.540333168E1,1.068982705E-1,1.306602240E0,-3.075616062E-1
1.541247043E1,4.450022280E-1,1.321720719E0,-2.715215981E-1
1.542163470E1,9.310839176E-1,1.297134161E0,-1.356080920E-1
1.543078621E1,1.528645277E0,1.245059371E0,3.970507160E-2
1.543993772E1,2.163010120E0,1.170077920E0,1.663031727E-1
1.544908923E1,2.757059097E0,1.041494608E0,1.742441803E-1
1.545824074E1,3.264214993E0,7.508839965E-1,8.276980370E-2
1.546737955E1,3.677605867E0,1.962346882E-1,-6.108472589E-4
1.547654376E1,4.021512985E0,-5.656445622E-1,-2.947338112E-2
1.548569528E1,4.263866425E0,-1.340198874E0,-4.535540938E-2
1.549484679E1,4.313956261E0,-1.920503736E0,-4.398100078E-2
1.550399830E1,4.138490200E0,-2.107270241E0,2.504473738E-2
1.551314981E1,3.787252903E0,-1.886143565E0,1.385096163E-1
1.552228861E1,3.374625683E0,-1.358524323E0,2.597627938E-1
1.553145288E1,2.976353168E0,-6.821636558E-1,3.455868363E-1
1.554060439E1,2.709260225E0,-1.829487532E-1,3.567348123E-1
1.554974314E1,2.705595255E0,4.214845970E-2,3.022166789E-1
1.555890741E1,2.924431324E0,9.040539712E-2,1.785201132E-1
1.556805892E1,3.247416735E0,-4.107947648E-2,2.275406010E-2
1.557719767E1,3.594836235E0,-3.645231128E-1,-9.544488788E-2
1.558636194E1,3.846047163E0,-8.258655071E-1,-9.513945878E-2
1.559551345E1,3.890333414E0,-1.269646049E0,-2.672456764E-2
1.560465220E1,3.717769146E0,-1.593242407E0,5.528167635E-2
1.561381647E1,3.492213726E0,-1.760309100E0,1.082726792E-1
1.562296798E1,3.343014240E0,-1.771915197E0,1.267508119E-1
1.563210673E1,3.286510944E0,-1.718466043E0,1.226275861E-1
1.564127100E1,3.267421961E0,-1.583316088E0,1.382041872E-1
1.565042251E1,3.204351902E0,-1.234369636E0,1.783674061E-1
1.565957403E1,3.054389000E0,-7.983773947E-1,1.824906170E-1
1.566872554E1,2.899386406E0,-4.779879749E-1,1.806580722E-1
1.567787705E1,2.807454109E0,-4.219427407E-1,2.073826492E-1
1.568702856E1,2.755990028E0,-6.320741773E-1,2.707580328E-1
1.569618012E1,2.708038568E0,-8.646543026E-1,3.223746419E-1
1.570533163E1,2.631071806E0,-1.084101200E0,3.159607351E-1
1.571448314E1,2.511498451E0,-1.263690233E0,2.437280566E-1
1.572363465E1,2.358786583E0,-1.375169873E0,1.462979168E-1
1.573278616E1,2.203020573E0,-1.413653255E0,5.543438718E-2
1.574192491E1,2.081614733E0,-1.399603724E0,-1.068982668E-2
1.575108918E1,1.985253572E0,-1.420983434E0,-3.573456407E-2
1.576024069E1,1.862473249E0,-1.488634825E0,-2.626643144E-2
1.576937944E1,1.653105378E0,-1.465269804E0,9.468132630E-3
1.577854371E1,1.349208832E0,-1.258956194E0,5.482354015E-2
1.578769522E1,1.011410356E0,-9.442171454E-1,1.102579311E-1
1.579683397E1,7.040014863E-1,-6.519267559E-1,2.049392611E-1
1.580599824E1,4.587462842E-1,-4.236225784E-1,2.794626355E-1
1.581514975E1,2.461714447E-1,-3.243598938E-1,3.461976945E-1
1.582430126E1,1.282779220E-2,-3.190149665E-1,4.141544402E-1
1.583345278E1,-2.486148328E-1,-3.281776905E-1,4.672981501E-1
1.584260428E1,-5.126535892E-1,-3.319954872E-1,5.265503526E-1
1.585175580E1,-7.127060294E-1,-3.009949923E-1,5.628957748E-1
1.586090731E1,-8.377770185E-1,-2.725905776E-1,6.120689511E-1
1.587005882E1,-9.136747718E-1,-2.744231224E-1,6.433748603E-1
1.587919762E1,-1.006523609E0,-3.011476994E-1,6.206207871E-1
1.588836184E1,-1.176491857E0,-2.793098986E-1,5.552601814E-1
1.589751335E1,-1.443432093E0,-2.481566966E-1,4.819584787E-1
1.590666491E1,-1.780619740E0,-2.121167034E-1,4.350759685E-1
1.591581642E1,-2.131856918E0,-1.626380831E-1,4.337015450E-1
1.592496793E1,-2.311445951E0,-5.344913527E-2,4.103366435E-1
1.593410668E1,-2.043742180E0,3.173351586E-1,3.210002482E-1
1.594327095E1,-1.633710980E0,7.695148587E-1,3.596363366E-1
1.595242246E1,-1.673721433E0,1.027445078E0,5.642701387E-1
1.596156121E1,-1.971662283E0,1.253611326E0,8.747332692E-1
1.597072548E1,-2.181182861E0,1.686854720E0,1.119683027E0
1.597987699E1,-2.407654524E0,1.422815919E0,1.029583097E0
1.598901574E1,-2.780424118E0,1.243990421E0,7.522584200E-1
1.599818001E1,-2.768207073E0,1.360051394E0,5.325061083E-1
1.600733152E1,-2.237075329E0,1.180615067E0,5.108210444E-1
1.601647028E1,-1.665780425E0,8.417475224E-1,6.725428104E-1
1.602563455E1,-1.579498291E0,3.715478480E-1,7.650861740E-1
1.603478606E1,-1.961583257E0,6.933116168E-2,6.496360302E-1
1.604392481E1,-2.321066856E0,7.131642103E-2,4.107947946E-1
1.605308908E1,-2.303199530E0,-2.367033064E-2,1.582094431E-1
1.606224059E1,-2.029845476E0,-1.866138428E-1,-2.290677279E-2
1.607137939E1,-1.794669271E0,-1.704263836E-1,-1.385096163E-1
1.608054366E1,-1.729308605E0,-1.313321572E-2,-1.797417998E-1
1.608969517E1,-1.753437042E0,1.081199646E-1,-1.262926757E-1
1.609884668E1,-1.740609288E0,2.115058601E-1,-3.038965166E-2
1.610799819E1,-1.687312841E0,3.481829464E-1,6.032116711E-2
1.611714970E1,-1.684258580E0,4.993676245E-1,1.939440072E-1
1.612629270E1,-1.763974190E0,6.624638438E-1,3.520007432E-1
1.613545697E1,-1.876980901E0,8.208259940E-1,4.952444136E-1
1.614460848E1,-1.950893402E0,9.138274789E-1,5.887040496E-1
1.615374723E1,-1.981435776E0,9.368869662E-1,6.201626658E-1
1.616291150E1,-1.995638013E0,9.517000318E-1,5.945070982E-1
1.617206301E1,-1.994721770E0,1.033400893E0,4.979932308E-1
1.618121452E1,-1.975632787E0,1.159388065E0,3.691044450E-1
1.619036604E1,-1.940967202E0,1.283695459E0,2.464768738E-1
1.619951755E1,-1.882325888E0,1.376238823E0,1.620272398E-1
1.620866906E1,-1.818492293E0,1.437170863E0,1.214058921E-1
1.621782057E1,-1.780314326E0,1.441904902E0,8.933641016E-2
1.622697213E1,-1.724269152E0,1.344780207E0,4.107947648E-2
1.623611088E1,-1.630351305E0,1.194053650E0,-1.252236869E-2
1.624527510E1,-1.519482613E0,1.085628271E0,-4.474456236E-2
1.625442666E1,-1.424495816E0,1.065317631E0,-2.993151546E-2
1.626357817E1,-1.368297815E0,1.121668339E0,-6.413896102E-3
1.627272968E1,-1.376391530E0,1.188556075E0,1.420219894E-2
1.628188119E1,-1.457328796E0,1.265675545E0,3.497100621E-2
1.629103270E1,-1.558729529E0,1.372726560E0,3.481829539E-2
1.630018421E1,-1.626533508E0,1.510014415E0,2.687728032E-2
1.630933572E1,-1.650814772E0,1.682273388E0,3.939964995E-2
1.631848723E1,-1.619050622E0,1.829487562E0,8.108997345E-2
1.632763874E1,-1.523911238E0,1.876064658E0,8.475505561E-2
1.633679025E1,-1.411820769E0,1.749619246E0,5.573981255E-2
1.634594176E1,-1.330425382E0,1.495812178E0,2.137965523E-3
1.635509328E1,-1.235896707E0,1.223374367E0,-5.375456065E-2
1.636424478E1,-1.122737288E0,9.823951125E-1,-9.437590092E-2
1.637339630E1,-1.012326598E0,7.872294188E-1,-1.270562261E-1
1.638254781E1,-8.955020905E-1,6.282563806E-1,-1.559187621E-1
1.639169932E1,-7.843278646E-1,5.355603099E-1,-1.702736765E-1
1.640085088E1,-7.018635273E-1,4.862344265E-1,-1.818797737E-1
1.641000234E1,-6.696413159E-1,4.049917459E-1,-1.956238300E-1
1.641915390E1,-6.943806410E-1,2.819060087E-1,-2.086043358E-1
1.642830541E1,-7.418739796E-1,1.582094431E-1,-2.211267054E-1
1.643745692E1,-7.763868570E-1,2.916795574E-2,-2.339545041E-1
1.644660843E1,-7.956285477E-1,-9.025268257E-2,-2.622061968E-1
1.645575994E1,-8.318212628E-1,-7.727217674E-2,-3.138227761E-1
1.646491145E1,-8.452599049E-1,7.635590737E-4,-3.675773442E-1
1.647406296E1,-8.029587269E-1,4.046862945E-2,-4.077405334E-1
1.648320171E1,-7.753179073E-1,8.307522535E-2,-4.556920528E-1
1.649236598E1,-7.846332788E-1,1.769929975E-1,-5.132644176E-1
1.650151749E1,-7.722636461E-1,2.504473627E-1,-5.328115225E-1
1.651065624E1,-6.833853722E-1,2.959555089E-1,-4.906630516E-1
1.651982051E1,-5.247178078E-1,3.831539452E-1,-4.480564594E-1
1.652897202E1,-3.301629424E-1,4.720322192E-1,-4.272876680E-1
1.653811078E1,-1.473668963E-1,5.465555787E-1,-3.943018913E-1
1.654727505E1,-1.374406368E-2,6.705575585E-1,-3.396310806E-1
1.655642656E1,7.314895838E-2,8.594620824E-1,-2.835858464E-1
1.656556536E1,1.643179059E-1,1.051420808E0,-2.299840003E-1
1.657472958E1,3.374931216E-1,1.173743010E0,-1.708845198E-1
1.658388114E1,6.539120078E-1,1.169619799E0,-9.895725548E-2
1.659301989E1,1.119377613E0,1.066386580E0,-3.451287001E-2
1.660218416E1,1.689908981E0,9.361234307E-1,-7.177455351E-3
1.661133567E1,2.294189692E0,7.838697433E-1,-2.489202656E-2
1.662047442E1,2.867775202E0,5.612159371E-1,-5.543438718E-2
1.662963869E1,3.362256050E0,1.841704547E-1,-4.428642616E-2
1.663879020E1,3.745104551E0,-4.198047817E-1,4.917320609E-2
1.664792895E1,3.980738878E0,-1.232384324E0,2.095206082E-1
1.665709322E1,4.060760021E0,-2.061304092E0,3.915531039E-1
1.666624473E1,3.946073294E0,-2.626796007E0,5.578562617E-1
1.667538348E1,3.648285151E0,-2.727585793E0,6.357392669E-1
1.668454775E1,3.292314053E0,-2.318012714E0,5.865660906E-1
1.669369926E1,3.015905619E0,-1.578429341E0,4.417952895E-1
1.670283807E1,2.895110607E0,-8.742751479E-1,2.644968629E-1
1.671200228E1,2.921529770E0,-5.178457499E-1,1.252236813E-1
1.672115380E1,3.062024593E0,-4.489727318E-1,-2.458660305E-2
1.673029260E1,3.256121397E0,-5.131117105E-1,-1.661504507E-1
1.673945682E1,3.467474461E0,-6.835380793E-1,-2.218902707E-1
1.674860838E1,3.694709539E0,-8.837432861E-1,-1.902789176E-1
1.675774713E1,3.902397633E0,-1.081199646E0,-6.765133142E-2
1.676691140E1,4.004714489E0,-1.333784938E0,1.462979168E-1
1.677606291E1,3.958595753E0,-1.491688967E0,3.323009014E-1
1.678520166E1,3.766942263E0,-1.533990145E0,4.072824121E-1
1.679436593E1,3.573456526E0,-1.631114841E0,4.518742561E-1
1.680351744E1,3.473124743E0,-1.865527511E0,4.854708612E-1
1.681265619E1,3.383635759E0,-1.913479090E0,4.414898455E-1
1.682182046E1,3.313388348E0,-1.593853235E0,3.755183518E-1
1.683097197E1,3.275210381E0,-1.224748731E0,3.229855001E-1
1.684012348E1,3.230465651E0,-8.887827396E-1,2.699944973E-1
1.684927499E1,3.122651100E0,-6.684195995E-1,2.281514555E-1
1.685842650E1,2.926874638E0,-6.737645268E-1,2.011214644E-1
1.686757801E1,2.710023880E0,-8.796200752E-1,1.759240031E-1
1.687672953E1,2.560824394E0,-1.224596024E0,1.574458778E-1
1.688588104E1,2.482025146E0,-1.581483603E0,1.546970755E-1
1.689501984E1,2.408417940E0,-1.825211644E0,1.458397806E-1
1.690418411E1,2.301214218E0,-1.900803924E0,1.298050433E-1
1.691333562E1,2.149876833E0,-1.840788245E0,9.208522737E-2
1.692247437E1,1.954863906E0,-1.724421859E0,4.902049154E-2
1.693163864E1,1.726101637E0,-1.557965875E0,1.313321572E-2
1.694079015E1,1.432589531E0,-1.319888234E0,-2.015795931E-2
1.694992890E1,1.086849928E0,-1.039203882E0,-3.756710514E-2
1.695909317E1,7.635591030E-1,-8.113578558E-1,-2.840439789E-2
1.696824468E1,4.715740979E-1,-7.139277458E-1,1.832541823E-2
1.697738343E1,2.156290859E-1,-7.153021693E-1,7.696675509E-2
1.698654770E1,9.162708884E-4,-7.142331600E-1,1.401894391E-1
1.699569921E1,-2.020377368E-1,-6.685723066E-1,2.101314515E-1
1.700483796E1,-4.098785222E-1,-6.010736823E-1,2.702999115E-1
1.701400223E1,-6.117635369E-1,-5.216635466E-1,3.219164908E-1
1.702315374E1,-7.919634581E-1,-4.578300118E-1,3.720059693E-1
1.703230525E1,-9.391776323E-1,-4.355340898E-1,4.190412164E-1
1.704145676E1,-1.056613088E0,-4.054498672E-1,4.530959427E-1
1.705060828E1,-1.188403368E0,-3.532224298E-1,4.741701782E-1
1.705975978E1,-1.358829737E0,-3.210002482E-1,4.795151055E-1
1.706891135E1,-1.577054858E0,-3.229855001E-1,4.920374751E-1
1.707806286E1,-1.844147921E0,-3.871244490E-1,5.268557668E-1
1.708720161E1,-2.081462145E0,-4.749337435E-1,5.636593103E-1
1.709636588E1,-1.986169815E0,-4.778352678E-1,4.972296655E-1
1.710551739E1,-1.556286097E0,-2.541124523E-1,3.687990308E-1
1.711465614E1,-1.464506269E0,2.199050188E-1,4.326325655E-1
1.712382041E1,-1.836359620E0,1.950129867E-1,5.351021886E-1
1.713297192E1,-2.139645338E0,-2.321219593E-1,5.497625470E-1
1.714211067E1,-2.045422077E0,3.410054743E-1,6.928535104E-1
1.715127494E1,-1.830251098E0,1.829334855E0,8.959602118E-1
1.716042645E1,-1.847965717E0,2.004953384E0,9.507837296E-1
1.716956520E1,-2.184542418E0,1.128082156E0,7.383615971E-1
1.717872947E1,-2.606027126E0,1.106244445E0,6.126797795E-1
1.718788098E1,-2.724684238E0,1.601030707E0,6.810947061E-1
1.719701979E1,-2.664057493E0,1.767181158E0,7.363763452E-1
1.720618400E1,-2.519286871E0,1.450762272E0,6.716265678E-1
1.721533557E1,-2.359397650E0,9.095515609E-1,5.699204803E-1
1.722447432E1,-2.337865114E0,6.473453641E-1,5.551074743E-1
1.723363859E1,-2.468281031E0,6.755970716E-1,5.693096519E-1
1.724279010E1,-2.574263096E0,6.137487888E-1,5.363239050E-1
1.725192885E1,-2.479581833E0,3.399364948E-1,4.511106908E-1
1.726109312E1,-2.230203390E0,-6.413896102E-3,3.529170156E-1
1.727024463E1,-2.000983000E0,-2.283041626E-1,2.527380586E-1
1.727938338E1,-1.810551286E0,-4.089622498E-1,2.011214644E-1
1.728854765E1,-1.675706744E0,-5.322006941E-1,2.034121305E-1
1.729769916E1,-1.639361382E0,-4.815003574E-1,2.365505993E-1
1.730683791E1,-1.641346574E0,-3.981196880E-1,2.596100867E-1
1.731600218E1,-1.640124917E0,-3.348970115E-1,2.638860047E-1
1.732515369E1,-1.644248128E0,-1.743968874E-1,2.912214398E-1
1.733429249E1,-1.647302389E0,2.870982140E-2,3.319954872E-1
1.734345671E1,-1.656006932E0,2.215848416E-1,3.518480062E-1
1.735260822E1,-1.709456086E0,5.022691488E-1,3.361186981E-1
1.736174702E1,-1.802762985E0,9.026795626E-1,2.892361879E-1
1.737091130E1,-1.901567459E0,1.296523333E0,2.412846684E-1
1.738006281E1,-1.969676971E0,1.627602577E0,2.107423097E-1
1.738920156E1,-1.973494768E0,1.919282079E0,2.043284029E-1
1.739836583E1,-1.949519038E0,2.062678576E0,1.951656938E-1
1.740751734E1,-1.872857690E0,1.975938201E0,1.670667231E-1
1.741665609E1,-1.707623482E0,1.768250108E0,1.598892659E-1
1.742582036E1,-1.502073407E0,1.528797984E0,1.664558798E-1
1.743497187E1,-1.345391035E0,1.285680771E0,1.853921413E-1
1.744411062E1,-1.297592282E0,1.106244445E0,1.968455315E-1
1.745327489E1,-1.350430608E0,1.023474574E0,1.788255423E-1
1.746242640E1,-1.458550572E0,9.996515512E-1,1.444653720E-1
1.747157791E1,-1.554148197E0,9.698727131E-1,8.826743066E-2
1.748072942E1,-1.616149187E0,9.484930634E-1,4.871506989E-2
1.748988093E1,-1.645317078E0,9.909469485E-1,1.252236869E-2
1.749901973E1,-1.627297044E0,1.060889006E0,-2.046338283E-2
1.750818395E1,-1.552010179E0,1.126096964E0,-1.985253580E-2
1.751733546E1,-1.416707516E0,1.133732557E0,2.199050039E-2
1.752648697E1,-1.255443811E0,1.144422293E0,7.986827940E-2
1.753563854E1,-1.140451789E0,1.219403863E0,1.068982705E-1
1.754479005E1,-1.066997409E0,1.159235358E0,8.368607610E-2
1.755392880E1,-9.857547879E-1,9.121476412E-1,4.657710344E-2
1.756309307E1,-8.863393664E-1,7.043069005E-1,6.566607859E-3
1.757224458E1,-8.557969928E-1,6.956022978E-1,-5.253286287E-2
1.758138333E1,-8.929060102E-1,6.933116317E-1,-1.510319859E-1
1.759054760E1,-9.148964882E-1,4.844018817E-1,-2.481566966E-1
1.759969911E1,-8.898517489E-1,1.915006191E-1,-2.959555089E-1
1.760885062E1,-8.741224408E-1,-4.291202128E-2,-3.011476994E-1
1.761800213E1,-9.150491953E-1,-1.521009654E-1,-3.167243004E-1
1.762715364E1,-9.391776323E-1,-2.035648525E-1,-3.492519259E-1
1.763629239E1,-8.745805621E-1,-2.336490750E-1,-3.677300513E-1
1.764545666E1,-7.511894107E-1,-1.966928244E-1,-3.533751369E-1
1.765460817E1,-6.395570636E-1,-7.818844914E-2,-3.002314270E-1
1.766374697E1,-6.207735538E-1,1.462979168E-1,-2.525853515E-1
1.767291119E1,-6.697940230E-1,4.703523815E-1,-2.721324563E-1
1.768206270E1,-7.027797699E-1,8.026533127E-1,-3.446705639E-1
1.769120150E1,-6.621584296E-1,1.061499834E0,-4.129327536E-1
1.770036578E1,-5.355603099E-1,1.261094213E0,-4.384356141E-1
1.770951728E1,-3.536805511E-1,1.442210436E0,-4.152234197E-1
1.771865604E1,-1.696628332E-1,1.591562510E0,-3.603998721E-1
1.772782031E1,9.315420873E-3,1.674790502E0,-2.816005945E-1
1.773697182E1,2.591519356E-1,1.653258085E0,-1.681357026E-1
1.774611057E1,6.775823236E-1,1.521315098E0,-1.786728203E-2
1.775527484E1,1.275601745E0,1.314848781E0,1.123958975E-1
1.776442635E1,1.974411011E0,1.110062122E0,1.637070626E-1
1.777356510E1,2.666653633E0,9.145910740E-1,1.316375881E-1
1.778272937E1,3.253067017E0,7.110261917E-1,5.344913527E-2
1.779188088E1,3.695014954E0,4.674508572E-1,-2.031067200E-2
1.780101968E1,4.017848015E0,6.306997687E-2,-1.404948719E-2
1.781018390E1,4.239737988E0,-5.405998230E-1,8.383878320E-2
1.781933541E1,4.317468643E0,-1.259567022E0,2.296785712E-1
1.782847421E1,4.221412659E0,-1.898360610E0,3.918585181E-1
1.783763843E1,3.953556061E0,-2.285026789E0,5.422796607E-1
1.784678999E1,3.580481291E0,-2.359550238E0,6.135960817E-1
1.785592874E1,3.217638016E0,-2.078255177E0,5.796940327E-1
1.786509301E1,2.964136362E0,-1.469240427E0,4.957025647E-1
1.787424452E1,2.848686218E0,-8.425110579E-1,3.796415627E-1
1.788338328E1,2.930387020E0,-4.656183124E-1,2.510582209E-1
1.789254755E1,3.213667393E0,-3.752129376E-1,1.241547018E-1
1.790169906E1,3.570554972E0,-4.775298536E-1,2.107422985E-2
1.791083781E1,3.870328188E0,-6.522321701E-1,-7.986827940E-2
1.792000208E1,4.039074898E0,-9.750649333E-1,-1.188097894E-1
1.792915359E1,4.041212559E0,-1.467560530E0,-2.367033064E-2
1.793829234E1,3.888959169E0,-2.023431540E0,1.282779276E-1
1.794745661E1,3.700360060E0,-2.437891483E0,2.634278834E-1
1.795660812E1,3.540928841E0,-2.520966530E0,3.637595475E-1
1.796574692E1,3.410512924E0,-2.312820435E0,3.101576865E-1
1.797491119E1,3.323772669E0,-1.991056681E0,1.982199401E-1
1.798406270E1,3.294299364E0,-1.640430331E0,1.605001241E-1
1.799320145E1,3.186790228E0,-1.250098944E0,1.502684206E-1
1.800236572E1,3.003077745E0,-9.022213817E-1,1.499630064E-1
1.801151723E1,2.806232214E0,-6.777350307E-1,1.466033459E-1
1.802066874E1,2.646495819E0,-6.522321701E-1,1.307213157E-1
1.802982025E1,2.496532679E0,-8.134958148E-1,9.254335612E-2
1.803897176E1,2.362298965E0,-1.027139664E0,5.696150661E-2
1.804811051E1,2.270213842E0,-1.271936655E0,3.268032894E-2
1.805727478E1,2.214779377E0,-1.473516345E0,1.038440317E-2
1.806642630E1,2.137965441E0,-1.565754294E0,5.650337320E-3
1.807556505E1,1.969676971E0,-1.554606318E0,6.872031838E-3
1.808472932E1,1.723810911E0,-1.440530539E0,-7.177455351E-3
1.809388083E1,1.456717968E0,-1.254222155E0,-2.382304333E-2
1.810301958E1,1.198329568E0,-1.047908425E0,-1.725643501E-2
1.811218385E1,9.217684865E-1,-8.812998533E-1,2.901524492E-2
1.812133536E1,6.148177385E-1,-7.598940134E-1,7.437065244E-2
1.813047416E1,3.151971996E-1,-6.198572516E-1,8.979454637E-2
1.813963843E1,2.870982140E-2,-4.676035643E-1,1.615691036E-1
1.814878994E1,-2.655658424E-1,-3.327590525E-1,2.498365343E-1
1.815794145E1,-5.650337338E-1,-2.316638231E-1,3.135173619E-1
1.816709296E1,-8.276980519E-1,-1.814216375E-1,3.593308926E-1
1.817624447E1,-1.016602516E0,-1.676775664E-1,4.056025743E-1
1.818539598E1,-1.141215444E0,-1.887518018E-1,4.663818777E-1
1.819454749E1,-1.231009960E0,-2.289150059E-1,5.219689608E-1
1.820369900E1,-1.342642307E0,-2.483094037E-1,5.554128885E-1
1.821283775E1,-1.584385037E0,-1.684411317E-1,5.676298141E-1
1.822200203E1,-1.972425818E0,-2.748812549E-3,6.050441861E-1
1.823115354E1,-2.328091621E0,2.047865391E-1,6.287145615E-1
1.824029229E1,-2.244558334E0,5.444176197E-1,5.563291311E-1
1.824945656E1,-2.037786484E0,9.733850956E-1,5.984776020E-1
1.825860807E1,-2.341377497E0,1.273769259E0,8.079982400E-1
1.826774687E1,-2.609692097E0,1.275296330E0,9.941539168E-1
1.827691109E1,-2.497907162E0,2.255095482E0,1.230551839E0
1.828606260E1,-2.460034609E0,2.892361879E0,1.312863469E0
1.829520140E1,-2.833415031E0,2.028929234E0,1.027445078E0
1.830436567E1,-3.116237402E0,1.129303813E0,5.442649126E-1
1.831351718E1,-2.882282734E0,9.202414155E-1,2.927485406E-1
1.832265593E1,-2.335421801E0,8.295305967E-1,2.929012477E-1
1.833182020E1,-1.792989373E0,3.536805511E-1,4.155288339E-1
1.834097171E1,-1.612025857E0,-2.151709497E-1,5.161659122E-1
1.835011046E1,-1.838650227E0,-5.091412067E-1,4.903576374E-1
1.835927473E1,-2.184695244E0,-4.251496792E-1,3.742966652E-1
1.836842624E1,-2.343515396E0,-2.492256761E-1,2.557922900E-1
1.837756499E1,-2.286706686E0,-1.585148573E-1,1.711899489E-1
1.838672926E1,-2.172631025E0,-6.337540597E-2,9.819369763E-2
1.839588078E1,-2.117196560E0,1.183516532E-1,2.458660305E-2
1.840501958E1,-2.099940062E0,2.200577259E-1,-1.389677543E-2
1.841418380E1,-2.022209883E0,2.594573796E-1,4.886778072E-3
1.842333536E1,-1.837123156E0,2.750339806E-1,7.696675509E-2
1.843248687E1,-1.630809426E0,3.179459870E-1,1.675248593E-1
1.844163838E1,-1.572473526E0,4.407263100E-1,2.551814318E-1
1.845078989E1,-1.674943209E0,6.284091473E-1,3.552076817E-1
1.845992864E1,-1.832541823E0,8.399149776E-1,4.460712075E-1
1.846909291E1,-1.942188859E0,1.011104941E0,5.001311898E-1
1.847824442E1,-2.010145664E0,1.107466102E0,5.196782947E-1
1.848738317E1,-2.064358234E0,1.240630746E0,5.100574493E-1
1.849654744E1,-2.104979753E0,1.414874911E0,4.401154518E-1
1.850569895E1,-2.106812239E0,1.524216652E0,3.373403847E-1
1.851485046E1,-2.061304092E0,1.579956412E0,2.296785712E-1
1.852400197E1,-1.948144674E0,1.599503517E0,1.082726792E-1
1.853315348E1,-1.786117435E0,1.519788027E0,1.374406274E-3
1.854229229E1,-1.625769973E0,1.331341624E0,-6.505523622E-2
1.855145650E1,-1.462368369E0,1.056002140E0,-7.971556485E-2
1.856060801E1,-1.341115117E0,8.539644480E-1,-4.810422286E-2
1.856975958E1,-1.348139882E0,9.144383669E-1,1.588202827E-2
1.857891109E1,-1.447097182E0,1.126096964E0,9.009996802E-2
1.858806260E1,-1.563310862E0,1.286291599E0,1.386623234E-1
1.859721411E1,-1.647760510E0,1.347070932E0,1.533226669E-1
1.860636562E1,-1.714800954E0,1.405406833E0,1.473668963E-1
1.861551713E1,-1.780314326E0,1.503600478E0,1.357607991E-1
1.862466864E1,-1.800472260E0,1.545596242E0,1.227803007E-1
1.863382015E1,-1.744274378E0,1.478708506E0,1.085781008E-1
1.864297166E1,-1.617523551E0,1.380514860E0,5.894676223E-2
1.865212317E1,-1.422968745E0,1.238340139E0,-2.825168520E-2
1.866127468E1,-1.202758312E0,1.052795291E0,-1.102579311E-1
1.867042619E1,-1.031873703E0,8.586985469E-1,-1.704263836E-1
1.867956494E1,-9.318475127E-1,7.105680704E-1,-2.026485801E-1
1.868872921E1,-8.794673681E-1,6.558972597E-1,-1.913478971E-1
1.869788072E1,-8.663341403E-1,6.077930331E-1,-1.606528312E-1
1.870703223E1,-8.460234404E-1,4.631749392E-1,-1.456870735E-1
1.871618380E1,-7.904363275E-1,3.254288733E-1,-1.433963925E-1
1.872533531E1,-7.240067124E-1,2.657185495E-1,-1.727170646E-1
1.873448682E1,-6.696413159E-1,2.131856978E-1,-2.090624720E-1
1.874363833E1,-6.474980712E-1,1.511846930E-1,-2.307475507E-1
1.875278984E1,-7.029324770E-1,1.629435122E-1,-2.666348219E-1
1.876194135E1,-8.073873520E-1,2.771719396E-1,-2.918322682E-1
1.877109286E1,-8.947384953E-1,4.614951015E-1,-2.895416021E-1
1.878024437E1,-9.315420985E-1,6.476507783E-1,-2.845021188E-1
1.878938312E1,-9.077190161E-1,7.536327839E-1,-2.990097404E-1
1.879854739E1,-8.273926377E-1,7.583668828E-1,-3.552076817E-1
1.880769890E1,-7.012526393E-1,7.618792653E-1,-4.379774928E-1
1.881683765E1,-5.380037427E-1,7.950177193E-1,-4.978405237E-1
1.882600192E1,-3.584146202E-1,8.382351398E-1,-4.868452549E-1
1.883515343E1,-1.875301152E-1,9.182561636E-1,-4.063661397E-1
1.884429223E1,-3.481829539E-2,1.026681542E0,-3.126010895E-1
1.885345645E1,1.319430023E-1,1.096623540E0,-2.437280566E-1
1.886260801E1,3.761292100E-1,1.072342396E0,-2.011214644E-1
1.887174676E1,7.580614686E-1,9.290986657E-1,-1.579040140E-1
1.888091104E1,1.293163657E0,6.795675755E-1,-1.050657257E-1
1.889006255E1,1.938523769E0,3.843756318E-1,-5.451811850E-2
1.889920130E1,2.608165026E0,1.324011385E-1,-2.580829710E-2
1.890836557E1,3.227411509E0,-5.161659420E-2,-4.688252881E-2
1.891751708E1,3.748769522E0,-2.173089087E-1,-7.925742865E-2
1.892666859E1,4.142765999E0,-3.906368315E-1,-5.054761097E-2
1.893582010E1,4.374735355E0,-6.612421870E-1,3.359659761E-2
1.894497161E1,4.416578293E0,-1.063179612E0,1.502684206E-1
1.895411036E1,4.295172691E0,-1.555217147E0,3.054236174E-1
1.896327463E1,4.058927536E0,-2.023889780E0,4.524851143E-1
1.897242614E1,3.755641699E0,-2.345042706E0,5.543438792E-1
1.898156489E1,3.450370789E0,-2.392535925E0,5.607577562E-1
1.899072916E1,3.203283072E0,-2.033357859E0,5.033381581E-1
1.899988072E1,3.087985516E0,-1.420525312E0,4.049917459E-1
1.900901947E1,3.133493662E0,-8.648070097E-1,2.643441558E-1
1.901818374E1,3.333546162E0,-6.239804626E-1,1.148392856E-1
1.902733525E1,3.672566414E0,-6.420004964E-1,-4.275931045E-3
1.903647400E1,4.017084122E0,-8.026533127E-1,-9.513945878E-2
1.904563828E1,4.231491566E0,-1.032179117E0,-1.514901221E-1
1.905478978E1,4.258827209E0,-1.218182087E0,-1.169772521E-1
1.906392854E1,4.078321934E0,-1.428313613E0,4.581354558E-3
1.907309281E1,3.799469948E0,-1.761378050E0,1.641651988E-1
1.908224432E1,3.581397533E0,-2.126206636E0,3.405473530E-1
1.909138307E1,3.456479311E0,-2.223484039E0,4.880669713E-1
1.910054734E1,3.350802660E0,-1.965095639E0,4.755446017E-1
1.910969885E1,3.245584249E0,-1.743358135E0,3.909422457E-1
1.911883760E1,3.202214003E0,-1.492147088E0,3.684936166E-1
1.912800187E1,3.198090792E0,-1.236660242E0,3.671191931E-1
1.913715338E1,3.140518427E0,-1.003622055E0,3.542914093E-1
1.914629218E1,2.957875252E0,-8.968765140E-1,3.180987239E-1
1.915545645E1,2.677496195E0,-9.384140968E-1,2.513636351E-1
1.916460796E1,2.372225285E0,-1.092347622E0,1.736333370E-1
1.917375947E1,2.177975893E0,-1.326607585E0,1.267508119E-1
1.918291098E1,2.104216099E0,-1.561325550E0,9.941539168E-2
1.919206249E1,2.078102350E0,-1.724116445E0,7.803573459E-2
1.920120124E1,2.009382010E0,-1.759240150E0,5.619794875E-2
1.921036551E1,1.816354275E0,-1.666238666E0,3.955236077E-2
1.921951703E1,1.521162391E0,-1.463742733E0,2.443389036E-2
1.922865578E1,1.177408099E0,-1.196649790E0,1.572931744E-2
1.923782005E1,8.365553021E-1,-9.320002198E-1,4.123219103E-2
1.924697156E1,5.250232220E-1,-7.177455425E-1,9.437590092E-2
1.925612307E1,2.535016239E-1,-5.636593103E-1,1.357607991E-1
1.926527458E1,4.581354558E-3,-4.692834020E-1,1.852394342E-1
1.927442609E1,-2.519744933E-1,-4.068242610E-1,2.603736520E-1
1.928357760E1,-5.147915483E-1,-3.417690396E-1,3.353551328E-1
1.929272911E1,-7.588250041E-1,-3.051182032E-1,4.001049399E-1
1.930188062E1,-9.420791864E-1,-3.216110766E-1,4.495835900E-1
1.931103218E1,-1.042716265E0,-3.377985358E-1,5.111264586E-1
1.932018369E1,-1.120751977E0,-3.051182032E-1,5.673243999E-1
1.932933520E1,-1.287818789E0,-1.931804419E-1,6.064186096E-1
1.933848671E1,-1.565754294E0,-6.826218218E-2,6.215370893E-1
1.934763822E1,-1.965553761E0,5.696150661E-2,6.056550741E-1
1.935678973E1,-2.440334797E0,2.327328026E-1,5.850389600E-1
1.936592848E1,-2.712772608E0,4.671454430E-1,5.286883116E-1
1.937509275E1,-2.396659136E0,8.750386834E-1,4.072824121E-1
1.938424426E1,-2.226385593E0,1.372879267E0,5.198310018E-1
1.939338301E1,-2.674442053E0,1.661962628E0,7.832589149E-1
1.940254728E1,-2.920308113E0,1.945701241E0,1.042716265E0
1.941169880E1,-2.865789890E0,3.166632175E0,1.349972486E0
1.942083755E1,-3.055610657E0,3.432808876E0,1.353332043E0
1.943000182E1,-3.382414103E0,2.496838093E0,1.015228152E0
1.943915338E1,-3.361034393E0,1.641041160E0,6.471926570E-1
1.944829213E1,-2.929012537E0,1.089140654E0,5.059342384E-1
1.945745640E1,-2.296022177E0,5.393781066E-1,5.077667832E-1
1.946660791E1,-1.778481841E0,-2.173089087E-1,5.022691488E-1
1.947574666E1,-1.608971715E0,-9.655967951E-1,4.666872919E-1
1.948491093E1,-1.767028451E0,-1.301868200E0,3.729222417E-1
1.949406244E1,-1.976396322E0,-1.265980959E0,2.414373755E-1
1.950320119E1,-2.015032291E0,-1.094180107E0,1.348445266E-1
1.951236546E1,-1.957460046E0,-8.773293495E-1,5.375456065E-2
1.952151697E1,-1.934553266E0,-5.644228458E-1,-5.314370990E-2
1.953065572E1,-1.976549029E0,-2.044811249E-1,-1.678302884E-1
1.953981999E1,-2.032288790E0,1.188097894E-1,-2.166980654E-1
1.954897150E1,-1.997012377E0,3.504736125E-1,-1.629435122E-1
1.955811031E1,-1.831778169E0,4.857762754E-1,-1.832541777E-3
1.956727453E1,-1.650967479E0,6.482616663E-1,1.849340051E-1
1.957642609E1,-1.600114346E0,8.397622705E-1,2.901524603E-1
1.958556484E1,-1.681967974E0,1.062874198E0,3.639122546E-1
1.959472911E1,-1.798792481E0,1.286444306E0,4.257605374E-1
1.960388062E1,-1.876980901E0,1.461299300E0,4.850127101E-1
1.961301937E1,-1.910730243E0,1.563921690E0,5.384618640E-1
1.962218364E1,-1.908897638E0,1.642110109E0,5.103628635E-1
1.963133515E1,-1.894084692E0,1.746106863E0,4.181249440E-1
1.964048666E1,-1.869345307E0,1.794516563E0,2.985515893E-1
1.964963817E1,-1.817728758E0,1.750688195E0,1.627907902E-1
1.965878968E1,-1.741067410E0,1.629129648E0,4.260659590E-2
1.966792843E1,-1.658450365E0,1.457176089E0,-3.863608837E-2
1.967709270E1,-1.576444030E0,1.272853017E0,-8.490777016E-2
1.968624421E1,-1.488787532E0,1.057071209E0,-1.159082651E-1
1.969538301E1,-1.423732281E0,8.214368224E-1,-1.324011385E-1
1.970454723E1,-1.408766508E0,6.331431866E-1,-8.811471611E-2
1.971369874E1,-1.413500547E0,5.242596865E-1,-3.130592033E-2
1.972283755E1,-1.410446286E0,5.158604980E-1,-9.926267900E-3
1.973200182E1,-1.403574347E0,5.599942207E-1,1.527118124E-2
1.974115333E1,-1.390593767E0,6.287145615E-1,2.809897438E-2
1.975029208E1,-1.376086116E0,7.227849960E-1,3.909422457E-2
1.975945635E1,-1.370283127E0,8.223531246E-1,5.803048983E-2
1.976860786E1,-1.329356313E0,9.297095537E-1,5.879404768E-2
1.977775937E1,-1.253611326E0,1.024238110E0,2.687728032E-2
1.978691088E1,-1.163969398E0,1.096470833E0,-2.076880634E-2
1.979606239E1,-1.058445573E0,1.098914266E0,-7.803573459E-2
1.980521390E1,-9.419264793E-1,1.050809979E0,-1.223221645E-1
1.981436541E1,-8.699992299E-1,9.924740791E-1,-1.023169160E-1
1.982351692E1,-8.507575393E-1,9.720106721E-1,-8.872556686E-2
1.983265572E1,-8.603783846E-1,9.611681700E-1,-9.483403713E-2
1.984181994E1,-8.747332692E-1,8.501466513E-1,-1.272089481E-1
1.985097145E1,-9.153546095E-1,6.473453641E-1,-1.792836636E-1
1.986012301E1,-1.005607247E0,4.873034060E-1,-2.334963679E-1
1.986927452E1,-1.124111652E0,3.953709006E-1,-2.819060087E-1
1.987842604E1,-1.208714008E0,3.087832928E-1,-3.460449576E-1
1.988756479E1,-1.199245930E0,1.688992679E-1,-4.141544402E-1
1.989672906E1,-1.070815206E0,2.596100792E-2,-4.590517282E-1
1.990588057E1,-8.843541145E-1,-3.206948051E-3,-4.735593498E-1
1.991501932E1,-7.264500856E-1,1.307213157E-1,-4.706578255E-1
1.992418359E1,-6.427640319E-1,3.539859951E-1,-4.508052766E-1
1.993333510E1,-6.006155610E-1,5.856497884E-1,-4.042281806E-1
1.994247385E1,-5.265503526E-1,8.083036542E-1,-3.219164908E-1
1.995163812E1,-3.568875194E-1,1.009119630E0,-2.122694254E-1
1.996078963E1,-1.180462316E-1,1.155570269E0,-1.575985998E-1
1.996992843E1,1.482831687E-1,1.243226886E0,-1.728697717E-1
1.997909265E1,4.633276463E-1,1.312252641E0,-2.170034945E-1
1.998824416E1,9.049702287E-1,1.369672298E0,-2.414373755E-1
1.999739572E1,1.515512109E0,1.383263588E0,-2.292204350E-1
2.000654723E1,2.228828907E0,1.352721214E0,-1.753131598E-1
2.001569874E1,2.936495543E0,1.318513751E0,-1.067455560E-1
2.002483749E1,3.565973520E0,1.260635972E0,-5.589252338E-2
2.003400176E1,4.043961525E0,9.990406632E-1,1.847812906E-2
2.004315328E1,4.302655220E0,3.912476599E-1,1.557660550E-1
2.005229202E1,4.309833050E0,-4.967715442E-1,3.323009014E-1
2.006145630E1,4.115888596E0,-1.452289343E0,5.129590034E-1
2.007060781E1,3.807716370E0,-2.227607250E0,6.670452356E-1
2.007974656E1,3.441360712E0,-2.708802223E0,7.343910933E-1
2.008891083E1,3.084167719E0,-2.801803589E0,6.788040400E-1
2.009806234E1,2.839676142E0,-2.404905558E0,5.564818382E-1
2.010720109E1,2.772483110E0,-1.722283840E0,4.327852726E-1
2.011636536E1,2.869760513E0,-1.091584086E0,3.048127890E-1
2.012551687E1,3.126163483E0,-6.778877378E-1,1.383569092E-1
2.013465567E1,3.457395554E0,-4.761554301E-1,-4.260659590E-2
2.014381994E1,3.721281528E0,-4.619532526E-1,-2.203631550E-1
2.015297145E1,3.834899187E0,-5.934380889E-1,-3.096995652E-1
2.016211020E1,3.790001869E0,-7.853968740E-1,-3.348970115E-1
2.017127447E1,3.663861752E0,-1.073258638E0,-2.452551723E-1
2.018042598E1,3.540776253E0,-1.380056620E0,-6.581879407E-2
2.018956473E1,3.445025921E0,-1.661504507E0,1.188097894E-1
2.019872900E1,3.317206144E0,-1.852699757E0,2.938175201E-1
2.020788051E1,3.167395830E0,-1.863695025E0,4.534013867E-1
2.021703202E1,3.011324167E0,-1.557355046E0,4.442386627E-1
2.022618354E1,2.936800957E0,-1.346001983E0,4.165978432E-1
2.023533505E1,2.977422237E0,-1.353637576E0,4.480564594E-1
2.024448656E1,2.980781794E0,-1.315154195E0,4.511106908E-1
2.025363807E1,2.952682972E0,-1.204285383E0,4.416425824E-1
2.026278958E1,2.925652981E0,-1.123042703E0,4.266768098E-1
2.027192838E1,2.841966867E0,-1.112505555E0,3.749074936E-1
2.028109265E1,2.678870678E0,-1.192679286E0,3.029802442E-1
2.029024416E1,2.484926701E0,-1.323400617E0,2.382304370E-1
2.029939567E1,2.312056780E0,-1.466644287E0,1.771457046E-1
2.030854718E1,2.153694630E0,-1.582857966E0,1.236965731E-1
2.031769869E1,1.991820216E0,-1.667613029E0,8.842013776E-2
2.032683744E1,1.829029441E0,-1.723352790E0,7.452336699E-2
2.033600171E1,1.648218632E0,-1.704263806E0,7.498150319E-2
2.034515322E1,1.423121452E0,-1.552926421E0,6.536065787E-2
2.035429197E1,1.135259628E0,-1.267660737E0,7.773031294E-2
2.036345624E1,8.150229454E-1,-9.064973593E-1,1.198787764E-1
2.037260775E1,5.015056133E-1,-5.431959033E-1,1.924168915E-1
2.038174650E1,2.099787444E-1,-2.342599183E-1,2.640387416E-1
2.039091078E1,-7.146912813E-2,-8.918370306E-2,3.639122546E-1
2.040006228E1,-3.252761662E-1,-9.330692142E-2,4.634803534E-1
2.040921380E1,-5.635066032E-1,-1.675248593E-1,5.491516590E-1
2.041836531E1,-7.999044657E-1,-2.363978922E-1,6.164975762E-1
2.042751682E1,-9.990406632E-1,-2.521272004E-1,6.641436815E-1
2.043666838E1,-1.145949483E0,-2.367033064E-1,6.959077120E-1
2.044581989E1,-1.345085621E0,-1.826433241E-1,7.128587365E-1
2.045497140E1,-1.682731509E0,-1.175880954E-1,7.079719901E-1
2.046411015E1,-2.122083426E0,1.130067464E-2,6.846070886E-1
2.047327442E1,-2.587090969E0,1.989834905E-1,6.476507783E-1
2.048242593E1,-2.812493563E0,3.626905680E-1,5.543438792E-1
2.049156468E1,-2.370392799E0,6.447492838E-1,3.501681983E-1
2.050072895E1,-2.024195194E0,1.221999884E0,3.759764731E-1
2.050988046E1,-2.489355326E0,1.402657986E0,5.387672782E-1
2.051901921E1,-2.738275528E0,1.546818018E0,8.189934492E-1
2.052818348E1,-2.512109280E0,2.806537628E0,1.236812949E0
2.053733499E1,-2.725295067E0,2.590450525E0,1.250709772E0
2.054647374E1,-3.131661177E0,1.334701300E0,6.722373962E-1
2.055563801E1,-3.067674875E0,1.041800022E0,1.557660550E-1
2.056478953E1,-2.469197273E0,1.196955204E0,1.336228400E-1
2.057392833E1,-1.658144832E0,7.739434838E-1,4.425588250E-1
2.058309260E1,-1.262773991E0,7.040014863E-2,6.839962006E-1
2.059224411E1,-1.650662065E0,-3.767400384E-1,6.699467301E-1
2.060138286E1,-2.368254900E0,-2.104368806E-1,4.882196784E-1
2.061054713E1,-2.672914982E0,-3.512371797E-3,2.252499312E-1
2.061969864E1,-2.425063610E0,-4.245388508E-2,-5.650337320E-3
2.062883739E1,-1.994569063E0,-6.658235192E-2,-1.595838517E-1
2.063800166E1,-1.791004181E0,3.344388679E-2,-2.693836391E-1
2.064715317E1,-1.837123156E0,1.163664013E-1,-3.142809272E-1
2.065629192E1,-1.865527511E0,1.672194302E-1,-2.510582209E-1
2.066545619E1,-1.718771458E0,2.305948436E-1,-1.198787764E-1
2.067460770E1,-1.563310862E0,2.993151546E-1,-2.901524538E-3
2.068374650E1,-1.569266558E0,4.468347728E-1,1.038440317E-1
2.069291078E1,-1.683647752E0,7.036960125E-1,2.194468826E-1
2.070206223E1,-1.801083088E0,9.648332596E-1,3.130592108E-1
2.071120104E1,-1.883700252E0,1.158471823E0,3.802524209E-1
2.072036531E1,-1.936538577E0,1.325385809E0,4.272876680E-1
2.072951682E1,-1.957001925E0,1.486191392E0,4.172086716E-1
2.073865557E1,-1.961583257E0,1.614927411E0,3.426853120E-1
2.074781984E1,-1.983573794E0,1.712052107E0,2.318165302E-1
2.075697135E1,-1.994569063E0,1.769471765E0,1.017060652E-1
2.076612286E1,-1.976396322E0,1.793753028E0,-6.261184346E-3
2.077527437E1,-1.914700747E0,1.735722542E0,-8.643488586E-2
2.078442588E1,-1.779703498E0,1.557355046E0,-1.348445266E-1
2.079356463E1,-1.598587275E0,1.279877663E0,-1.156028435E-1
2.080272890E1,-1.424190402E0,9.820896983E-1,-7.009471953E-2
2.081188041E1,-1.308282137E0,7.547017932E-1,-2.458660305E-2
2.082103192E1,-1.287207842E0,6.331431866E-1,2.932066843E-2
2.083018343E1,-1.318513751E0,5.952706337E-1,7.192726433E-2
2.083933499E1,-1.358829737E0,5.699204803E-1,7.040014863E-2
2.084847374E1,-1.401894450E0,5.787777901E-1,2.977880463E-2
2.085763801E1,-1.431520581E0,6.762079000E-1,-1.145338640E-2
2.086678952E1,-1.478403091E0,8.141067028E-1,-2.336490713E-2
2.087592828E1,-1.530630469E0,9.387195110E-1,-2.336490713E-2
2.088509255E1,-1.524522066E0,1.011563063E0,-2.702999115E-2
2.089424406E1,-1.426786542E0,1.053253412E0,-4.581354558E-2
2.090339557E1,-1.279266834E0,1.046686769E0,-7.650861889E-2
2.091254708E1,-1.164885759E0,1.033553600E0,-1.171299592E-1
2.092169859E1,-1.104106426E0,9.901834130E-1,-1.449235082E-1
2.093083734E1,-1.034775257E0,9.439117312E-1,-1.272089481E-1
2.094000161E1,-9.749122262E-1,8.753440976E-1,-1.285833418E-1
2.094915312E1,-9.839222431E-1,7.389724851E-1,-1.750077456E-1
2.095829192E1,-1.031720996E0,5.770979524E-1,-2.215848416E-1
2.096745614E1,-1.076312900E0,4.251496792E-1,-2.553341687E-1
2.097660765E1,-1.087002754E0,2.496838123E-1,-2.938175201E-1
2.098574645E1,-1.021031141E0,1.259872466E-1,-3.506263196E-1
2.099491072E1,-8.803836107E-1,9.452861547E-2,-4.234698713E-1
2.100406223E1,-7.267554998E-1,9.345962852E-2,-4.724903405E-1
2.101320098E1,-6.285618544E-1,7.605048269E-2,-4.792096615E-1
2.102236525E1,-5.899257660E-1,9.605573118E-2,-4.459185004E-1
2.103151676E1,-5.421269536E-1,1.693574041E-1,-3.918585181E-1
2.104065551E1,-4.627167881E-1,2.930539846E-1,-3.486410677E-1
2.104981978E1,-3.695625961E-1,4.837910235E-1,-3.353551328E-1
2.105897130E1,-2.834331393E-1,7.249229550E-1,-3.379512429E-1
2.106812281E1,-2.147128135E-1,9.775083065E-1,-3.559712470E-1
2.107727432E1,-1.162136942E-1,1.194511771E0,-3.634541333E-1
2.108642583E1,1.149920002E-1,1.308434844E0,-3.153499067E-1
2.109556458E1,5.497625470E-1,1.284306407E0,-1.956238300E-1
2.110472885E1,1.170536041E0,1.138161182E0,-4.337015375E-2
2.111388036E1,1.888128877E0,9.373451471E-1,7.956285775E-2
2.112301916E1,2.592283010E0,7.499676943E-1,1.275143623E-1
2.113218343E1,3.186179399E0,5.743491650E-1,1.012479365E-1
2.114133494E1,3.609496355E0,3.271087110E-1,5.741964281E-2
2.115047369E1,3.873382568E0,-1.032331884E-1,7.116370648E-2
2.115963796E1,3.993413925E0,-7.409577370E-1,1.360662282E-1
2.116878947E1,3.962871552E0,-1.447402596E0,2.425063550E-1
2.117792822E1,3.777784824E0,-2.055195570E0,3.906368315E-1
2.118709249E1,3.443498611E0,-2.383526087E0,5.332696438E-1
2.119624400E1,3.057595968E0,-2.325648308E0,5.787777901E-1
2.120538275E1,2.736443043E0,-1.874995708E0,5.340332389E-1
2.121454702E1,2.585411072E0,-1.214364409E0,4.738647640E-1
2.122369854E1,2.616564274E0,-6.691831946E-1,4.199574888E-1
2.123283729E1,2.820587158E0,-4.836383164E-1,3.028275371E-1
2.124200156E1,3.164188862E0,-5.897729993E-1,1.527118087E-1
2.125115307E1,3.526726723E0,-8.945857882E-1,4.367557913E-2
2.126029187E1,3.815962791E0,-1.200620294E0,-7.375980914E-2
2.126945614E1,3.995704651E0,-1.486802220E0,-1.540862173E-1
2.127860765E1,4.054804325E0,-1.787797213E0,-9.422318637E-2
2.128774640E1,4.007616043E0,-2.020529985E0,6.139015034E-2
2.129691067E1,3.859027624E0,-2.164842606E0,2.166980654E-1
2.130606218E1,3.663403749E0,-2.343668222E0,3.303156495E-1
2.131520093E1,3.468543530E0,-2.178281307E0,3.245126009E-1
2.132436520E1,3.333546162E0,-1.996248841E0,2.354816198E-1
2.133351671E1,3.281929493E0,-1.884158373E0,2.515163720E-1
2.134265546E1,3.200381517E0,-1.546665311E0,2.941229641E-1
2.135181973E1,3.104936600E0,-1.052795291E0,2.893888950E-1
2.136097124E1,2.992846251E0,-7.000309825E-1,2.528907657E-1
2.137012275E1,2.830666304E0,-5.913001299E-1,2.082989216E-1
2.137927426E1,2.606485367E0,-6.050441861E-1,1.688992679E-1
2.138842578E1,2.402309656E0,-6.923953891E-1,1.198787764E-1
2.139757728E1,2.267770529E0,-8.634325862E-1,5.558710173E-2
2.140672880E1,2.185916901E0,-1.067455530E0,-5.344913341E-3
2.141588036E1,2.114600420E0,-1.262926698E0,-4.596625641E-2
2.142501911E1,2.003120899E0,-1.399451017E0,-7.605048269E-2
2.143418338E1,1.822462797E0,-1.451678514E0,-1.078145429E-1
2.144333489E1,1.568197608E0,-1.417776465E0,-1.334701329E-1
2.145247364E1,1.280183196E0,-1.316528559E0,-1.514901221E-1
2.146163791E1,1.006523609E0,-1.170536041E0,-1.467560530E-1
2.147078942E1,7.469134927E-1,-9.677347541E-1,-1.127013192E-1
2.147994093E1,5.089884996E-1,-7.304205894E-1,-4.550812021E-2
2.148909244E1,2.857238054E-1,-5.459447503E-1,5.299099907E-2
2.149824395E1,3.894151375E-2,-4.295783341E-1,1.664558798E-1
2.150738270E1,-2.312056869E-1,-3.055763543E-1,2.451024652E-1
2.151654697E1,-5.308262706E-1,-2.038702667E-1,3.307738006E-1
2.152569848E1,-8.211314082E-1,-1.684411317E-1,4.204156399E-1
2.153484999E1,-1.054322362E0,-2.064663768E-1,4.969242513E-1
2.154400150E1,-1.203827262E0,-2.619007528E-1,5.661026835E-1
2.155315301E1,-1.298966646E0,-3.329117596E-1,6.247440577E-1
2.156230453E1,-1.438392639E0,-4.028537571E-1,6.568135023E-1
2.157145609E1,-1.727170587E0,-4.204156399E-1,6.468872428E-1
2.158060755E1,-2.025722265E0,-3.633013964E-1,5.610632300E-1
2.158974635E1,-1.881714940E0,-1.550024897E-1,3.115321100E-1
2.159891062E1,-1.646386027E0,2.739650011E-1,1.589729935E-1
2.160806213E1,-2.412083149E0,8.745805621E-1,2.777827978E-1
2.161720088E1,-3.294299364E0,1.992889196E-1,4.191939235E-1
2.162636515E1,-3.129065037E0,7.492041588E-1,7.246175408E-1
2.163551666E1,-2.135980129E0,3.474804640E0,9.585720897E-1
2.164465541E1,-1.532004952E0,3.282540560E0,9.733850956E-1
2.165381968E1,-2.084516287E0,1.300035715E0,7.652388811E-1
2.166297119E1,-2.950697660E0,1.416096687E0,4.395045936E-1
2.167210994E1,-3.048127890E0,2.208671093E0,3.839175105E-1
2.168127421E1,-2.453620672E0,1.908744931E0,4.909684956E-1
2.169042572E1,-1.832236409E0,1.130067468E0,5.056288242E-1
2.169956453E1,-1.549566746E0,4.347705245E-1,4.239279926E-1
2.170872874E1,-1.670667291E0,1.533226669E-1,3.255815804E-1
2.171788025E1,-1.996401548E0,2.279987335E-1,2.420482337E-1
2.172703182E1,-2.135369301E0,2.273878902E-1,1.782146841E-1
2.173618328E1,-2.031219959E0,1.003316641E-1,1.508792788E-1
2.174533484E1,-1.880340576E0,2.718270384E-2,1.708845198E-1
2.175447359E1,-1.832541823E0,4.367557913E-2,2.171562016E-1
2.176363786E1,-1.846591234E0,8.353336155E-2,2.402156889E-1
2.177278937E1,-1.817576051E0,2.932066843E-2,2.281514555E-1
2.178192812E1,-1.720451355E0,-6.780404598E-2,1.940967143E-1
2.179109239E1,-1.648371339E0,-5.329642445E-2,1.670667231E-1
2.180024390E1,-1.634016395E0,1.053711493E-2,1.543916464E-1
2.180938265E1,-1.610040665E0,7.864658535E-2,1.441599578E-1
2.181854692E1,-1.572320819E0,1.498102844E-1,1.272089481E-1
2.182769843E1,-1.567434072E0,2.877090573E-1,1.119377613E-1
2.183683718E1,-1.602252364E0,4.727957845E-1,1.316375881E-1
2.184600145E1,-1.691436052E0,6.951441765E-1,1.705790907E-1
2.185515296E1,-1.821241140E0,1.001178622E0,1.988307834E-1
2.186430447E1,-1.947533727E0,1.352263093E0,2.037175596E-1
2.187345598E1,-2.025416851E0,1.589424610E0,1.748550236E-1
2.188260755E1,-2.039618969E0,1.681509733E0,1.435490996E-1
2.189174630E1,-1.990140319E0,1.669598222E0,1.458397806E-1
2.190091057E1,-1.874537468E0,1.548192382E0,1.766875684E-1
2.191006208E1,-1.710677743E0,1.258650780E0,1.937913001E-1
2.191920083E1,-1.547276139E0,9.045121074E-1,1.983726472E-1
2.192836510E1,-1.438087106E0,6.256603003E-1,1.919587553E-1
2.193751661E1,-1.431673288E0,4.563029110E-1,1.847812980E-1
2.194666812E1,-1.513221383E0,3.483356535E-1,1.678302884E-1
2.195581963E1,-1.610498786E0,2.799207568E-1,1.336228400E-1
2.196497114E1,-1.657228589E0,2.857238054E-1,7.895200700E-2
2.197410989E1,-1.633558273E0,3.571929336E-1,1.542389300E-2
2.198327416E1,-1.572931647E0,4.144598544E-1,-1.221694518E-2
2.199242567E1,-1.494743228E0,4.230117202E-1,-2.076880634E-2
2.200156447E1,-1.393800735E0,3.935383558E-1,-3.466558084E-2
2.201072869E1,-1.294690728E0,4.033119082E-1,-4.260659590E-2
2.201988020E1,-1.235133171E0,4.860817194E-1,-2.687728032E-2
2.202903176E1,-1.212989926E0,6.186355352E-1,1.221694518E-3
2.203818328E1,-1.183058381E0,7.301151752E-1,-2.122694254E-2
2.204733478E1,-1.114948988E0,7.939487100E-1,-5.558710173E-2
2.205647354E1,-1.035996914E0,7.976137996E-1,-9.605573118E-2
2.206563781E1,-1.003927469E0,7.534800768E-1,-1.464506239E-1
2.207478932E1,-1.038593054E0,7.188144922E-1,-2.003578991E-1
2.208394083E1,-1.099066973E0,7.661551833E-1,-2.539597452E-1
2.209309234E1,-1.118614078E0,8.321266770E-1,-3.084778786E-1
2.210224385E1,-1.057682037E0,7.116370797E-1,-3.336753249E-1
2.211138260E1,-9.237537384E-1,4.781406820E-1,-3.147390485E-1
2.212054687E1,-7.684458494E-1,3.452814221E-1,-3.008422852E-1
2.212969838E1,-6.444438696E-1,3.323009014E-1,-3.029802442E-1
2.213884989E1,-5.879405141E-1,3.617742956E-1,-3.177932799E-1
2.214800140E1,-6.108472347E-1,3.855973184E-1,-3.613161445E-1
2.215715291E1,-6.699467301E-1,4.051444530E-1,-4.191939235E-1
2.216629171E1,-6.694886088E-1,4.430169761E-1,-4.619532526E-1
2.217545598E1,-5.557183027E-1,4.836383164E-1,-4.660764635E-1
2.218460749E1,-3.177932799E-1,5.305208564E-1,-4.295783341E-1
2.219374624E1,-9.315420873E-3,6.143596172E-1,-3.720059693E-1
2.220291051E1,2.915268540E-1,7.330167294E-1,-3.399364948E-1
2.221206202E1,5.493044257E-1,8.480086923E-1,-3.254288733E-1
2.222120078E1,8.257128000E-1,9.318475127E-1,-2.728960216E-1
2.223036505E1,1.205659747E0,9.883508682E-1,-1.650814712E-1
2.223951656E1,1.714800954E0,1.013090134E0,-5.360184610E-2
2.224866807E1,2.311598778E0,1.028055906E0,8.093725890E-3
2.225781958E1,2.933441162E0,1.059819937E0,-7.635590620E-3
2.226697109E1,3.509317398E0,1.037676811E0,-4.214845970E-2
2.227610984E1,3.987305403E0,8.131904006E-1,-3.726168349E-2
2.228527411E1,4.269669533E0,2.887780368E-1,5.344913341E-3
2.229442562E1,4.314872265E0,-4.915793240E-1,1.137702987E-1
2.230356442E1,4.164603710E0,-1.333784938E0,2.658712566E-1
2.231272869E1,3.876742125E0,-1.970593214E0,4.278984964E-1
2.232188020E1,3.510539293E0,-2.241656780E0,5.708367825E-1
2.233101895E1,3.118375301E0,-2.038397312E0,6.400152445E-1
2.234018322E1,2.799360275E0,-1.443126678E0,6.239804626E-1
2.234933473E1,2.655047655E0,-8.229639530E-1,5.100574493E-1
2.235847348E1,2.789128542E0,-4.257605374E-1,3.269560039E-1
2.236763775E1,3.148917675E0,-3.078670204E-1,1.273616552E-1
2.237678926E1,3.544594049E0,-4.434750974E-1,-3.100049868E-2
2.238592801E1,3.819628000E0,-6.694886088E-1,-1.608055383E-1
2.239509228E1,3.915378332E0,-9.384140968E-1,-2.472404242E-1
2.240424380E1,3.827569008E0,-1.200467587E0,-2.012741715E-1
2.241338255E1,3.644620180E0,-1.511083364E0,-2.336490713E-2
2.242254682E1,3.487327099E0,-1.860640764E0,1.754658818E-1
2.243169833E1,3.415705204E0,-2.127275467E0,3.032856584E-1
2.244084984E1,3.419217587E0,-2.228523493E0,2.961082160E-1
2.245000135E1,3.432350636E0,-2.115822077E0,2.961082160E-1
2.245915286E1,3.417690516E0,-1.859571815E0,3.147390485E-1
2.246829166E1,3.370044231E0,-1.634932637E0,2.904578745E-1
2.247745593E1,3.258106470E0,-1.347987175E0,2.449497581E-1
2.248660744E1,3.081266403E0,-1.053253412E0,1.743968874E-1
2.249574619E1,2.861666679E0,-8.470924497E-1,1.012479365E-1
2.250491046E1,2.648328304E0,-8.092198968E-1,4.596625641E-2
2.251406197E1,2.506917238E0,-9.197832346E-1,1.878355257E-2
2.252321348E1,2.431172132E0,-1.132052660E0,7.330167107E-3
2.253236499E1,2.367796659E0,-1.340046167E0,-7.482878864E-3
2.254151650E1,2.273267984E0,-1.444501042E0,-2.275406010E-2
2.255065525E1,2.123763323E0,-1.476265073E0,-4.092676565E-2
2.255981952E1,1.929361105E0,-1.433811188E0,-6.490252167E-2
2.256897104E1,1.712663054E0,-1.310878277E0,-1.032331884E-1
2.257810979E1,1.506349325E0,-1.113574505E0,-1.285833418E-1
2.258727406E1,1.291025639E0,-8.837432861E-1,-1.156028435E-1
2.259642557E1,1.035538793E0,-6.607840061E-1,-4.428642616E-2
2.260556437E1,7.556180358E-1,-4.724903405E-1,4.886778072E-3
2.261472859E1,4.746283293E-1,-3.689517379E-1,6.627693027E-2
2.262388010E1,2.199050188E-1,-3.239017725E-1,1.487413049E-1
2.263303166E1,-1.374406274E-3,-2.907632887E-1,2.264716178E-1
2.264218317E1,-1.948602796E-1,-2.499892414E-1,2.906105816E-1
2.265133468E1,-3.555130959E-1,-2.356343269E-1,3.290939629E-1
2.266048619E1,-4.958552718E-1,-2.706053257E-1,3.567348123E-1
2.266963770E1,-6.123743653E-1,-3.364241421E-1,3.738385141E-1
2.267878921E1,-6.991146803E-1,-3.707842827E-1,3.903313875E-1
2.268792796E1,-8.002098799E-1,-3.040492237E-1,4.095730782E-1
2.269709223E1,-9.791881442E-1,-1.589729935E-1,4.381301999E-1
2.270624374E1,-1.233605981E0,-4.718795046E-2,4.692834020E-1
2.271539525E1,-1.505738497E0,-4.077405483E-2,5.071559548E-1
2.272454676E1,-1.776496530E0,-1.032331884E-1,5.509842038E-1
2.273369828E1,-2.072910070E0,-1.324011385E-1,5.873296261E-1
2.274283708E1,-2.323204756E0,-7.314895838E-2,6.033644080E-1
2.275200130E1,-2.233868361E0,1.600419879E-1,5.700731874E-1
2.276115286E1,-1.414416790E0,5.363239050E-1,4.651601911E-1
2.277029161E1,-8.874083757E-1,6.197045445E-1,4.468347728E-1
2.277945588E1,-1.862931371E0,2.338017821E-1,4.657710493E-1
2.278860739E1,-2.543262482E0,3.894151375E-2,5.558710098E-1
2.279774614E1,-2.146364450E0,2.364284277E0,8.025006056E-1
2.280691041E1,-1.741830945E0,3.316289663E0,7.905890942E-1
2.281606192E1,-1.902025700E0,1.841704488E0,3.544441164E-1
2.282520067E1,-2.334047318E0,1.527423620E0,-1.466033421E-2
2.283436494E1,-2.592893839E0,2.251124859E0,5.741964281E-2
2.284351645E1,-2.485079288E0,2.448886633E0,3.897205591E-1
2.285265520E1,-2.261051178E0,1.950587988E0,6.424586177E-1
2.286181947E1,-2.202867985E0,1.205507040E0,6.936170459E-1
2.287097098E1,-2.332520247E0,6.930062175E-1,6.600204706E-1
2.288010979E1,-2.524020910E0,4.320217371E-1,5.722111464E-1
2.288927400E1,-2.475916624E0,1.960819662E-1,4.633276463E-1
2.289842551E1,-2.097802162E0,-2.350234836E-1,2.538070381E-1
2.290756432E1,-1.657992125E0,-6.401679516E-1,3.985778242E-2
2.291672854E1,-1.428466320E0,-8.771766424E-1,2.275406010E-2
2.292588010E1,-1.428466320E0,-8.379297256E-1,7.284353673E-2
2.293501885E1,-1.505738497E0,-6.781931520E-1,1.026223376E-1
2.294418312E1,-1.569877505E0,-5.421269536E-1,1.027750522E-1
2.295333463E1,-1.659366608E0,-3.365768492E-1,1.348445266E-1
2.296247338E1,-1.778023601E0,-5.268557742E-2,1.997470558E-1
2.297163765E1,-1.864763975E0,1.980672181E-1,2.405211031E-1
2.298078916E1,-1.883547544E0,3.588727713E-1,2.556395829E-1
2.298994067E1,-1.888434291E0,5.063923597E-1,2.408265322E-1
2.299909218E1,-1.898666024E0,6.966713071E-1,1.983726472E-1
2.300824369E1,-1.890114188E0,8.701519370E-1,1.537808031E-1
2.301739520E1,-1.879577041E0,1.007897973E0,1.287360638E-1
2.302654671E1,-1.885685444E0,1.156792045E0,1.120904684E-1
2.303569822E1,-1.872399569E0,1.325538516E0,1.035386100E-1
2.304484973E1,-1.813910961E0,1.423732281E0,8.185353130E-2
2.305400124E1,-1.738929391E0,1.380362034E0,6.291726977E-2
2.306315275E1,-1.651272893E0,1.293774486E0,6.536065787E-2
2.307229156E1,-1.543611050E0,1.239103675E0,7.589777559E-2
2.308145583E1,-1.422205091E0,1.115101695E0,7.803573459E-2
2.309060734E1,-1.319735527E0,9.634588361E-1,6.551336497E-2
2.309975885E1,-1.250709772E0,8.828269839E-1,7.711946964E-2
2.310891036E1,-1.240019917E0,8.377770185E-1,1.131594554E-1
2.311806187E1,-1.301410079E0,8.070819378E-1,1.348445266E-1
2.312721338E1,-1.371046662E0,8.124268651E-1,1.250709742E-1
2.313636489E1,-1.395938754E0,8.470924497E-1,9.376505762E-2
2.314551640E1,-1.384332657E0,8.758022785E-1,4.199574888E-2
2.315466791E1,-1.375017166E0,8.263236284E-1,4.275931045E-3
2.316381942E1,-1.371199369E0,8.081509471E-1,-9.773556143E-3
2.317297093E1,-1.355164647E0,8.974873424E-1,-2.137965336E-2
2.318210968E1,-1.297592282E0,9.335273504E-1,-3.924693540E-2
2.319127395E1,-1.168856263E0,7.438592315E-1,-5.955760926E-2
2.320042546E1,-1.012021184E0,4.518742561E-1,-6.383354217E-2
2.320957697E1,-9.118422270E-1,2.706053257E-1,-6.841489673E-2
2.321872848E1,-8.956547976E-1,2.073826492E-1,-8.597674966E-2
2.322787999E1,-9.315420985E-1,1.397313178E-1,-1.058292910E-1
2.323703150E1,-9.564340711E-1,-2.137965336E-2,-1.388150454E-1
2.324618307E1,-9.358180165E-1,-1.937913001E-1,-1.440072358E-1
2.325533458E1,-8.635852933E-1,-3.370349705E-1,-1.525591016E-1
2.326448609E1,-7.800519466E-1,-4.315635860E-1,-1.605001241E-1
2.327363760E1,-7.264500856E-1,-3.626905680E-1,-1.589729935E-1
2.328278911E1,-7.087355256E-1,-1.994416267E-1,-1.545443535E-1
2.329194062E1,-7.015580535E-1,-1.139230132E-1,-1.673721522E-1
2.330109213E1,-7.059867382E-1,-2.000524849E-2,-1.846285909E-1
2.331024364E1,-7.090409398E-1,1.168245375E-1,-1.969982386E-1
2.331939515E1,-7.186617851E-1,2.457133085E-1,-1.910424829E-1
2.332854666E1,-7.690566778E-1,2.932066917E-1,-1.925695986E-1
2.333769817E1,-8.444963098E-1,3.370349705E-1,-2.139492482E-1
2.334683692E1,-8.640434742E-1,3.828485310E-1,-2.195995897E-1
2.335600119E1,-7.957812548E-1,3.811686933E-1,-1.959292591E-1
2.336515270E1,-6.862868667E-1,4.001049399E-1,-1.682884246E-1
2.337430421E1,-6.120689511E-1,5.099047422E-1,-1.586675793E-1
2.338345572E1,-6.384881139E-1,7.870767117E-1,-1.988307834E-1
2.339260728E1,-7.322531343E-1,1.116170645E0,-2.730487287E-1
2.340174604E1,-8.379297256E-1,1.315765023E0,-3.507790267E-1
2.341091031E1,-9.443698525E-1,1.381125689E0,-4.077405334E-1
2.342006182E1,-9.724688530E-1,1.342642307E0,-3.701734245E-1
2.342921333E1,-8.415948153E-1,1.329967141E0,-2.446443290E-1
2.343836484E1,-6.587987542E-1,1.462062955E0,-1.462979168E-1
2.344751635E1,-4.680617154E-1,1.551704764E0,-1.041494608E-1
2.345666786E1,-2.096733153E-1,1.388303161E0,-9.422318637E-2
2.346581937E1,1.249182671E-1,1.050046444E0,-9.529217333E-2
2.347497088E1,4.761554301E-1,7.276718020E-1,-1.102579311E-1
2.348410963E1,7.847860456E-1,4.850127101E-1,-1.617218107E-1
2.349327390E1,1.045159698E0,2.767138183E-1,-2.310529798E-1
2.350242541E1,1.290567517E0,8.948912472E-2,-2.909159958E-1
2.351156416E1,1.548803210E0,-3.420744836E-2,-3.147390485E-1
2.352072843E1,1.833305359E0,-7.299624383E-2,-3.138227761E-1
2.352987994E1,2.112309933E0,-5.803048983E-2,-2.922904193E-1
2.353901874E1,2.319692373E0,-4.367557913E-2,-2.414373755E-1
2.354818301E1,2.414984703E0,-1.148392856E-1,-1.559187621E-1
2.355733452E1,2.410403252E0,-3.571929336E-1,-2.443389036E-2
2.356648604E1,2.349165916E0,-7.522584200E-1,1.006370857E-1
2.357563755E1,2.266854286E0,-1.171452284E0,1.821851879E-1
2.358478906E1,2.180877447E0,-1.414416790E0,1.847812980E-1
2.359392781E1,2.088944912E0,-1.364938259E0,8.826743066E-2
2.360309208E1,2.011672735E0,-1.065470338E0,-4.321744293E-2
2.361224359E1,1.972120404E0,-6.476507783E-1,-1.537808031E-1
2.362138234E1,1.983573794E0,-3.326063454E-1,-1.873773932E-1
2.363054661E1,1.992736459E0,-2.470877171E-1,-1.812689304E-1
2.363969812E1,1.941272616E0,-3.274141252E-1,-2.163926363E-1
2.364883687E1,1.828113079E0,-4.819584787E-1,-2.525853515E-1
2.365800114E1,1.699682474E0,-6.021426916E-1,-2.722851634E-1
2.366715265E1,1.614316583E0,-6.306998134E-1,-2.692309320E-1
2.367629145E1,1.620883226E0,-6.383354068E-1,-2.258607745E-1
2.368545567E1,1.639514089E0,-6.215370893E-1,-1.383569092E-1
2.369460723E1,1.539182425E0,-6.076403260E-1,-4.199574888E-2
2.370375869E1,1.289193153E0,-6.632274389E-1,8.246437646E-3
2.371291025E1,9.674293399E-1,-7.921161652E-1,2.901524538E-3
2.372206176E1,6.424586177E-1,-9.150491953E-1,-1.145338640E-2
2.373121328E1,3.892624080E-1,-9.275715351E-1,-2.061609551E-2
2.374036478E1,2.309002578E-1,-7.808154821E-1,-3.100049868E-2
2.374951630E1,1.420219839E-1,-5.693096519E-1,-2.809897438E-2
2.375866781E1,1.027750522E-1,-3.892624080E-1,-1.145338640E-2
2.376781932E1,8.429691941E-2,-3.179459870E-1,6.108472589E-3
2.377697083E1,5.650337040E-2,-3.252761662E-1,1.695101149E-2
2.378612234E1,-1.053711493E-2,-3.547495604E-1,2.870982140E-2
2.379527385E1,-1.108687744E-1,-3.755183518E-1,4.199574888E-2
2.380442536E1,-2.290677279E-1,-3.923166394E-1,6.749862432E-2
2.381357687E1,-3.454341292E-1,-4.364503622E-1,1.052184403E-1
2.382272838E1,-4.312581718E-1,-5.080721974E-1,1.650814712E-1
2.383187989E1,-4.735593498E-1,-6.374191046E-1,2.473931462E-1
2.384103140E1,-4.999784827E-1,-8.215895891E-1,3.321481943E-1
2.385018291E1,-5.512896776E-1,-9.865183234E-1,4.106420577E-1
2.385933442E1,-6.361974478E-1,-1.097234368E0,4.663818777E-1
2.386847322E1,-7.501204610E-1,-1.131747246E0,5.002838969E-1
2.387763749E1,-8.915315866E-1,-1.048672080E0,5.244123936E-1
2.388678900E1,-1.019656777E0,-8.541171551E-1,5.280774832E-1
2.389592775E1,-1.089751482E0,-6.650599241E-1,5.244123936E-1
2.390509203E1,-1.129762053E0,-5.247178078E-1,5.106683373E-1
2.391424354E1,-1.174659252E0,-3.888042867E-1,4.717268050E-1
2.392338229E1,-1.206575990E0,-2.244863659E-1,4.121691883E-1
2.393254656E1,-1.210241079E0,-4.642439261E-2,3.382566571E-1
2.394169807E1,-1.205048919E0,7.437065244E-2,2.812951505E-1
2.395084958E1,-1.183974743E0,1.472141892E-1,2.509055138E-1
2.396000109E1,-1.123806238E0,3.239017725E-1,2.341072112E-1
2.396915260E1,-1.047450304E0,6.126797795E-1,2.350234836E-1
2.397830411E1,-1.004691005E0,8.574768305E-1,2.651077211E-1
2.398745562E1,-1.002705812E0,1.031262875E0,3.028275371E-1
2.399660713E1,-9.613208771E-1,1.147629261E0,3.139754832E-1
2.400574593E1,-9.236010313E-1,1.213906169E0,2.941229641E-1
2.401491020E1,-9.510892034E-1,1.216655016E0,2.310529798E-1
2.402406171E1,-1.085475564E0,1.335922956E0,1.597365588E-1
2.403320046E1,-1.294690728E0,1.581941724E0,1.220167428E-1
2.404236473E1,-1.532768488E0,1.829182148E0,9.086353332E-2
2.405151624E1,-1.746106863E0,1.863542318E0,2.641914412E-2
2.406065499E1,-1.851478100E0,1.538877010E0,-3.206948191E-2
2.406981926E1,-1.778481841E0,9.597937465E-1,-5.864133686E-2
2.407897078E1,-1.565907001E0,4.028537571E-1,-3.359659761E-2
2.408812228E1,-1.304922462E0,7.269082218E-2,3.023693897E-2
2.409727380E1,-1.064401388E0,2.443389036E-2,5.879404768E-2
2.410642531E1,-8.651124239E-1,1.710372269E-1,3.817795217E-2
2.411556406E1,-7.357655168E-1,4.025483429E-1,-7.635590737E-4
2.412472833E1,-6.858287454E-1,5.622848868E-1,-2.550287358E-2
2.413387984E1,-6.806365848E-1,5.212054253E-1,-3.161134571E-2
2.414303135E1,-6.537593007E-1,3.423798978E-1,-2.214321308E-2
2.415218286E1,-5.213581324E-1,2.171562016E-1,-1.496575773E-2
2.416133437E1,-3.101576865E-1,1.777565479E-1,-1.786728203E-2
2.417048588E1,-1.374406368E-1,1.527118087E-1,-1.588202827E-2
2.417963744E1,-7.482878864E-2,1.017060652E-1,6.566607859E-3
2.418878895E1,-9.880454093E-2,7.528692484E-2,4.245388508E-2
2.419794046E1,-1.320957243E-1,1.284306347E-1,7.574506104E-2
2.420709197E1,-1.140757278E-1,1.881409585E-1,9.712471068E-2
2.421624348E1,-2.748812735E-2,1.473668963E-1,9.910997003E-2
2.422539499E1,5.803048983E-2,2.993151546E-2,9.177979827E-2
2.423454650E1,7.223268598E-2,-1.171299592E-1,7.864658535E-2
2.424369801E1,1.145338640E-2,-2.034121305E-1,6.352811307E-2
2.425284953E1,-6.948387623E-2,-1.716480851E-1,5.573981255E-2
2.426200104E1,-1.319430023E-1,-7.055285573E-2,4.413371533E-2
2.427115255E1,-1.582094431E-1,3.710897267E-2,2.916795574E-2
2.428030406E1,-1.449235082E-1,8.475505561E-2,1.404948719E-2
2.428945557E1,-1.218640283E-1,5.940489471E-2,-4.734066315E-3
2.429860708E1,-1.285833418E-1,5.650337320E-3,-2.672456764E-2
2.430775859E1,-1.701209545E-1,-4.321744293E-2,-3.497100621E-2
2.431691010E1,-2.200577259E-1,-5.589252338E-2,-2.428117767E-2
2.432606161E1,-2.417428046E-1,-4.260659590E-2,-7.330167107E-3
2.433521312E1,-2.186833173E-1,2.596100792E-3,1.527118147E-4
2.434436468E1,-1.598892659E-1,3.710897267E-2,2.290677279E-3
2.435351619E1,-9.071081877E-2,1.969982497E-2,5.344913341E-3
2.436266765E1,-5.421269313E-2,6.108472589E-4,1.404948719E-2
2.437181921E1,-5.146388337E-2,-2.901524492E-2,2.092151903E-2
2.438097072E1,-5.176930502E-2,-7.834116369E-2,3.008422814E-2
2.439012223E1,-4.123219103E-2,-9.513945878E-2,3.802524135E-2
2.439927374E1,-2.107422985E-2,-7.162184268E-2,3.817795217E-2
2.440842525E1,-2.855710872E-2,-4.520269856E-2,2.535016090E-2
2.441757676E1,-6.184828654E-2,-4.230117425E-2,9.162709117E-3
2.442672828E1,-7.895200700E-2,-5.436540768E-2,-3.665083554E-3
2.443587978E1,-6.810946763E-2,-9.361234307E-2,-1.160609815E-2
2.444503130E1,-4.657710344E-2,-1.490467340E-1,-1.695101149E-2
2.445418281E1,-3.084778599E-2,-1.899735034E-1,-2.168507688E-2
2.446333432E1,-2.199050039E-2,-2.087570578E-1,-3.069507517E-2
2.447248583E1,-2.596100792E-2,-2.322746664E-1,-3.924693540E-2
2.448163734E1,-4.337015375E-2,-2.889307439E-1,-4.245388508E-2
2.449078885E1,-5.619794875E-2,-3.112266660E-1,-4.428642616E-2
2.449994036E1,-6.200099736E-2,-2.799207568E-1,-4.734066129E-2
2.450909187E1,-6.093201414E-2,-2.527380586E-1,-4.672981426E-2
2.451824338E1,-5.314370990E-2,-2.341072112E-1,-4.001049697E-2
2.452739494E1,-4.672981426E-2,-1.882936656E-1,-3.206948191E-2
2.453654645E1,-3.802524135E-2,-1.484358907E-1,-2.840439789E-2
2.454569796E1,-2.504473738E-2,-1.435490996E-1,-2.031067200E-2
2.455484947E1,-2.687728032E-2,-1.513374150E-1,-9.926267900E-3
2.456400098E1,-3.344388679E-2,-1.151447073E-1,-1.527118147E-3
2.457315249E1,-3.130592033E-2,-6.810946763E-2,2.137965523E-3
2.458230400E1,-1.801999472E-2,-4.459185153E-2,3.054236295E-4
2.459145551E1,-8.246437646E-3,-3.390202299E-2,-8.704573847E-3
2.460060703E1,-1.221694518E-3,-5.253286287E-2,-1.664558798E-2
2.460975854E1,5.955760833E-3,-9.895725548E-2,-1.954711229E-2
2.461891005E1,6.719320081E-3,-1.120904684E-1,-1.343864016E-2
2.462806156E1,-4.581354442E-4,-8.567132801E-2,-1.374406274E-3
2.463721307E1,-1.740914769E-2,-4.703523964E-2,5.192201585E-3
2.464636458E1,-2.626643144E-2,-1.695101149E-2,3.054236295E-4
2.465551609E1,-1.511846948E-2,-1.084253844E-2,-3.359660041E-3
2.466466760E1,9.009997360E-3,-3.680354729E-2,-3.817795310E-3
2.467381911E1,1.695101149E-2,-8.322793990E-2,-3.054236295E-3
2.468297062E1,1.832541777E-3,-1.217113137E-1,-4.886778072E-3
2.469212213E1,1.679830020E-3,-1.067455560E-1,-5.497625098E-3
2.470127364E1,2.122694254E-2,-9.040539712E-2,-7.330167107E-3
2.471042520E1,3.649812192E-2,-1.374406368E-1,-1.267508045E-2
2.471957671E1,3.878879920E-2,-1.898207814E-1,-1.985253580E-2
2.472872822E1,3.069507517E-2,-1.754658818E-1,-2.305948362E-2
2.473787973E1,1.298050396E-2,-1.320957243E-1,-2.321219631E-2
2.474703124E1,2.290677279E-3,-1.024696305E-1,-2.076880634E-2
2.475618275E1,1.618745178E-2,-7.589777559E-2,-1.404948719E-2
2.476533426E1,3.802524135E-2,-4.520269856E-2,-7.788302377E-3
2.477448578E1,4.596625641E-2,-3.130592033E-2,-1.068982761E-3
2.478363728E1,3.680354729E-2,-3.191677108E-2,6.872031838E-3
2.479278880E1,2.336490713E-2,7.941014133E-3,9.162709117E-3
2.480194031E1,1.878355257E-2,4.825693369E-2,6.719320081E-3
2.481109182E1,2.290677279E-2,6.154286116E-2,6.108472589E-3
2.482024333E1,2.718270384E-2,6.276455522E-2,6.719320081E-3
2.482939484E1,1.740914769E-2,5.360184610E-2,8.399149403E-3
2.483854635E1,3.359660041E-3,4.520269856E-2,7.177455351E-3
2.484769786E1,-3.970507067E-3,3.863608837E-2,8.399149403E-3
2.485684937E1,2.901524538E-3,2.657185495E-2,1.328592747E-2
2.486600088E1,1.527118124E-2,1.634016447E-2,1.099525020E-2
2.487515239E1,2.626643144E-2,3.329117596E-2,9.773556143E-3
2.488430395E1,4.031591862E-2,4.046862945E-2,1.359135192E-2
2.489345541E1,4.581354558E-2,3.680354729E-2,1.969982497E-2
2.490260697E1,3.603998944E-2,4.230117425E-2,2.260134928E-2
2.491175848E1,2.046338283E-2,5.192201585E-2,2.382304333E-2
2.492090999E1,9.315420873E-3,5.604523420E-2,2.305948362E-2
2.493006150E1,1.236965694E-2,5.971032009E-2,2.305948362E-2
2.493921301E1,1.481304597E-2,6.154286116E-2,2.061609551E-2
2.494836453E1,1.679829881E-2,5.482354015E-2,1.771457121E-2
2.495751604E1,1.496575773E-2,4.764608666E-2,1.343864016E-2
2.496666755E1,1.206423342E-2,3.985778242E-2,9.009997360E-3
2.497581906E1,7.941014133E-3,2.000524849E-2,6.566607859E-3
2.498497057E1,1.420219894E-2,7.788302377E-3,3.054236295E-3
2.499412208E1,2.702999115E-2,1.634016447E-2,6.108472589E-4
2.500327359E1,3.878879920E-2,8.551862091E-3,-2.290677279E-3
2.501242510E1,3.726168349E-2,-2.229592577E-2,-4.581354442E-4
2.502157661E1,2.260134928E-2,-3.313846514E-2,1.832541777E-3
2.503072812E1,5.192201585E-3,-1.328592747E-2,3.512371797E-3
2.503987963E1,-6.108472589E-4,-6.108472589E-4,6.566607859E-3
2.504903114E1,6.719320081E-3,7.788302377E-3,7.177455351E-3
2.505818265E1,1.771457121E-2,2.107422985E-2,4.275931045E-3
2.506733416E1,2.015795931E-2,2.764083818E-2,1.221694518E-3
2.507648572E1,2.504473738E-2,2.535016090E-2,4.275931045E-3
2.508563718E1,2.932066843E-2,2.779355086E-2,8.551862091E-3
2.509478874E1,1.710372418E-2,2.535016090E-2,9.162709117E-3
2.510394025E1,-2.596100792E-3,1.023169141E-2,9.009997360E-3
2.511309176E1,-5.039489828E-3,1.023169141E-2,5.955760833E-3
2.512224328E1,2.443389036E-3,1.389677543E-2,4.123218823E-3
2.513139478E1,4.886778072E-3,1.084253844E-2,1.068982761E-3
2.514054630E1,5.039489828E-3,4.734066315E-3,-3.206948051E-3
2.514969781E1,5.039489828E-3,-3.665083554E-3,-4.428642802E-3
2.515884932E1,9.468132630E-3,-1.023169141E-2,-1.221694518E-3
2.516800083E1,1.679829881E-2,-1.328592747E-2,3.665083554E-3
2.517715234E1,2.351761982E-2,-1.450762246E-2,6.719320081E-3
2.518630385E1,2.168507688E-2,-6.566607859E-3,6.108472589E-3
2.519545536E1,1.298050396E-2,1.221694518E-3,3.054236295E-3
2.520460687E1,6.108472589E-3,6.566607859E-3,2.901524538E-3
2.521375838E1,4.275931045E-3,2.443389036E-3,1.679830020E-3
2.522290989E1,1.985253533E-3,-1.145338640E-2,1.068982761E-3
2.523206140E1,-7.177455351E-3,-2.290677279E-2,-2.596100792E-3
2.524121291E1,-1.206423342E-2,-2.473931387E-2,-2.596100792E-3
2.525036447E1,-9.620844387E-3,-2.535016090E-2,-1.985253533E-3
2.525951598E1,3.054236295E-4,-2.290677279E-2,-1.374406274E-3
2.526866749E1,5.803049076E-3,-2.412846684E-2,-3.206948051E-3
2.527781900E1,7.177455351E-3,-3.985778242E-2,-3.054236295E-3
2.528697051E1,4.123218823E-3,-4.031591862E-2,-3.206948051E-3
2.529612203E1,-2.137965523E-3,-2.535016090E-2,-1.985253533E-3
2.530527354E1,-6.413896102E-3,-3.023693897E-2,-2.596100792E-3
2.531442505E1,-5.650337320E-3,-4.459185153E-2,-7.482878864E-3
2.532357656E1,2.901524538E-3,-4.474456236E-2,-9.315420873E-3
2.533272807E1,5.344913341E-3,-4.046862945E-2,-4.886778072E-3
2.534187958E1,3.054236295E-4,-2.779355086E-2,-7.635590737E-4
2.535103109E1,-4.734066315E-3,-1.756185852E-2,4.581354442E-4
2.536018260E1,-2.901524538E-3,-1.511846948E-2,1.068982761E-3
2.536933411E1,-9.162708884E-4,-2.107422985E-2,-1.527118147E-4
2.537848562E1,-2.748812549E-3,-2.351761982E-2,1.068982761E-3
2.538763713E1,-2.901524538E-3,-1.145338640E-2,3.512371797E-3
2.539678864E1,6.108472589E-4,6.108472589E-4,4.123218823E-3
2.540594015E1,3.206948051E-3,-4.886778072E-3,5.344913341E-3
2.541509166E1,2.596100792E-3,-5.497625098E-3,6.566607859E-3
2.542424317E1,1.832541777E-3,-3.054236295E-3,6.566607859E-3
2.543339468E1,-1.679830020E-3,-1.389677543E-2,5.955760833E-3
2.544254619E1,-2.290677279E-3,-1.695101149E-2,2.901524538E-3
2.545169770E1,-2.290677279E-3,-1.511846948E-2,4.581354442E-4
2.546084926E1,-3.512371797E-3,-1.206423342E-2,-1.374406274E-3
2.547000078E1,-3.665083554E-3,1.221694518E-3,-1.374406274E-3
2.547915228E1,-1.985253533E-3,1.450762246E-2,1.068982761E-3
2.548830380E1,-4.428642802E-3,1.206423342E-2,3.512371797E-3
2.549745531E1,-1.175880991E-2,2.443389036E-3,2.290677279E-3
2.550660682E1,-1.969982497E-2,1.068982761E-3,2.748812549E-3
2.551575833E1,-2.290677279E-2,1.267508045E-2,2.137965523E-3
2.552490984E1,-2.351761982E-2,2.046338283E-2,2.137965523E-3
2.553406135E1,-2.596100792E-2,1.313321572E-2,-3.054236295E-4
2.554321286E1,-2.580829710E-2,4.123218823E-3,-3.054236295E-4
2.555236437E1,-2.458660305E-2,3.512371797E-3,2.748812549E-3
2.556151588E1,-2.718270384E-2,9.009997360E-3,5.192201585E-3
2.557066739E1,-2.977880463E-2,1.679829881E-2,6.413896102E-3
2.557981890E1,-3.023693897E-2,1.206423342E-2,2.137965523E-3
2.558897041E1,-2.641914412E-2,-1.832541777E-3,-2.137965523E-3
2.559812192E1,-2.275406010E-2,-1.527118147E-4,-4.581354558E-3
2.560727343E1,-2.153236605E-2,4.123218823E-3,-5.192201585E-3
2.561642494E1,-2.580829710E-2,7.788302377E-3,-3.970507067E-3
2.562557645E1,-2.840439789E-2,2.580829710E-2,-3.359660041E-3
2.563472796E1,-2.565558441E-2,4.214845970E-2,-3.054236295E-4
2.564387947E1,-1.939439960E-2,3.497100621E-2,9.162708884E-4
2.565303104E1,-1.863084175E-2,1.801999472E-2,-9.162708884E-4
2.566218255E1,-1.863084175E-2,1.863084175E-2,-3.359660041E-3
2.567133406E1,-1.359135192E-2,1.313321572E-2,-4.581354558E-3
2.568048557E1,-1.343864016E-2,1.679830020E-3,-6.261184346E-3
2.568963708E1,-1.527118124E-2,1.679830020E-3,-3.359660041E-3
2.569878859E1,-1.847812906E-2,1.313321572E-2,3.054236295E-4
2.570794010E1,-2.229592577E-2,1.557660475E-2,9.162708884E-4