"Time (s)","Gyroscope x (rad/s)","Gyroscope y (rad/s)","Gyroscope z (rad/s)"
1.029709293E1,1.557660475E-2,-6.719320081E-3,-3.665083554E-3
1.030624449E1,1.252236869E-2,-1.084253844E-2,-4.275931045E-3
1.031539600E1,8.857285604E-3,-1.695101149E-2,-5.497625098E-3
1.032454751E1,5.192201585E-3,-2.061609551E-2,-3.206948051E-3
1.033369902E1,7.635590737E-4,-1.572931744E-2,-3.817795310E-3
1.034285054E1,1.527118147E-4,-3.054236295E-3,-4.428642802E-3
1.035200204E1,1.221694518E-3,7.177455351E-3,-4.428642802E-3
1.036115356E1,6.108472589E-3,1.496575773E-2,-3.206948051E-3
1.037030507E1,9.773556143E-3,1.267508045E-2,-1.832541777E-3
1.037945663E1,9.926267900E-3,5.955760833E-3,-6.108472589E-4
1.038860814E1,8.704573847E-3,2.290677279E-3,-6.108472589E-4
1.039775965E1,7.482878864E-3,4.734066315E-3,4.581354442E-4
1.040691116E1,7.330167107E-3,6.566607859E-3,-1.527118147E-4
1.041606267E1,1.236965694E-2,6.566607859E-3,-0.000000000E0
1.042521418E1,1.786728203E-2,6.108472589E-4,-0.000000000E0
1.043436569E1,1.985253580E-2,-3.665083554E-3,1.221694518E-3
1.044351720E1,2.046338283E-2,-6.719320081E-3,6.108472589E-4
1.045266876E1,1.679829881E-2,-5.497625098E-3,6.108472589E-4
1.046182027E1,1.236965694E-2,0.000000000E0,2.443389036E-3
1.047097179E1,6.261184346E-3,4.734066315E-3,4.581354442E-4
1.048012330E1,7.330167107E-3,7.788302377E-3,2.901524538E-3
1.048927480E1,1.298050396E-2,5.344913341E-3,2.443389036E-3
1.049842632E1,1.847812906E-2,6.108472589E-4,1.832541777E-3
1.050757783E1,2.168507688E-2,-8.399149403E-3,1.221694518E-3
1.051672934E1,2.183778957E-2,-1.679829881E-2,2.443389036E-3
1.052588090E1,1.939439960E-2,-2.290677279E-2,1.832541777E-3
1.053503241E1,1.756185852E-2,-2.473931387E-2,6.108472589E-4
1.054418392E1,1.450762246E-2,-2.473931387E-2,-0.000000000E0
1.055333543E1,1.695101149E-2,-2.168507688E-2,-0.000000000E0
1.056248694E1,2.000524849E-2,-1.985253580E-2,-0.000000000E0
1.057163845E1,2.000524849E-2,-2.107422985E-2,-0.000000000E0
1.058078996E1,1.496575773E-2,-2.412846684E-2,1.221694518E-3
1.058994147E1,1.206423342E-2,-2.779355086E-2,6.108472589E-4
1.059909304E1,1.267508045E-2,-2.718270384E-2,1.832541777E-3
1.060824454E1,1.511846948E-2,-2.351761982E-2,6.108472589E-4
1.061739606E1,1.863084175E-2,-1.572931744E-2,1.221694518E-3
1.062654757E1,1.863084175E-2,-1.450762246E-2,1.221694518E-3
1.063569908E1,1.557660475E-2,-1.695101149E-2,1.221694518E-3
1.064485059E1,1.435491070E-2,-2.412846684E-2,2.443389036E-3
1.065400210E1,1.328592747E-2,-3.191677108E-2,3.054236295E-3
1.066315361E1,1.450762246E-2,-3.374931216E-2,3.665083554E-3
1.067230517E1,1.267508045E-2,-3.252761811E-2,3.665083554E-3
1.068145668E1,1.206423342E-2,-2.718270384E-2,3.054236295E-3
1.069060819E1,1.191152167E-2,-1.863084175E-2,3.665083554E-3
1.069975970E1,1.435491070E-2,-1.206423342E-2,4.275931045E-3
1.070891121E1,1.618745178E-2,-1.145338640E-2,3.665083554E-3
1.071806272E1,1.496575773E-2,-1.389677543E-2,3.665083554E-3
1.072721423E1,1.007897966E-2,-1.985253580E-2,4.275931045E-3
1.073636580E1,5.803049076E-3,-2.168507688E-2,4.734066315E-3
1.074551730E1,5.803049076E-3,-2.107422985E-2,4.123218823E-3
1.075466882E1,7.635590620E-3,-1.863084175E-2,4.123218823E-3
1.076382033E1,1.191152167E-2,-1.801999472E-2,4.886778072E-3
1.077297184E1,1.740914769E-2,-1.740914769E-2,4.886778072E-3
1.078212335E1,1.985253580E-2,-1.740914769E-2,3.665083554E-3
1.079127486E1,1.985253580E-2,-1.695101149E-2,2.443389036E-3
1.080042642E1,1.740914769E-2,-1.817270555E-2,1.221694518E-3
1.080957793E1,1.191152167E-2,-2.046338283E-2,6.108472589E-4
1.081872944E1,7.635590620E-3,-2.229592577E-2,1.221694518E-3
1.082788095E1,6.413896102E-3,-2.046338283E-2,1.832541777E-3
1.083703246E1,5.803049076E-3,-2.046338283E-2,2.290677279E-3
1.084618397E1,2.748812549E-3,-1.817270555E-2,1.679830020E-3
1.085533548E1,-2.290677279E-3,-1.817270555E-2,1.679830020E-3
1.086448704E1,-6.566607859E-3,-1.878355257E-2,1.068982761E-3
1.087363856E1,-6.566607859E-3,-1.817270555E-2,-1.527118147E-4
1.088279007E1,-6.566607859E-3,-1.756185852E-2,-3.206948051E-3
1.089194158E1,-6.566607859E-3,-1.634016447E-2,-3.206948051E-3
1.090109309E1,-1.023169141E-2,-1.572931744E-2,-4.428642802E-3
1.091024460E1,-1.267508045E-2,-1.756185852E-2,-3.817795310E-3
1.091939616E1,-1.328592747E-2,-1.572931744E-2,-4.428642802E-3
1.092854767E1,-1.206423342E-2,-1.389677543E-2,-5.650337320E-3
1.093769918E1,-1.206423342E-2,-1.634016447E-2,-4.428642802E-3
1.094685069E1,-1.023169141E-2,-1.634016447E-2,-4.428642802E-3
1.095600220E1,-6.566607859E-3,-1.511846948E-2,-3.206948051E-3
1.096515371E1,-6.566607859E-3,-1.145338640E-2,-7.635590737E-4
1.097430522E1,-6.719320081E-3,-8.551862091E-3,1.679830020E-3
1.098345673E1,-4.886778072E-3,-4.886778072E-3,3.512371797E-3
1.099260830E1,-2.443389036E-3,6.108472589E-4,4.734066315E-3
1.100175980E1,-3.054236295E-3,2.901524538E-3,4.734066315E-3
1.101091132E1,-3.665083554E-3,4.123218823E-3,2.290677279E-3
1.102006283E1,-3.054236295E-3,-1.221694518E-3,1.679830020E-3
1.102921434E1,-1.679830020E-3,-7.941014133E-3,1.068982761E-3
1.103836585E1,-4.123218823E-3,-1.328592747E-2,-7.635590737E-4
1.104751736E1,-7.177455351E-3,-1.756185852E-2,-7.635590737E-4
1.105666892E1,-8.399149403E-3,-2.000524849E-2,-7.635590737E-4
1.106582043E1,-9.620844387E-3,-1.878355257E-2,4.581354442E-4
1.107497194E1,-6.566607859E-3,-1.756185852E-2,4.581354442E-4
1.108412345E1,-2.901524538E-3,-1.389677543E-2,4.581354442E-4
1.109327496E1,-2.901524538E-3,-1.084253844E-2,4.581354442E-4
1.110242647E1,-5.955760833E-3,-8.551862091E-3,-1.527118147E-4
1.111157804E1,-1.160609815E-2,-5.497625098E-3,1.068982761E-3
1.112072955E1,-1.527118124E-2,-4.275931045E-3,3.054236295E-4
1.112988106E1,-1.771457121E-2,-5.497625098E-3,3.054236295E-4
1.113903257E1,-1.649287529E-2,-6.108472589E-3,-3.054236295E-4
1.114818408E1,-1.588202827E-2,-9.162709117E-3,-3.054236295E-4
1.115733559E1,-1.404948719E-2,-1.572931744E-2,-7.635590737E-4
1.116648710E1,-1.206423342E-2,-1.634016447E-2,-1.374406274E-3
1.117563866E1,-1.023169141E-2,-1.756185852E-2,-1.374406274E-3
1.118479017E1,-7.788302377E-3,-1.939439960E-2,-1.985253533E-3
1.119394168E1,-5.955760833E-3,-1.878355257E-2,-2.596100792E-3
1.120309319E1,-5.955760833E-3,-2.061609551E-2,-3.817795310E-3
1.121224470E1,-7.177455351E-3,-2.229592577E-2,-7.635590737E-4
1.122139621E1,-7.177455351E-3,-2.000524849E-2,-1.374406274E-3
1.123054772E1,-5.955760833E-3,-1.267508045E-2,-7.635590737E-4
1.123969928E1,-5.344913341E-3,-1.084253844E-2,-1.527118147E-4
1.124885080E1,-4.123218823E-3,-1.511846948E-2,1.068982761E-3
1.125800231E1,-3.512371797E-3,-2.000524849E-2,2.290677279E-3
1.126715382E1,-6.566607859E-3,-1.756185852E-2,2.901524538E-3
1.127630533E1,-1.038440317E-2,-1.206423342E-2,4.123218823E-3
1.128545689E1,-1.160609815E-2,-4.886778072E-3,2.290677279E-3
1.129460840E1,-9.162709117E-3,-3.665083554E-3,2.901524538E-3
1.130375991E1,-6.719320081E-3,-3.054236295E-3,1.679830020E-3
1.131291142E1,-3.665083554E-3,1.221694518E-3,4.123218823E-3
1.132206293E1,-2.443389036E-3,4.734066315E-3,3.512371797E-3
1.133121444E1,-2.443389036E-3,0.000000000E0,2.901524538E-3
1.134036595E1,-2.443389036E-3,-4.275931045E-3,2.290677279E-3
1.134951751E1,-2.901524538E-3,-7.330167107E-3,2.901524538E-3
1.135866902E1,-5.955760833E-3,-1.145338640E-2,3.512371797E-3
1.136782054E1,-9.773556143E-3,-5.497625098E-3,4.734066315E-3
1.137697204E1,-9.773556143E-3,-1.832541777E-3,3.512371797E-3
1.138612356E1,-7.941014133E-3,-3.665083554E-3,4.123218823E-3
1.139527507E1,-6.108472589E-3,-8.551862091E-3,1.679830020E-3
1.140442663E1,-5.955760833E-3,-1.267508045E-2,1.068982761E-3
1.141357814E1,-7.788302377E-3,-1.511846948E-2,-1.527118147E-4
1.142272965E1,-1.511846948E-2,-1.878355257E-2,-3.054236295E-4
1.143188116E1,-1.954711229E-2,-1.878355257E-2,-3.054236295E-4
1.144103267E1,-2.137965336E-2,-1.939439960E-2,-3.054236295E-4
1.145018418E1,-2.076880634E-2,-1.572931744E-2,3.054236295E-4
1.145933569E1,-1.954711229E-2,-1.099525020E-2,-1.527118147E-3
1.146848725E1,-1.893626526E-2,-8.551862091E-3,-1.527118147E-3
1.147763876E1,-1.771457121E-2,-1.038440317E-2,-2.137965523E-3
1.148679027E1,-2.015795931E-2,-1.328592747E-2,-2.748812549E-3
1.149594179E1,-2.076880634E-2,-1.634016447E-2,-2.137965523E-3
1.150509330E1,-1.954711229E-2,-1.939439960E-2,3.054236295E-4
1.151424480E1,-1.710372418E-2,-1.817270555E-2,3.054236295E-4
1.152339637E1,-1.527118124E-2,-1.511846948E-2,9.162708884E-4
1.153254788E1,-1.282779220E-2,-1.267508045E-2,4.123218823E-3
1.154169939E1,-8.551862091E-3,-6.108472589E-3,4.123218823E-3
1.155085090E1,-4.275931045E-3,1.221694518E-3,5.344913341E-3
1.156000241E1,-3.054236295E-3,5.344913341E-3,4.734066315E-3
1.156915392E1,-4.886778072E-3,4.734066315E-3,5.955760833E-3
1.157830548E1,-5.497625098E-3,2.901524538E-3,5.344913341E-3
1.158745699E1,-1.832541777E-3,6.108472589E-4,4.734066315E-3
1.159660850E1,3.817795310E-3,-7.788302377E-3,5.344913341E-3
1.160576001E1,8.246437646E-3,-2.168507688E-2,5.497625098E-3
1.161491152E1,1.084253844E-2,-3.313846514E-2,6.719320081E-3
1.162406304E1,1.145338640E-2,-3.680354729E-2,6.108472589E-3
1.163321460E1,1.145338640E-2,-3.863608837E-2,6.108472589E-3
1.164236611E1,1.145338640E-2,-3.985778242E-2,4.275931045E-3
1.165151762E1,5.955760833E-3,-4.214845970E-2,4.275931045E-3
1.166066913E1,2.901524538E-3,-4.107947648E-2,2.290677279E-3
1.166982064E1,7.177455351E-3,-3.680354729E-2,4.275931045E-3
1.167897220E1,1.450762246E-2,-3.558185324E-2,5.497625098E-3
1.168812371E1,2.137965336E-2,-4.688252881E-2,7.330167107E-3
1.169727522E1,1.969982497E-2,-6.261184067E-2,7.941014133E-3
1.170642673E1,5.650337320E-3,-7.773031294E-2,7.330167107E-3
1.171557824E1,-4.886778072E-3,-7.956285775E-2,8.399149403E-3
1.172472975E1,-5.497625098E-3,-6.933116168E-2,1.023169141E-2
1.173388132E1,6.108472589E-4,-6.627693027E-2,1.145338640E-2
1.174303283E1,3.054236295E-3,-6.749862432E-2,1.221694518E-2
1.175218434E1,-6.108472589E-4,-6.994201243E-2,1.023169141E-2
1.176133585E1,-5.497625098E-3,-7.589777559E-2,1.023169141E-2
1.177048736E1,-4.275931045E-3,-7.711946964E-2,1.206423342E-2
1.177963887E1,3.206948051E-3,-8.078455180E-2,1.511846948E-2
1.178879043E1,1.053711493E-2,-8.429691941E-2,1.466033421E-2
1.179794194E1,1.130067464E-2,-8.918370306E-2,1.343864016E-2
1.180709345E1,8.857285604E-3,-9.575030953E-2,1.282779220E-2
1.181624496E1,3.359660041E-3,-9.345962852E-2,1.038440317E-2
1.182539647E1,-3.512371797E-3,-8.429691941E-2,8.399149403E-3
1.183454798E1,-7.330167107E-3,-7.650861889E-2,1.084253844E-2
1.184369955E1,-1.481304597E-2,-7.299624383E-2,1.695101149E-2
1.185285106E1,-1.847812906E-2,-7.528692484E-2,2.122694254E-2
1.186200257E1,-1.649287529E-2,-8.307522535E-2,2.305948362E-2
1.187115408E1,-1.649287529E-2,-8.674030751E-2,2.428117767E-2
1.188030559E1,-2.336490713E-2,-9.040539712E-2,2.473931387E-2
1.188945710E1,-2.580829710E-2,-9.162709117E-2,2.657185495E-2
1.189860866E1,-2.214321308E-2,-7.635590434E-2,3.573456407E-2
1.190776017E1,-7.635590620E-3,-5.528167635E-2,4.810422286E-2
1.191691168E1,-6.566607859E-3,-3.466558084E-2,6.032116711E-2
1.192606319E1,-2.336490713E-2,-1.786728203E-2,6.749862432E-2
1.193521470E1,-4.504998401E-2,-2.031067200E-2,6.429167092E-2
1.194436626E1,-5.482354015E-2,-3.191677108E-2,5.696150661E-2
1.195351777E1,-4.779879749E-2,-4.031591862E-2,4.963133857E-2
1.196266928E1,-2.687728032E-2,-4.321744293E-2,4.917320609E-2
1.197182080E1,-8.551862091E-3,-3.054236248E-2,5.115845799E-2
1.198097230E1,0.000000000E0,-2.275406010E-2,5.726693198E-2
1.199012382E1,7.635590620E-3,-3.955236077E-2,6.520794332E-2
1.199927538E1,1.038440317E-2,-7.207997888E-2,6.413896382E-2
1.200842689E1,1.114796288E-2,-9.972081333E-2,6.169557199E-2
1.201757840E1,9.315420873E-3,-1.033858955E-1,6.108472496E-2
1.202672991E1,8.093725890E-3,-9.681928903E-2,6.536065787E-2
1.203588142E1,3.665083554E-3,-8.826743066E-2,7.070557028E-2
1.204503298E1,-1.985253533E-3,-7.742489129E-2,7.314895838E-2
1.205418449E1,-7.024743594E-3,-6.719319522E-2,7.681404054E-2
1.206333600E1,-1.389677543E-2,-4.856235534E-2,7.788302749E-2
1.207248751E1,-2.336490713E-2,-3.481829539E-2,7.421794534E-2
1.208163902E1,-2.580829710E-2,-4.077405483E-2,6.872031838E-2
1.209079059E1,-1.145338640E-2,-5.405998230E-2,6.627693027E-2
1.209994210E1,1.649287529E-2,-7.269082218E-2,7.146912813E-2
1.210909361E1,3.939964995E-2,-9.132166207E-2,7.650861889E-2
1.211824512E1,5.176930502E-2,-9.422318637E-2,7.910472155E-2
1.212739663E1,5.772506446E-2,-8.521319181E-2,8.399149776E-2
1.213654814E1,6.261184067E-2,-7.482878864E-2,9.193251282E-2
1.214569970E1,5.879404768E-2,-5.925218388E-2,1.023169160E-1
1.215485121E1,5.176930502E-2,-4.947862774E-2,1.149920002E-1
1.216400272E1,4.245388508E-2,-3.863608837E-2,1.302631795E-1
1.217315423E1,3.558185324E-2,-4.046862945E-2,1.375933439E-1
1.218230574E1,4.443913698E-2,-6.398624927E-2,1.351499557E-1
1.219145730E1,6.887302548E-2,-9.590301663E-2,1.224748790E-1
1.220060882E1,9.498675168E-2,-1.175880954E-1,1.056765765E-1
1.220976033E1,1.075091213E-1,-1.320957243E-1,9.468132257E-2
1.221891184E1,1.160609797E-1,-1.374406368E-1,9.544488788E-2
1.222806335E1,1.327065676E-1,-1.278197914E-1,1.076618284E-1
1.223721491E1,1.620272398E-1,-1.192679256E-1,1.317902952E-1
1.224636642E1,1.896680743E-1,-1.082726792E-1,1.490467340E-1
1.225551793E1,2.086043358E-1,-9.544488788E-2,1.491994411E-1
1.226466944E1,2.147128135E-1,-8.292251825E-2,1.296523362E-1
1.227382095E1,1.969982386E-1,-9.330692142E-2,1.081199646E-1
1.228297251E1,1.462979168E-1,-1.319430023E-1,9.498675168E-2
1.229212402E1,8.551861346E-2,-1.568350345E-1,8.964183182E-2
1.230127554E1,5.314370990E-2,-1.255291104E-1,8.643488586E-2
1.231042704E1,6.673506647E-2,-4.657710344E-2,8.460234851E-2
1.231957856E1,1.128540337E-1,2.153236605E-2,8.368607610E-2
1.232873007E1,1.527118087E-1,6.200099736E-2,7.406523079E-2
1.233788163E1,1.643179059E-1,8.002099395E-2,5.955760926E-2
1.234703314E1,1.644706279E-1,6.795676053E-2,5.833591148E-2
1.235618465E1,1.714953631E-1,3.176405653E-2,7.314895838E-2
1.236533616E1,1.875301152E-1,9.162709117E-3,1.116323397E-1
1.237448767E1,2.205158621E-1,2.092151903E-2,1.661504507E-1
1.238363923E1,2.493783981E-1,6.933116168E-2,2.159345001E-1
1.239279074E1,2.828222811E-1,1.062874198E-1,2.441861928E-1
1.240194225E1,3.266505599E-1,1.062874198E-1,2.371614426E-1
1.241109376E1,3.698680103E-1,3.924693540E-2,2.081461996E-1
1.242024527E1,4.172086716E-1,-6.077930331E-2,1.798945218E-1
1.242939684E1,4.616478086E-1,-1.389677525E-1,1.685938388E-1
1.243854835E1,4.674508572E-1,-1.661504507E-1,1.730224788E-1
1.244769986E1,4.366030693E-1,-1.620272398E-1,1.812689304E-1
1.245685137E1,3.990359604E-1,-1.831014603E-1,1.915006191E-1
1.246600288E1,3.907895386E-1,-2.203631550E-1,1.963873953E-1
1.247515444E1,4.138490260E-1,-2.426590770E-1,1.904316396E-1
1.248430595E1,4.446968138E-1,-2.360924631E-1,1.740914732E-1
1.249345746E1,4.911212027E-1,-2.559449971E-1,1.579040140E-1
1.250260897E1,5.407525301E-1,-3.017585576E-1,1.467560530E-1
1.251176048E1,5.401417017E-1,-2.962609231E-1,1.382041872E-1
1.252091205E1,4.650074840E-1,-2.295258641E-1,1.296523362E-1
1.253006356E1,3.251234591E-1,-1.582094431E-1,1.163664013E-1
1.253921507E1,1.878355294E-1,-9.926267713E-2,1.075091213E-1
1.254836658E1,1.091889441E-1,-5.436540768E-2,1.056765765E-1
1.255751809E1,9.529217333E-2,-2.412846684E-2,1.104106456E-1
1.256666965E1,1.211004704E-1,-1.023169141E-2,1.185043678E-1
1.257582116E1,1.577513069E-1,1.878355257E-2,1.206423342E-1
1.258497267E1,1.843231618E-1,3.023693897E-2,1.201841980E-1
1.259412418E1,1.942494214E-1,4.428642802E-3,1.203369126E-1
1.260327569E1,1.725643575E-1,3.206948191E-2,1.236965731E-1
1.261242725E1,1.288887709E-1,1.429382563E-1,1.307213157E-1
1.262157876E1,6.795676053E-2,2.765611112E-1,1.369825006E-1
1.263073027E1,-2.046338283E-2,3.897205591E-1,1.288887709E-1
1.263988178E1,-1.212531775E-1,4.292729199E-1,1.036913246E-1
1.264903330E1,-2.069245130E-1,4.332434237E-1,8.536590636E-2
1.265818486E1,-2.502946556E-1,4.662291706E-1,8.017370105E-2
1.266733637E1,-2.748812735E-1,5.247178078E-1,7.986827940E-2
1.267648788E1,-3.089359999E-1,5.398362875E-1,8.460234851E-2
1.268563939E1,-3.411581814E-1,4.975350797E-1,8.857285231E-2
1.269479095E1,-3.698680103E-1,4.576773047E-1,9.208522737E-2
1.270394246E1,-4.062134326E-1,4.474456310E-1,9.681928903E-2
1.271309397E1,-4.504998624E-1,4.509579837E-1,1.006370857E-1
1.272224548E1,-4.782933891E-1,4.491254389E-1,9.147437662E-2
1.273139699E1,-4.665345848E-1,4.479037523E-1,7.864658535E-2
1.274054856E1,-4.164451063E-1,4.436278343E-1,7.040014863E-2
1.274970007E1,-3.484883606E-1,4.220954478E-1,7.650861889E-2
1.275885158E1,-2.974826097E-1,3.487937748E-1,9.391776472E-2
1.276800309E1,-2.646495700E-1,2.657185495E-1,1.033858955E-1
1.277715460E1,-2.565558553E-1,2.512109280E-1,9.926267713E-2
1.278630616E1,-2.606790662E-1,3.035911024E-1,8.567132801E-2
1.279545767E1,-2.678565085E-1,3.619270027E-1,6.245913357E-2
1.280460918E1,-2.913741469E-1,3.859027624E-1,4.321744293E-2
1.281376069E1,-3.275668323E-1,3.636068404E-1,3.451287001E-2
1.282291220E1,-3.484883606E-1,3.061871827E-1,3.008422814E-2
1.283206376E1,-3.287885487E-1,2.392994165E-1,1.313321572E-2
1.284121527E1,-2.687727809E-1,1.695101112E-1,-1.496575773E-2
1.285036678E1,-1.936385781E-1,1.133121699E-1,-4.367557913E-2
1.285951830E1,-1.348445266E-1,8.338065445E-2,-6.413896382E-2
1.286866981E1,-1.203369126E-1,6.520794332E-2,-7.925742865E-2
1.287782137E1,-1.678302884E-1,5.726693198E-2,-8.506047726E-2
1.288697288E1,-2.415900975E-1,4.749337584E-2,-8.490777016E-2
1.289612439E1,-2.999260128E-1,2.260134928E-2,-8.964183182E-2
1.290527590E1,-3.206948042E-1,6.872031838E-3,-1.056765765E-1
1.291442746E1,-3.083251417E-1,2.061609551E-2,-1.348445266E-1
1.292357887E1,-2.881672084E-1,4.825693369E-2,-1.585148573E-1
1.293273043E1,-2.783936262E-1,6.994201243E-2,-1.743968874E-1
1.294188199E1,-3.055763543E-1,7.406523079E-2,-1.867665499E-1
1.295103350E1,-3.581092060E-1,1.029277667E-1,-1.982199401E-1
1.296018507E1,-3.981196880E-1,1.714953631E-1,-2.082989216E-1
1.296933658E1,-4.121691883E-1,2.322746664E-1,-2.206685692E-1
1.297848809E1,-4.080459774E-1,2.557922900E-1,-2.328855246E-1
1.298763960E1,-3.808632791E-1,2.623589039E-1,-2.357870489E-1
1.299679111E1,-3.403946459E-1,2.799207568E-1,-2.293731421E-1
1.300594267E1,-2.962609231E-1,3.011476994E-1,-2.174616307E-1
1.301509418E1,-2.638860047E-1,3.199312389E-1,-2.098260373E-1
1.302424569E1,-2.686200738E-1,3.645231128E-1,-2.008160353E-1
1.303339720E1,-3.011476994E-1,4.121691883E-1,-1.968455315E-1
1.304254876E1,-3.407000601E-1,4.259132445E-1,-1.928750277E-1
1.305170027E1,-3.836120665E-1,4.048390090E-1,-1.882936656E-1
1.306085178E1,-4.260659516E-1,3.975088596E-1,-1.831014603E-1
1.307000330E1,-4.688252807E-1,4.130854607E-1,-1.876828223E-1
1.307915480E1,-4.996730685E-1,4.178195298E-1,-1.915006191E-1
1.308830637E1,-5.005893111E-1,3.949127495E-1,-1.921114624E-1
1.309744512E1,-4.706578255E-1,3.455868363E-1,-1.881409585E-1
1.310677814E1,-4.147652984E-1,3.005368412E-1,-1.815743446E-1
1.311612574E1,-3.087832928E-1,2.983988822E-1,-1.583621502E-1
1.312546022E1,-2.605263591E-1,3.335226178E-1,-1.226275861E-1
1.313478179E1,-2.330382317E-1,4.072824121E-1,-8.338065445E-2
1.314412928E1,-1.895153672E-1,4.857762754E-1,-5.986303091E-2
1.315346382E1,-7.131642103E-2,5.063923597E-1,-6.520794332E-2
1.316279835E1,1.669140160E-1,4.156815708E-1,-9.269607067E-2
1.317213288E1,4.960079789E-1,2.394521236E-1,-1.378987730E-1
1.318146741E1,8.287670016E-1,5.650337040E-2,-2.026485801E-1
1.319078897E1,1.106702566E0,-3.359659761E-2,-2.774773538E-1
1.320013647E1,1.341420531E0,1.099525020E-2,-3.461976945E-1
1.320947095E1,1.600878000E0,1.823379099E-1,-4.005630910E-1
1.321880548E1,1.924474239E0,4.165978432E-1,-4.362976551E-1
1.322814007E1,2.281514406E0,6.026008129E-1,-4.466820657E-1
1.323747460E1,2.610761166E0,6.665870547E-1,-4.366030693E-1
1.324679611E1,2.846395493E0,5.471664071E-1,-3.944546282E-1
1.325614366E1,2.941382170E0,2.258607745E-1,-3.075616062E-1
1.326547814E1,2.920308113E0,-2.341072112E-1,-2.064663768E-1
1.327479970E1,2.869149685E0,-6.936170459E-1,-1.070509851E-1
1.328414720E1,2.824404955E0,-1.040578246E0,-1.298050396E-2
1.329348168E1,2.815395117E0,-1.238492846E0,4.993676394E-2
1.330280319E1,2.829902649E0,-1.298508525E0,1.111742035E-1
1.331215074E1,2.863499165E0,-1.236660242E0,2.078407854E-1
1.332148533E1,2.929623365E0,-1.040272832E0,3.240544796E-1
1.333080684E1,3.010866165E0,-7.892146707E-1,3.972034156E-1
1.333997319E1,3.100202560E0,-5.647283196E-1,3.964398801E-1
1.334912470E1,3.187095642E0,-4.104893506E-1,3.571929336E-1
1.335827626E1,3.238254070E0,-3.817795515E-1,3.038965166E-1
1.336742777E1,3.231381893E0,-4.898995161E-1,2.403683960E-1
1.337657928E1,3.194272995E0,-7.162184119E-1,1.670667231E-1
1.338571804E1,3.138075113E0,-9.617789984E-1,1.185043678E-1
1.339488231E1,3.065689564E0,-1.149767280E0,1.450762302E-1
1.340403387E1,3.013614893E0,-1.229788303E0,2.246390730E-1
1.341318538E1,2.996205807E0,-1.176339149E0,3.038965166E-1
1.342233689E1,2.990555525E0,-1.044854283E0,3.568875194E-1
1.343148840E1,2.992846251E0,-9.127585292E-1,3.929274976E-1
1.344063996E1,2.985210657E0,-8.199097514E-1,4.153761268E-1
1.344979147E1,2.935426474E0,-7.771504521E-1,4.350759685E-1
1.345894298E1,2.856627226E0,-7.258392572E-1,4.650074840E-1
1.346809449E1,2.771261215E0,-6.499415040E-1,4.992149174E-1
1.347724606E1,2.700097561E0,-6.180247068E-1,5.126535892E-1
1.348639757E1,2.649244547E0,-6.465818286E-1,4.995203316E-1
1.349554908E1,2.603889227E0,-7.267554998E-1,4.772244096E-1
1.350470059E1,2.546469450E0,-7.968502641E-1,4.714213610E-1
1.351385215E1,2.453773499E0,-8.241856694E-1,4.677563012E-1
1.352300366E1,2.319386959E0,-8.955020905E-1,4.534013867E-1
1.353215517E1,2.163620949E0,-1.047755718E0,4.292729199E-1
1.354130668E1,2.024042368E0,-1.199245930E0,3.941491842E-1
1.355044548E1,1.924321532E0,-1.269493341E0,3.562766612E-1
1.355960975E1,1.869650722E0,-1.275143623E0,3.240544796E-1
1.356876126E1,1.824142575E0,-1.277128935E0,3.035911024E-1
1.357791277E1,1.749313831E0,-1.329050899E0,2.953446507E-1
1.358706428E1,1.640430331E0,-1.415485859E0,2.970244884E-1
1.359621585E1,1.513068676E0,-1.451831222E0,3.016058207E-1
1.360536736E1,1.376391530E0,-1.394106150E0,2.950392365E-1
1.361451887E1,1.253000498E0,-1.235896707E0,2.819060087E-1
1.362367038E1,1.169772506E0,-1.013701081E0,2.841966748E-1
1.363280918E1,1.087002754E0,-7.944068313E-1,3.017585576E-1
1.364197345E1,9.773555994E-1,-5.992411375E-1,3.222219348E-1
1.365112496E1,8.211314082E-1,-4.468347728E-1,3.552076817E-1
1.366027647E1,6.510104537E-1,-3.445178568E-1,4.040754735E-1
1.366942798E1,5.004366040E-1,-2.866400778E-1,4.712686539E-1
1.367857955E1,3.674246371E-1,-2.498365343E-1,5.308262706E-1
1.368773106E1,2.687727809E-1,-1.861557066E-1,5.471664071E-1
1.369688257E1,2.060082406E-1,-1.206423342E-1,5.137225389E-1
1.370603408E1,1.580567211E-1,-9.804098308E-2,4.466820657E-1
1.371518564E1,9.559759498E-2,-1.056765765E-1,3.663556576E-1
1.372433715E1,1.420219894E-2,-1.188097894E-1,2.889307439E-1
1.373348866E1,-6.123743951E-2,-1.432436854E-1,2.199050188E-1
1.374262741E1,-1.272089481E-1,-1.881409585E-1,1.701209545E-1
1.375179168E1,-2.228065431E-1,-2.457133085E-1,1.516428292E-1
1.376094324E1,-3.316900730E-1,-3.289412558E-1,1.681357026E-1
1.377009475E1,-4.126273096E-1,-4.017847776E-1,2.047865391E-1
1.377924626E1,-4.288147688E-1,-3.964398801E-1,2.310529798E-1
1.378839777E1,-4.133908749E-1,-3.216110766E-1,2.194468826E-1
1.379754934E1,-4.204156399E-1,-2.127275616E-1,1.801999360E-1
1.380670085E1,-4.614951015E-1,-1.430909634E-1,1.542389393E-1
1.381585236E1,-5.430431962E-1,-1.261399537E-1,1.609582454E-1
1.382500387E1,-6.369609833E-1,-1.273616552E-1,1.994416267E-1
1.383415543E1,-7.163711190E-1,-1.580567211E-1,2.483094037E-1
1.384330694E1,-7.576032877E-1,-1.766875684E-1,2.846548259E-1
1.385245845E1,-8.138012886E-1,-1.026223376E-1,2.964136302E-1
1.386160996E1,-9.914051294E-1,3.313846514E-2,2.797680497E-1
1.387076152E1,-1.127471328E0,1.099525094E-1,2.330382317E-1
1.387990027E1,-9.732323885E-1,3.371876776E-1,1.661504507E-1
1.388906454E1,-7.256865501E-1,8.008207679E-1,1.632489264E-1
1.389821606E1,-7.447755337E-1,9.727742672E-1,2.221956849E-1
1.390735486E1,-9.150491953E-1,7.898254991E-1,3.371876776E-1
1.391651913E1,-1.030193925E0,8.276980519E-1,5.115845799E-1
1.392567064E1,-9.417737722E-1,1.034164429E0,6.061131954E-1
1.393480939E1,-8.136485219E-1,7.143858671E-1,5.729747415E-1
1.394397366E1,-8.884773254E-1,3.249707520E-1,4.335488379E-1
1.395312522E1,-1.109756708E0,4.471401870E-1,2.964136302E-1
1.396226397E1,-1.188250661E0,5.726693273E-1,2.377723008E-1
1.397142824E1,-1.090820551E0,3.196258247E-1,1.940967143E-1
1.398057975E1,-1.004691005E0,1.878355294E-1,2.105895877E-1
1.398971856E1,-1.077687263E0,3.808632791E-1,2.863346636E-1
1.399888283E1,-1.284764528E0,6.259657145E-1,3.585673273E-1
1.400803434E1,-1.455954432E0,7.325585485E-1,3.968980014E-1
1.401717314E1,-1.473516345E0,7.632536292E-1,3.912476599E-1
1.402633741E1,-1.350430608E0,7.916580439E-1,3.677300513E-1
1.403548892E1,-1.233758807E0,6.484143734E-1,3.545968235E-1
1.404462767E1,-1.207339644E0,3.855973184E-1,3.385621011E-1
1.405379194E1,-1.185043693E0,2.637332976E-1,2.776300907E-1
1.406294350E1,-1.002553105E0,1.325538605E-1,2.417428046E-1
1.407208225E1,-7.820371985E-1,1.068982668E-2,2.733541429E-1
1.408124652E1,-7.308787704E-1,6.551336497E-2,2.791571915E-1
1.409039804E1,-8.263236284E-1,2.803788781E-1,2.490729690E-1
1.409953684E1,-9.403993487E-1,4.402681589E-1,2.084516287E-1
1.410870111E1,-9.878927469E-1,5.233433843E-1,1.786728203E-1
1.411785262E1,-9.773555994E-1,5.984776020E-1,1.499630064E-1
1.412700413E1,-9.164236188E-1,7.027797699E-1,1.027750522E-1
1.413615569E1,-8.530482054E-1,6.200099587E-1,3.665083647E-2
1.414530720E1,-8.083036542E-1,6.077930331E-1,-2.840439789E-2
1.415445871E1,-7.728744745E-1,5.992411375E-1,-7.696675509E-2
1.416361022E1,-7.609629631E-1,5.166240931E-1,-1.108687744E-1
1.417276178E1,-7.748597264E-1,4.828747511E-1,-1.036913246E-1
1.418191330E1,-7.771504521E-1,4.576773047E-1,-7.437065244E-2
1.419106481E1,-7.627955079E-1,4.807367921E-1,-3.527642787E-2
1.420021632E1,-7.337802649E-1,4.598152637E-1,-1.527118147E-4
1.420936783E1,-7.143858671E-1,3.520007432E-1,7.330167107E-3
1.421851939E1,-7.404996157E-1,2.446443290E-1,9.009997360E-3
1.422767090E1,-8.134958148E-1,1.976090819E-1,2.321219631E-2
1.423682241E1,-8.472451568E-1,1.818797737E-1,3.038965166E-2
1.424597392E1,-8.066238165E-1,1.024696305E-1,3.069507517E-2
1.425512548E1,-7.493568659E-1,-1.511846948E-2,1.893626526E-2
1.426427699E1,-7.663078904E-1,-1.049130186E-1,5.497625098E-3
1.427342850E1,-8.162446618E-1,-1.742441803E-1,-1.130067464E-2
1.428258007E1,-8.031114340E-1,-1.834068894E-1,-4.046862945E-2
1.429173158E1,-7.437065244E-1,-2.014268786E-1,-5.589252338E-2
1.430088309E1,-7.091936469E-1,-2.032594234E-1,-4.718795046E-2
1.431003460E1,-7.539382577E-1,-1.024696305E-1,-2.000524849E-2
1.431918611E1,-8.341119289E-1,2.458660305E-2,3.665083554E-3
1.432833767E1,-8.803836107E-1,9.315420687E-2,2.290677279E-2
1.433748918E1,-8.881719112E-1,1.198787764E-1,4.474456236E-2
1.434664069E1,-8.698465228E-1,1.337755471E-1,6.383354217E-2
1.435579225E1,-8.480086923E-1,1.640124917E-1,7.803573459E-2
1.436494376E1,-8.092198968E-1,1.719534993E-1,7.207997888E-2
1.437409527E1,-7.340856791E-1,1.140757278E-1,5.436540768E-2
1.438324678E1,-6.626165509E-1,5.986303091E-2,3.726168349E-2
1.439239835E1,-5.966450572E-1,-1.114796288E-2,2.122694254E-2
1.440154986E1,-5.676298141E-1,-7.742489129E-2,1.481304597E-2
1.441070137E1,-5.883986354E-1,-8.399149776E-2,1.221694518E-2
1.441985288E1,-6.339067221E-1,-3.542914242E-2,-2.137965523E-3
1.442900444E1,-7.061394453E-1,7.177454978E-2,-1.496575773E-2
1.443815595E1,-7.548545003E-1,1.356080920E-1,-1.420219894E-2
1.444730746E1,-7.663078904E-1,1.669140160E-1,-6.261184346E-3
1.445645897E1,-7.646280527E-1,2.579302490E-1,9.468132630E-3
1.446561054E1,-7.559235096E-1,3.080197275E-1,4.016320780E-2
1.447476204E1,-7.432484031E-1,3.190149665E-1,5.726693198E-2
1.448391356E1,-7.090409398E-1,2.829749882E-1,6.184828654E-2
1.449306507E1,-6.697940230E-1,2.425063550E-1,6.093201414E-2
1.450221663E1,-6.433748603E-1,2.570139766E-1,5.803048983E-2
1.451136814E1,-6.117635369E-1,2.437280566E-1,3.680354729E-2
1.452051965E1,-6.168029904E-1,2.611372173E-1,8.093725890E-3
1.452967116E1,-6.520794630E-1,2.971771955E-1,-1.359135192E-2
1.453882272E1,-7.040014863E-1,3.000787199E-1,-8.399149403E-3
1.454797423E1,-7.565343380E-1,3.187095523E-1,-2.748812549E-3
1.455712574E1,-7.828007340E-1,3.639122546E-1,3.206948051E-3
1.456627725E1,-7.867712975E-1,3.784198761E-1,8.093725890E-3
1.457542882E1,-8.057075143E-1,3.657447994E-1,5.497625098E-3
1.458458033E1,-8.330429196E-1,3.203893900E-1,-2.596100792E-3
1.459373184E1,-8.368607163E-1,2.684673667E-1,-1.603474095E-2
1.460288335E1,-8.112051487E-1,2.389939874E-1,-4.947862774E-2
1.461203491E1,-7.852441669E-1,1.971509457E-1,-9.009996802E-2
1.462118642E1,-7.695148587E-1,1.742441803E-1,-1.424801201E-1
1.463033793E1,-7.566870451E-1,2.209739983E-1,-1.937913001E-1
1.463948944E1,-7.461498976E-1,2.944283783E-1,-2.321219593E-1
1.464864100E1,-7.350019813E-1,3.636068404E-1,-2.400629669E-1
1.465779251E1,-7.528692484E-1,4.347705245E-1,-2.348707765E-1
1.466694402E1,-8.060129285E-1,5.034908652E-1,-2.272351831E-1
1.467609554E1,-8.629744649E-1,5.364766121E-1,-2.240282297E-1
1.468524710E1,-8.939749599E-1,5.569399595E-1,-2.170034945E-1
1.469439861E1,-8.942803741E-1,5.931326747E-1,-2.047865391E-1
1.470355012E1,-8.623636365E-1,6.022953987E-1,-1.966928244E-1
1.471270163E1,-8.159392476E-1,5.691569448E-1,-2.005106062E-1
1.472185319E1,-7.682931423E-1,5.570927262E-1,-2.173089087E-1
1.473100470E1,-7.243121266E-1,5.438067913E-1,-2.383831441E-1
1.474015621E1,-7.116370797E-1,5.172349215E-1,-2.596100867E-1
1.474930777E1,-7.487460375E-1,5.387672782E-1,-2.843494117E-1
1.475845928E1,-8.148702383E-1,5.772506595E-1,-3.000787199E-1
1.476761080E1,-8.770239353E-1,5.674771070E-1,-3.023693860E-1
1.477676230E1,-9.292513728E-1,5.325061083E-1,-2.977880239E-1
1.478591387E1,-9.784246087E-1,5.251759291E-1,-3.054236174E-1
1.479506538E1,-1.017213345E0,5.123481154E-1,-3.069507480E-1
1.480421689E1,-1.036913276E0,5.045598149E-1,-2.912214398E-1
1.481336840E1,-1.021031141E0,5.179984570E-1,-2.580829561E-1
1.482251996E1,-9.996515512E-1,5.157077909E-1,-2.194468826E-1
1.483167147E1,-9.892671108E-1,5.074613690E-1,-1.956238300E-1
1.484082298E1,-9.845330715E-1,5.279247165E-1,-1.979145110E-1
1.484997454E1,-9.738432169E-1,5.911474228E-1,-2.082989216E-1
1.485912606E1,-9.425373077E-1,6.598677635E-1,-2.028012872E-1
1.486827757E1,-8.854231238E-1,6.853706241E-1,-1.821851879E-1
1.487742908E1,-7.947123051E-1,6.681141853E-1,-1.705790907E-1
1.488658064E1,-6.395570636E-1,6.332958937E-1,-1.980672181E-1
1.489573215E1,-3.869717419E-1,6.027535200E-1,-2.574721277E-1
1.490488366E1,-6.627693027E-2,5.577035546E-1,-3.429907262E-1
1.491403517E1,2.632751763E-1,4.850127101E-1,-4.450022280E-1
1.492317397E1,5.549547076E-1,4.459185004E-1,-5.467082858E-1
1.493233824E1,7.905890942E-1,4.581354558E-1,-6.117635369E-1
1.494148975E1,1.007287145E0,4.908157587E-1,-6.316160560E-1
1.495064126E1,1.248266339E0,5.070032477E-1,-6.267293096E-1
1.495979283E1,1.505433083E0,4.749337435E-1,-6.029062271E-1
1.496894434E1,1.739387512E0,4.043808877E-1,-5.525113344E-1
1.497809585E1,1.935316801E0,3.180987239E-1,-4.813476503E-1
1.498724736E1,2.092457294E0,2.163926363E-1,-3.984251320E-1
1.499639892E1,2.221956968E0,1.041494608E-1,-3.222219348E-1
1.500555043E1,2.361382723E0,-9.315420873E-3,-2.551814318E-1
1.501470194E1,2.544789791E0,-1.336228400E-1,-2.057028115E-1
1.502385350E1,2.768359661E0,-2.751866877E-1,-1.672194302E-1
1.503300501E1,2.979560137E0,-4.056025743E-1,-1.430909634E-1
1.504215652E1,3.111808538E0,-5.100574493E-1,-1.310267299E-1
1.505130804E1,3.138991356E0,-4.451549351E-1,-1.658450365E-1
1.506045960E1,3.080044508E0,-2.232646793E-1,-2.414373755E-1
1.506961111E1,2.986890316E0,-4.932591692E-2,-2.929012477E-1
1.507876262E1,2.927638292E0,-3.924693540E-2,-2.915268540E-1
1.508791413E1,2.940465927E0,-1.366770715E-1,-2.345653474E-1
1.509706569E1,2.961081982E0,-2.252499312E-1,-1.030804738E-1
1.510621720E1,2.892972708E0,-2.464768738E-1,5.696150661E-2
1.511536871E1,2.724378824E0,-2.089097649E-1,1.754658818E-1
1.512452022E1,2.534863472E0,-1.324011385E-1,2.309002578E-1
1.513367178E1,2.420329571E0,-8.078455180E-2,2.380777150E-1
1.514282330E1,2.432546616E0,-1.241547018E-1,2.290677279E-1
1.515197481E1,2.544484138E0,-1.722589284E-1,2.267770469E-1
1.516112637E1,2.646037579E0,-2.244863659E-1,2.470877171E-1
1.517027788E1,2.656421900E0,-3.689517379E-1,2.673983872E-1
1.517942939E1,2.583578587E0,-5.810684562E-1,2.921377122E-1
1.518858095E1,2.483857632E0,-7.530219555E-1,3.281776905E-1
1.519773246E1,2.391925097E0,-8.144121170E-1,3.428380191E-1
1.520688397E1,2.311445951E0,-8.532009125E-1,3.465031087E-1
1.521603548E1,2.232188702E0,-9.429954290E-1,3.405473530E-1
1.522518704E1,2.148502588E0,-1.036607742E0,3.358132839E-1
1.523433856E1,2.066343546E0,-1.086849928E0,3.413109183E-1
1.524349007E1,2.009840250E0,-1.104259133E0,3.463504016E-1
1.525264158E1,1.979297876E0,-1.129151106E0,3.382566571E-1
1.526179314E1,1.948144674E0,-1.152057886E0,3.307738006E-1
1.527094465E1,1.921114683E0,-1.162289619E0,3.232909143E-1
1.528009616E1,1.895000935E0,-1.138313890E0,3.174878657E-1
1.528924772E1,1.849340081E0,-1.060736299E0,3.202366829E-1
1.529839923E1,1.787339091E0,-9.636115432E-1,3.350497186E-1
1.530753798E1,1.710372329E0,-9.119949341E-1,3.545968235E-1
1.531670225E1,1.615385532E0,-9.240592122E-1,3.739912212E-1
1.532585382E1,1.507570982E0,-9.278770089E-1,3.854446113E-1
1.533500533E1,1.408002973E0,-8.875610828E-1,3.742966652E-1
1.534415684E1,1.320804477E0,-7.835643291E-1,3.523061574E-1
1.535330835E1,1.245670319E0,-6.331431866E-1,3.345915973E-1
1.536245991E1,1.159998894E0,-5.018110275E-1,3.301629424E-1
1.537161142E1,1.039356589E0,-4.436278343E-1,3.390202224E-1
1.538076293E1,8.976400495E-1,-4.575245976E-1,3.478775024E-1
1.538991444E1,7.432484031E-1,-4.946335554E-1,3.547495604E-1
1.539906600E1,5.964923501E-1,-4.857762754E-1,3.597890437E-1
1.540821751E1,5.053234100E-1,-4.327852726E-1,3.687990308E-1
1.541736902E1,4.836383164E-1,-3.515425920E-1,3.753656447E-1
1.542652054E1,4.912739098E-1,-2.412846684E-1,3.686463237E-1
1.543567210E1,4.709632397E-1,-1.569877416E-1,3.605526090E-1
1.544482361E1,3.750602305E-1,-1.299577504E-1,3.658975065E-1
1.545397512E1,2.087570578E-1,-1.392731816E-1,3.787252903E-1
1.546312668E1,2.748812735E-2,-1.424801201E-1,3.872771561E-1
1.547227819E1,-1.096470803E-1,-1.149920002E-1,3.837648034E-1
1.548142970E1,-1.747023165E-1,-5.436540768E-2,3.643703759E-1
1.549058126E1,-1.971509457E-1,4.489727318E-2,3.336753249E-1
1.549973277E1,-2.261662036E-1,1.484358907E-1,2.967190444E-1
1.550888428E1,-2.976353168E-1,2.234173864E-1,2.698417902E-1
1.551803580E1,-4.158342779E-1,2.774773538E-1,2.696890533E-1
1.552718736E1,-5.517477989E-1,2.973299026E-1,3.028275371E-1
1.553633887E1,-6.867450476E-1,2.786990702E-1,3.513898849E-1
1.554549038E1,-8.119687438E-1,2.128802687E-1,3.810159862E-1
1.555464189E1,-9.349017143E-1,7.879929990E-2,3.771981895E-1
1.556379345E1,-1.050046444E0,-4.016320780E-2,3.368822634E-1
1.557294496E1,-1.158471823E0,-8.643488586E-2,2.536543310E-1
1.558209647E1,-1.224901438E0,-5.024218559E-2,1.401894391E-1
1.559124804E1,-1.188861489E0,3.436015919E-2,3.176405653E-2
1.560039954E1,-1.069288135E0,1.320957243E-1,-7.177455351E-3
1.560953830E1,-1.044243336E0,2.093679011E-1,2.962609194E-2
1.561870262E1,-1.207186937E0,2.502946556E-1,1.206423342E-1
1.562785413E1,-1.426328301E0,2.910687327E-1,2.704526186E-1
1.563699288E1,-1.439003468E0,4.914266169E-1,5.138752460E-1
1.564615715E1,-1.174811959E0,6.139014959E-1,7.794411182E-1
1.565530871E1,-9.324583411E-1,2.874036431E-1,8.533536196E-1
1.566444746E1,-1.064554095E0,-1.940967143E-1,7.319477201E-1
1.567361173E1,-1.482831717E0,-1.131594554E-1,4.889832437E-1
1.568276324E1,-1.780619740E0,3.387148082E-1,2.849602401E-1
1.569190204E1,-1.694948435E0,6.106945276E-1,1.479777545E-1
1.570106632E1,-1.284459114E0,5.803049207E-1,8.124268800E-2
1.571021783E1,-9.622371197E-1,4.381301999E-1,1.166718230E-1
1.571935663E1,-1.053558826E0,4.775298536E-1,2.191414535E-1
1.572852090E1,-1.454427361E0,6.581879258E-1,3.268032968E-1
1.573767241E1,-1.834221601E0,8.397622705E-1,3.984251320E-1
1.574681121E1,-1.914089918E0,9.471186996E-1,4.314108789E-1
1.575597548E1,-1.699377060E0,9.208522439E-1,4.408790171E-1
1.576512699E1,-1.406475782E0,8.183826208E-1,4.576773047E-1
1.577426574E1,-1.272700310E0,7.360709310E-1,4.782933891E-1
1.578343007E1,-1.373490095E0,7.183563709E-1,4.494308829E-1
1.579258158E1,-1.513068676E0,7.979192138E-1,3.451287150E-1
1.580172033E1,-1.480540991E0,7.379034758E-1,2.305948436E-1
1.581088460E1,-1.281557560E0,5.632011890E-1,1.595838517E-1
1.582003616E1,-1.105633497E0,4.042281806E-1,1.357607991E-1
1.582917491E1,-1.065928459E0,3.031329513E-1,1.521009654E-1
1.583833918E1,-1.091584086E0,2.102841735E-1,1.537808031E-1
1.584749074E1,-1.110214949E0,1.524063945E-1,1.385096163E-1
1.585662949E1,-1.096776247E0,1.716480851E-1,1.262926757E-1
1.586579376E1,-1.076771021E0,2.121167034E-1,1.276670843E-1
1.587494527E1,-1.074327588E0,2.127275616E-1,1.203369126E-1
1.588409684E1,-1.070357084E0,1.950129867E-1,9.956810623E-2
1.589324835E1,-1.053253412E0,1.618745178E-1,7.223268598E-2
1.590239986E1,-1.010646820E0,1.046075895E-1,3.955236077E-2
1.591155142E1,-9.573503733E-1,7.620319724E-2,4.581354558E-3
1.592070293E1,-8.857285380E-1,1.832541823E-2,-2.351761982E-2
1.592985444E1,-8.017370105E-1,-5.986303091E-2,-3.634541109E-2
1.593900595E1,-7.554653287E-1,-1.273616552E-1,-4.153761268E-2
1.594815751E1,-7.281299233E-1,-1.502684206E-1,-4.306473210E-2
1.595730902E1,-7.014053464E-1,-1.212531775E-1,-3.863608837E-2
1.596646054E1,-6.868977547E-1,-1.099525020E-2,-3.252761811E-2
1.597561210E1,-7.018635273E-1,7.452336699E-2,-4.734066129E-2
1.598476361E1,-7.279772162E-1,1.064401343E-1,-4.749337584E-2
1.599391512E1,-7.440119386E-1,1.624853760E-1,-3.115320951E-2
1.600306663E1,-7.394306064E-1,2.060082406E-1,-2.504473738E-2
1.601221819E1,-7.186617851E-1,2.354816198E-1,-2.748812735E-2
1.602136970E1,-6.835380793E-1,2.356343269E-1,-3.023693897E-2
1.603052121E1,-6.163448691E-1,2.327328026E-1,-3.405473381E-2
1.603967277E1,-5.577035546E-1,2.194468826E-1,-3.848337755E-2
1.604882429E1,-5.386145711E-1,2.183778882E-1,-4.199574888E-2
1.605797580E1,-5.447230339E-1,2.206685692E-1,-4.016320780E-2
1.606712736E1,-5.386145711E-1,2.189887464E-1,-2.855710872E-2
1.607627887E1,-4.981459379E-1,2.492256761E-1,-2.901524492E-2
1.608543038E1,-4.523324072E-1,2.310529798E-1,-4.993676394E-2
1.609458189E1,-4.217900336E-1,2.093679011E-1,-7.101099193E-2
1.610373345E1,-3.910949528E-1,2.327328026E-1,-9.468132257E-2
1.611288496E1,-3.297048211E-1,2.641914487E-1,-1.052184403E-1
1.612203647E1,-2.606790662E-1,2.547233105E-1,-1.102579311E-1
1.613118804E1,-2.206685692E-1,2.690782249E-1,-1.197260618E-1
1.614033954E1,-2.137965411E-1,3.443651497E-1,-1.288887709E-1
1.614949106E1,-2.255553454E-1,4.081986845E-1,-1.284306347E-1
1.615864257E1,-2.814478874E-1,4.541649222E-1,-9.284878522E-2
1.616779413E1,-3.735330999E-1,5.198310018E-1,-5.512896553E-2
1.617694564E1,-4.689779878E-1,5.751127005E-1,-4.107947648E-2
1.618609715E1,-5.288410187E-1,5.894675851E-1,-3.420744836E-2
1.619524871E1,-5.285356045E-1,5.540384650E-1,-2.748812735E-2
1.620440022E1,-4.898995161E-1,4.269822240E-1,-2.107422985E-2
1.621355173E1,-4.416425824E-1,2.535016239E-1,-1.511846948E-2
1.622270330E1,-3.976615667E-1,9.452861547E-2,-2.076880634E-2
1.623185480E1,-3.338280320E-1,-6.108472589E-3,-2.809897438E-2
1.624100632E1,-2.565558553E-1,-3.069507517E-2,-2.519745007E-2
1.625015783E1,-2.034121305E-1,-4.566083103E-2,-2.290677279E-2
1.625930939E1,-2.319692522E-1,-8.551861346E-2,-3.222219273E-2
1.626846090E1,-3.316900730E-1,-3.695625812E-2,-4.642439261E-2
1.627761241E1,-4.424061179E-1,9.071081877E-2,-6.322269142E-2
1.628676397E1,-5.198310018E-1,2.192941606E-1,-8.826743066E-2
1.629591548E1,-5.630484819E-1,3.048127890E-1,-1.064401343E-1
1.630506699E1,-5.925218463E-1,3.709369898E-1,-1.188097894E-1
1.631421856E1,-6.377245188E-1,4.607315361E-1,-1.191152185E-1
1.632337007E1,-7.191199064E-1,5.328115225E-1,-1.143811494E-1
1.633252158E1,-8.113578558E-1,5.851916671E-1,-1.143811494E-1
1.634167309E1,-8.612946272E-1,6.316160560E-1,-8.857285231E-2
1.635082465E1,-8.689302206E-1,4.990622103E-1,-5.558710173E-2
1.635997616E1,-8.626690507E-1,3.533751369E-1,-4.062134400E-2
1.636912767E1,-8.574768305E-1,3.918585181E-1,-6.200099736E-2
1.637827923E1,-8.391514421E-1,4.309527278E-1,-9.681928903E-2
1.638743074E1,-8.234221339E-1,3.446705639E-1,-1.412584335E-1
1.639658225E1,-8.075400591E-1,2.438807636E-1,-1.898207814E-1
1.640573382E1,-7.658497691E-1,1.623326540E-1,-2.383831441E-1
1.641488533E1,-7.018635273E-1,1.214058921E-1,-2.744231224E-1
1.642403684E1,-6.430694461E-1,8.826743066E-2,-2.820587158E-1
1.643318835E1,-6.068767309E-1,9.376505762E-2,-2.573194206E-1
1.644233991E1,-6.183301210E-1,1.947075576E-1,-2.073826492E-1
1.645149142E1,-6.997255087E-1,3.019112647E-1,-1.531699449E-1
1.646064293E1,-8.403730989E-1,4.488200247E-1,-1.346918195E-1
1.646979449E1,-9.649859667E-1,6.045860648E-1,-1.563768983E-1
1.647894600E1,-1.027903199E0,7.056813240E-1,-1.918060333E-1
1.648809751E1,-1.037829518E0,7.217160463E-1,-2.284568697E-1
1.649724908E1,-1.029583097E0,6.390989423E-1,-2.631224692E-1
1.650640059E1,-1.014922738E0,5.317425132E-1,-2.904578745E-1
1.651555210E1,-9.846857786E-1,4.509579837E-1,-2.956500649E-1
1.652470366E1,-9.439117312E-1,3.877353072E-1,-2.971771955E-1
1.653385517E1,-9.075663090E-1,3.842229247E-1,-3.023693860E-1
1.654300668E1,-8.796200752E-1,4.318690002E-1,-3.016058207E-1
1.655215819E1,-8.582404256E-1,5.091412067E-1,-2.819060087E-1
1.656130975E1,-8.319739699E-1,6.044333577E-1,-2.495311052E-1
1.657046126E1,-7.815790772E-1,7.348492742E-1,-2.052446753E-1
1.657961277E1,-7.273663878E-1,7.780666947E-1,-1.462979168E-1
1.658876434E1,-6.881194115E-1,7.143858671E-1,-1.142284349E-1
1.659791585E1,-6.345176101E-1,6.710157394E-1,-1.333174109E-1
1.660706736E1,-5.929799676E-1,6.007682681E-1,-2.008160353E-1
1.661621892E1,-5.632011890E-1,4.691306949E-1,-2.878617644E-1
1.662537043E1,-5.283828974E-1,3.309265077E-1,-3.717005551E-1
1.663452194E1,-4.808894992E-1,2.338017821E-1,-4.372139275E-1
1.664367350E1,-4.069769979E-1,1.837123185E-1,-4.703523815E-1
1.665282501E1,-2.990097404E-1,1.664558798E-1,-4.665345848E-1
1.666197652E1,-1.467560530E-1,1.614163816E-1,-4.421007037E-1
1.667112804E1,5.573981255E-2,1.678302884E-1,-4.078932703E-1
1.668027960E1,2.886253297E-1,1.652341783E-1,-3.787252903E-1
1.668943111E1,5.196782947E-1,1.047603041E-1,-3.758237660E-1
1.669858262E1,7.108734846E-1,-4.306473210E-2,-3.736858070E-1
1.670773418E1,8.484668136E-1,-2.266243398E-1,-3.475720882E-1
1.671688569E1,9.717052579E-1,-3.600944579E-1,-3.179459870E-1
1.672603720E1,1.104106426E0,-4.332434237E-1,-2.997733057E-1
1.673518876E1,1.264606595E0,-4.625640810E-1,-3.054236174E-1
1.674434027E1,1.461604834E0,-4.779879749E-1,-3.278722763E-1
1.675349178E1,1.681357026E0,-5.132644176E-1,-3.494046330E-1
1.676264335E1,1.918671250E0,-5.653391480E-1,-3.520007432E-1
1.677179486E1,2.164231777E0,-6.076403260E-1,-3.373403847E-1
1.678094637E1,2.398033619E0,-6.464291215E-1,-2.961082160E-1
1.679009788E1,2.595642805E0,-6.513158679E-1,-2.451024652E-1
1.679924944E1,2.721477270E0,-6.261184216E-1,-1.887518018E-1
1.680840095E1,2.779507637E0,-5.691569448E-1,-1.365243644E-1
1.681755246E1,2.800581932E0,-4.718795121E-1,-1.033858955E-1
1.682670402E1,2.790655613E0,-3.393256664E-1,-6.887302548E-2
1.683585554E1,2.764083862E0,-1.994416267E-1,-5.070032179E-2
1.684500705E1,2.729570866E0,-6.765133142E-2,-4.810422286E-2
1.685415861E1,2.717354059E0,5.726693198E-2,-4.337015375E-2
1.686331012E1,2.743925810E0,1.278197914E-1,-3.771981969E-2
1.687246163E1,2.790808439E0,1.079672500E-1,-3.374931216E-2
1.688161319E1,2.819823742E0,4.657710344E-2,-2.550287358E-2
1.689076470E1,2.815242290E0,-2.076880634E-2,9.315420873E-3
1.689991621E1,2.788365126E0,-6.887302548E-2,5.436540768E-2
1.690906772E1,2.789128542E0,-8.872556686E-2,7.085828483E-2
1.691821929E1,2.817533016E0,-1.108687744E-1,9.055810422E-2
1.692737080E1,2.830666304E0,-1.444653720E-1,1.310267299E-1
1.693652230E1,2.801498175E0,-1.533226669E-1,1.887518018E-1
1.694567387E1,2.748965263E0,-1.609582454E-1,2.648022771E-1
1.695482538E1,2.694294453E0,-2.174616307E-1,3.280249834E-1
1.696397689E1,2.624810696E0,-3.222219348E-1,3.471139669E-1
1.697312845E1,2.561740637E0,-4.225535989E-1,3.161134422E-1
1.698227996E1,2.507833481E0,-5.053234100E-1,2.658712566E-1
1.699143147E1,2.498823404E0,-5.784723759E-1,2.261662036E-1
1.700058304E1,2.498823404E0,-6.436802745E-1,2.212794125E-1
1.700973454E1,2.482330561E0,-7.316423059E-1,2.206685692E-1
1.701888606E1,2.424911022E0,-8.692356348E-1,2.191414535E-1
1.702803757E1,2.329160690E0,-1.045159698E0,2.264716178E-1
1.703717637E1,2.230355978E0,-1.178477049E0,2.301367074E-1
1.704634064E1,2.122999668E0,-1.231009960E0,2.354816198E-1
1.705549215E1,2.024042368E0,-1.207645059E0,2.489202619E-1
1.706464371E1,1.935927629E0,-1.204743505E0,2.648022771E-1
1.707379522E1,1.859266400E0,-1.257887244E0,2.794626355E-1
1.708294673E1,1.797418118E0,-1.304311633E0,2.820587158E-1
1.709209830E1,1.738929391E0,-1.240019917E0,2.652604282E-1
1.710124981E1,1.660893679E0,-1.065470338E0,2.480039895E-1
1.711040132E1,1.557813168E0,-8.962656260E-1,2.525853515E-1
1.711954012E1,1.428160906E0,-8.354863524E-1,2.889307439E-1
1.712870439E1,1.274380088E0,-8.753440976E-1,3.214583695E-1
1.713785590E1,1.095096469E0,-8.955020905E-1,3.275668323E-1
1.714699470E1,9.144383669E-1,-8.115105629E-1,3.164188862E-1
1.715615897E1,7.760814428E-1,-6.406260729E-1,3.080197275E-1
1.716531048E1,6.711684465E-1,-4.906630516E-1,3.321481943E-1
1.717446199E1,5.254813433E-1,-4.172086716E-1,3.726168275E-1
1.718361356E1,3.089359999E-1,-4.680617154E-1,3.778090179E-1
1.719276507E1,1.207950488E-1,-5.685460567E-1,3.454341292E-1
1.720191658E1,4.443913698E-2,-5.506787896E-1,3.064926267E-1
1.721106814E1,2.550287358E-2,-4.176668227E-1,2.670929730E-1
1.722021965E1,-2.947338112E-2,-3.144336343E-1,2.246390730E-1
1.722937116E1,-1.374406368E-1,-2.941229641E-1,1.974563748E-1
1.723852272E1,-2.544178963E-1,-3.081724346E-1,2.076880634E-1
1.724767423E1,-3.504736125E-1,-3.460449576E-1,2.559449971E-1
1.725682574E1,-4.378247857E-1,-4.043808877E-1,3.188622594E-1
1.726597730E1,-5.190674663E-1,-4.254551232E-1,3.610107303E-1
1.727512882E1,-5.770979524E-1,-3.527642787E-1,3.623851240E-1
1.728428033E1,-6.245913506E-1,-1.931804419E-1,3.301629424E-1
1.729343189E1,-6.694886088E-1,-3.497100621E-2,2.759502530E-1
1.730258340E1,-7.136223316E-1,3.695625812E-2,2.194468826E-1
1.731173491E1,-7.768449783E-1,2.779355086E-2,1.829487532E-1
1.732088642E1,-8.629744649E-1,-8.551862091E-3,1.788255423E-1
1.733003798E1,-9.620844126E-1,-3.206948191E-2,2.031067163E-1
1.733918949E1,-1.041800022E0,-2.428117767E-2,2.470877171E-1
1.734834100E1,-1.111131191E0,4.749337584E-2,2.918322682E-1
1.735749257E1,-1.214211583E0,1.246128380E-1,3.257342875E-1
1.736664408E1,-1.363716483E0,1.588202864E-1,3.345915973E-1
1.737579559E1,-1.520856977E0,3.144336343E-1,2.910687327E-1
1.738494715E1,-1.531852245E0,6.882721782E-1,2.211267054E-1
1.739408590E1,-1.312558055E0,1.193595529E0,2.205158621E-1
1.740325017E1,-1.207034230E0,1.542542100E0,3.364241421E-1
1.741240173E1,-1.295759797E0,1.315917730E0,5.141806602E-1
1.742154048E1,-1.335312128E0,9.304730892E-1,7.401941419E-1
1.743070475E1,-1.407392025E0,8.640434742E-1,8.942803741E-1
1.743985632E1,-1.582552552E0,1.181225896E0,8.402203918E-1
1.744899507E1,-1.773747683E0,1.393800735E0,5.700731874E-1
1.745815934E1,-1.867360115E0,1.317597508E0,2.580829561E-1
1.746731090E1,-1.865069389E0,8.930587173E-1,1.954711229E-2
1.747644965E1,-1.723352790E0,5.175403357E-1,-6.581879407E-2
1.748561392E1,-1.530325055E0,4.844018817E-1,-8.857285604E-3
1.749476543E1,-1.410904408E0,5.241069198E-1,9.452861547E-2
1.750390423E1,-1.441294074E0,4.955498278E-1,2.078407854E-1
1.751306850E1,-1.567281365E0,5.158604980E-1,3.419217467E-1
1.752222001E1,-1.689603567E0,6.377245188E-1,4.611896873E-1
1.753135882E1,-1.779092669E0,7.579087615E-1,5.241069198E-1
1.754052309E1,-1.786422849E0,7.446228266E-1,5.288410187E-1
1.754967460E1,-1.714953661E0,6.456655264E-1,4.732539058E-1
1.755881340E1,-1.590188146E0,5.086830258E-1,3.808632791E-1
1.756797767E1,-1.483595252E0,3.571929336E-1,2.651077211E-1
1.757712918E1,-1.396854997E0,2.272351831E-1,1.406475753E-1
1.758626798E1,-1.317902923E0,1.342336833E-1,5.085303262E-2
1.759543225E1,-1.274838209E0,1.354553849E-1,5.787777901E-2
1.760458376E1,-1.269646049E0,2.087570578E-1,1.220167428E-1
1.761372257E1,-1.268577099E0,2.907632887E-1,1.495048702E-1
1.762288684E1,-1.253458619E0,3.901786804E-1,1.366770715E-1
1.763203835E1,-1.210393786E0,4.075878263E-1,1.156028435E-1
1.764117715E1,-1.175117373E0,3.533751369E-1,9.025268257E-2
1.765034142E1,-1.181073189E0,3.303156495E-1,5.176930502E-2
1.765949293E1,-1.185807228E0,2.608317733E-1,8.399149403E-3
1.766864444E1,-1.159998894E0,1.563768983E-1,-4.825693369E-2
1.767779600E1,-1.109604001E0,1.310267299E-1,-9.116895497E-2
1.768694751E1,-1.056613088E0,6.474980712E-2,-1.108687744E-1
1.769609908E1,-1.036149621E0,5.635065958E-2,-1.076618284E-1
1.770525059E1,-1.019351363E0,9.193251282E-2,-8.918370306E-2
1.771440210E1,-1.002400398E0,1.246128380E-1,-6.780404598E-2
1.772355366E1,-9.756757617E-1,9.162709117E-2,-3.833066672E-2
1.773270517E1,-9.287932515E-1,5.207473040E-2,-6.108472589E-4
1.774185668E1,-8.837432861E-1,6.200099736E-2,2.336490713E-2
1.775100824E1,-8.677085042E-1,4.871506989E-2,3.649812192E-2
1.776015975E1,-8.939749599E-1,8.857285231E-2,4.657710344E-2
1.776931126E1,-9.555178285E-1,1.305686086E-1,5.222744122E-2
1.777846277E1,-1.025001645E0,1.123958975E-1,4.749337584E-2
1.778761434E1,-1.075243831E0,8.582404256E-2,3.985778242E-2
1.779676585E1,-1.075854778E0,8.338065445E-2,3.558185324E-2
1.780591741E1,-1.048519373E0,5.268557742E-2,3.634541109E-2
1.781506892E1,-1.019351363E0,-3.115320951E-2,3.603998944E-2
1.782422043E1,-9.797990322E-1,-1.093416587E-1,4.062134400E-2
1.783337194E1,-9.255862832E-1,-1.820324808E-1,5.512896553E-2
1.784252350E1,-8.666395545E-1,-2.307475507E-1,7.024743408E-2
1.785167501E1,-8.131904006E-1,-2.244863659E-1,8.399149776E-2
1.786081382E1,-7.615737915E-1,-1.931804419E-1,8.185353130E-2
1.786997809E1,-7.365291119E-1,-1.068982705E-1,8.322793990E-2
1.787912960E1,-7.566870451E-1,8.582404256E-2,8.353336155E-2
1.788826840E1,-7.979192138E-1,2.864873707E-1,8.490777016E-2
1.789743267E1,-8.399149776E-1,4.401154518E-1,8.582404256E-2
1.790658418E1,-8.788564801E-1,5.882459283E-1,9.391776472E-2
1.791573574E1,-9.092461467E-1,7.430956960E-1,9.055810422E-2
1.792488725E1,-9.352071285E-1,8.315158486E-1,7.070557028E-2
1.793403876E1,-9.582666159E-1,8.519791961E-1,5.344913527E-2
1.794319033E1,-9.814788103E-1,8.403730989E-1,4.596625641E-2
1.795234184E1,-9.868237376E-1,7.536327839E-1,3.741439432E-2
1.796149335E1,-9.573503733E-1,6.342121959E-1,1.634016447E-2
1.797064486E1,-9.263498783E-1,5.474718809E-1,1.236965694E-2
1.797979642E1,-8.936695457E-1,4.269822240E-1,2.290677279E-3
1.798894793E1,-8.747332692E-1,3.081724346E-1,-3.161134571E-2
1.799809944E1,-8.906152844E-1,2.441861928E-1,-5.619794875E-2
1.800725100E1,-9.419264793E-1,2.507528067E-1,-6.139015034E-2
1.801640251E1,-9.830059409E-1,2.356343269E-1,-7.146912813E-2
1.802555408E1,-1.006829023E0,2.173089087E-1,-8.750387281E-2
1.803470559E1,-1.045006990E0,2.142546773E-1,-1.096470803E-1
1.804385710E1,-1.091889501E0,2.400629669E-1,-1.290414780E-1
1.805300866E1,-1.140604496E0,2.399102598E-1,-1.360662282E-1
1.806216017E1,-1.176339149E0,2.440334857E-1,-1.447708011E-1
1.807131168E1,-1.195122719E0,2.651077211E-1,-1.400367320E-1
1.808046324E1,-1.183058381E0,3.017585576E-1,-1.369825006E-1
1.808961475E1,-1.132205367E0,3.518480062E-1,-1.562241912E-1
1.809876626E1,-1.078603506E0,4.379774928E-1,-1.974563748E-1
1.810791783E1,-1.062263370E0,5.583143830E-1,-2.431172132E-1
1.811706934E1,-1.073564053E0,6.661289334E-1,-2.664821148E-1
1.812622085E1,-1.086391807E0,7.143858671E-1,-2.507528067E-1
1.813537241E1,-1.102732062E0,7.307260633E-1,-2.124221325E-1
1.814452392E1,-1.123958945E0,7.568397522E-1,-1.734806150E-1
1.815367543E1,-1.137092113E0,7.609629631E-1,-1.565296054E-1
1.816282699E1,-1.134496093E0,6.814001203E-1,-1.730224788E-1
1.817197850E1,-1.108076930E0,5.703786016E-1,-2.160872221E-1
1.818113001E1,-1.069593549E0,5.063923597E-1,-2.701472044E-1
1.819028158E1,-1.040120125E0,5.231906772E-1,-3.083251417E-1
1.819943309E1,-1.026528835E0,6.003101468E-1,-3.193204105E-1
1.820858460E1,-1.008356094E0,7.009472251E-1,-3.173351586E-1
1.821772340E1,-9.486457705E-1,7.824953198E-1,-3.066453338E-1
1.822688767E1,-8.035695553E-1,8.333483934E-1,-2.886253297E-1
1.823603918E1,-5.534276366E-1,8.205205798E-1,-2.696890533E-1
1.824519074E1,-2.328855246E-1,7.481352091E-1,-2.600682080E-1
1.825434225E1,1.131594554E-1,6.433748603E-1,-2.519744933E-1
1.826349376E1,4.622586668E-1,5.415160656E-1,-2.422009408E-1
1.827263257E1,8.015843034E-1,5.089884996E-1,-2.440334857E-1
1.828179684E1,1.125027895E0,5.508314967E-1,-2.838912606E-1
1.829094835E1,1.439767003E0,5.967977643E-1,-3.623851240E-1
1.830009991E1,1.739387512E0,5.746545792E-1,-4.408790171E-1
1.830925142E1,2.000524759E0,4.708105326E-1,-4.596625566E-1
1.831840293E1,2.195843220E0,3.158080280E-1,-4.159869850E-1
1.832755449E1,2.311445951E0,1.728697717E-1,-3.374931216E-1
1.833670600E1,2.373599768E0,5.360184610E-2,-2.252499312E-1
1.834585751E1,2.414526463E0,-1.032331884E-1,-9.055810422E-2
1.835499632E1,2.473320484E0,-3.990359604E-1,4.077405483E-2
1.836416059E1,2.564031363E0,-7.927270532E-1,1.278197914E-1
1.837331210E1,2.679939747E0,-1.165496588E0,1.514901221E-1
1.838245090E1,2.790197611E0,-1.353942990E0,1.249182671E-1
1.839161517E1,2.868691444E0,-1.359287858E0,1.023169160E-1
1.840076668E1,2.922598600E0,-1.188250661E0,8.536590636E-2
1.840991824E1,2.947032690E0,-9.292513728E-1,3.771981969E-2
1.841906975E1,2.951461315E0,-6.969767213E-1,-3.680354729E-2
1.842822126E1,2.960013151E0,-5.735855699E-1,-1.076618284E-1
1.843736007E1,2.978185892E0,-5.983248949E-1,-1.466033459E-1
1.844652434E1,2.991318941E0,-6.858287454E-1,-1.482831687E-1
1.845567585E1,2.979254723E0,-7.429429889E-1,-1.044548824E-1
1.846482741E1,2.932066917E0,-7.270609736E-1,-3.878879920E-2
1.847397892E1,2.855252743E0,-6.565080881E-1,3.390202299E-2
1.848313043E1,2.772330284E0,-5.706840754E-1,1.041494608E-1
1.849228199E1,2.712314606E0,-5.095993280E-1,1.707318127E-1
1.850143350E1,2.685742617E0,-4.552339315E-1,2.206685692E-1
1.851058501E1,2.662683249E0,-3.129065037E-1,2.564031482E-1
1.851973658E1,2.617022276E0,-1.050657257E-1,2.791571915E-1
1.852888809E1,2.561282635E0,5.405998230E-2,2.932066917E-1
1.853803960E1,2.506917238E0,6.551336497E-2,3.104631305E-1
1.854719116E1,2.457285881E0,-4.184303805E-2,3.206948042E-1
1.855634267E1,2.402920485E0,-1.846285909E-1,3.454341292E-1
1.856549418E1,2.366269588E0,-3.611634374E-1,3.562766612E-1
1.857464574E1,2.401546001E0,-5.842754245E-1,3.359659910E-1
1.858379725E1,2.452551842E0,-8.186880350E-1,3.046600819E-1
1.859294876E1,2.425216436E0,-1.059972763E0,2.771719396E-1
1.860210033E1,2.327022552E0,-1.304922462E0,2.327328026E-1
1.861125184E1,2.224400282E0,-1.451067686E0,1.698155403E-1
1.862040340E1,2.157512426E0,-1.451525807E0,1.076618284E-1
1.862954215E1,2.112004280E0,-1.368603230E0,6.337540597E-2
1.863870642E1,2.048629045E0,-1.303700805E0,3.054236248E-2
1.864785798E1,1.947839141E0,-1.251626015E0,7.788302377E-3
1.865699673E1,1.808107853E0,-1.200620294E0,-3.665083554E-3
1.866616100E1,1.661962628E0,-1.138161182E0,1.374406274E-3
1.867531257E1,1.539029717E0,-1.044854283E0,2.122694254E-2
1.868446408E1,1.444959164E0,-9.335273504E-1,3.756710514E-2
1.869361559E1,1.355775476E0,-8.160919547E-1,4.107947648E-2
1.870276715E1,1.254680276E0,-6.818582416E-1,3.970507160E-2
1.871191866E1,1.144727707E0,-5.138752460E-1,3.817795217E-2
1.872107017E1,1.042716265E0,-3.452814221E-1,3.741439432E-2
1.873022173E1,9.428427219E-1,-2.026485801E-1,5.176930502E-2
1.873937324E1,8.280034661E-1,-1.261399537E-1,8.078455180E-2
1.874852475E1,6.841489077E-1,-1.220167428E-1,1.171299592E-1
1.875767632E1,5.296045542E-1,-1.563768983E-1,1.606528312E-1
1.876682783E1,3.790307343E-1,-1.511846930E-1,1.944021434E-1
1.877597934E1,2.284568697E-1,-6.872031838E-2,2.157817930E-1
1.878513090E1,8.261708915E-2,2.932066843E-2,2.336490750E-1
1.879428241E1,-3.451287001E-2,3.756710514E-2,2.493783981E-1
1.880343392E1,-1.041494608E-1,-4.260659590E-2,2.501419485E-1
1.881258548E1,-1.458397806E-1,-1.270562261E-1,2.345653474E-1
1.882173699E1,-1.847812980E-1,-1.640124917E-1,2.061609477E-1
1.883088850E1,-2.353289127E-1,-1.617218107E-1,1.820324808E-1
1.884004007E1,-3.161134422E-1,-1.485885978E-1,1.779092699E-1
1.884917882E1,-4.260659516E-1,-1.433963925E-1,1.904316396E-1
1.885834309E1,-5.774033666E-1,-1.104106456E-1,2.107423097E-1
1.886749465E1,-7.556180358E-1,-3.894151375E-2,2.345653474E-1
1.887664616E1,-9.127585292E-1,1.328592747E-2,2.443388999E-1
1.888579767E1,-1.019045949E0,3.909422457E-2,2.472404242E-1
1.889494923E1,-1.101052165E0,4.978405312E-2,2.509055138E-1
1.890410074E1,-1.195580840E0,5.925218388E-2,2.588465214E-1
1.891325230E1,-1.292858243E0,5.253286287E-2,2.678565085E-1
1.892240382E1,-1.360814929E0,7.421794534E-2,2.735068500E-1
1.893155533E1,-1.334701300E0,1.259872466E-1,2.473931462E-1
1.894070689E1,-1.143353343E0,2.489202619E-1,1.887518018E-1
1.894985840E1,-9.564340711E-1,5.216635466E-1,1.905843467E-1
1.895899715E1,-1.049435616E0,8.122741580E-1,2.922904193E-1
1.896816147E1,-1.308129430E0,6.587987542E-1,4.333961308E-1
1.897731298E1,-1.379903913E0,2.472404242E-1,6.328377724E-1
1.898645173E1,-1.252084136E0,2.370087355E-1,8.939749599E-1
1.899561606E1,-1.223527074E0,7.374453545E-1,9.591829181E-1
1.900476757E1,-1.340046167E0,8.657232523E-1,6.791094542E-1
1.901390637E1,-1.569724798E0,6.814001203E-1,3.045073450E-1
1.902307064E1,-1.803679228E0,7.321004272E-1,1.044548824E-1
1.903222215E1,-1.783826709E0,8.886300325E-1,6.841489673E-2
1.904136095E1,-1.502836943E0,7.386670709E-1,1.096470803E-1
1.905052522E1,-1.256818295E0,4.692834020E-1,1.982199401E-1
1.905967673E1,-1.285222650E0,4.292729199E-1,3.043546379E-1
1.906882824E1,-1.556133389E0,6.250494719E-1,4.017847776E-1
1.907797981E1,-1.749313831E0,8.299887180E-1,4.839437306E-1
1.908713132E1,-1.662420869E0,8.067765236E-1,5.199837089E-1
1.909627012E1,-1.495048642E0,6.514685750E-1,4.827220440E-1
1.910543439E1,-1.436407328E0,5.673243999E-1,3.599417508E-1
1.911458590E1,-1.426633716E0,5.123481154E-1,1.792836636E-1
1.912372470E1,-1.302020907E0,4.343124032E-1,3.298575059E-2
1.913288897E1,-1.082726717E0,3.242071867E-1,-1.908897609E-2
1.914204048E1,-9.561286569E-1,3.014531136E-1,-1.023169141E-2
1.915117928E1,-1.003163934E0,3.929274976E-1,-2.397575416E-2
1.916034356E1,-1.097845197E0,5.265503526E-1,-4.245388508E-2
1.916949507E1,-1.127929449E0,5.819846988E-1,-3.909422457E-2
1.917863387E1,-1.098303318E0,5.584670901E-1,-1.756185852E-2
1.918779814E1,-1.069288135E0,6.123743653E-1,-2.137965523E-3
1.919694965E1,-1.023932695E0,5.763344169E-1,9.315420873E-3
1.920608845E1,-9.642223716E-1,3.619270027E-1,1.175880991E-2
1.921525272E1,-9.074136019E-1,1.539335102E-1,9.773556143E-3
1.922440423E1,-8.623636365E-1,1.847812906E-2,1.679830020E-3
1.923355580E1,-8.142594099E-1,-6.459710002E-2,-1.068982761E-3
1.924270730E1,-7.444701195E-1,-1.397313178E-1,1.374406274E-3
1.925185887E1,-6.942279339E-1,-1.951656938E-1,2.076880634E-2
1.926101038E1,-7.166765332E-1,-2.246390730E-1,3.344388679E-2
1.927016189E1,-7.650861740E-1,-1.229330078E-1,3.726168349E-2
1.927931345E1,-7.757760286E-1,-2.886253223E-2,4.566083103E-2
1.928846496E1,-7.737907767E-1,1.099525020E-2,4.871506989E-2
1.929761647E1,-8.052493930E-1,9.590301663E-2,3.985778242E-2
1.930676804E1,-8.722898960E-1,1.456870735E-1,2.596100792E-2
1.931591954E1,-9.423846006E-1,2.034121305E-1,1.618745178E-2
1.932507106E1,-9.717052579E-1,3.016058207E-1,1.908897609E-2
1.933422262E1,-9.718579650E-1,3.077143133E-1,3.252761811E-2
1.934337413E1,-9.498674870E-1,2.559449971E-1,4.169032723E-2
1.935252569E1,-9.181034565E-1,1.692046970E-1,3.466558084E-2
1.936167720E1,-9.159654379E-1,6.306997687E-2,9.162709117E-3
1.937082871E1,-9.028322697E-1,3.817795310E-3,-3.466558084E-2
1.937998027E1,-8.577822447E-1,-5.467082933E-2,-6.658235192E-2
1.938913178E1,-8.217422962E-1,-7.330167294E-2,-7.681404054E-2
1.939828330E1,-8.293778896E-1,1.832541823E-2,-7.391251624E-2
1.940743486E1,-8.616000414E-1,9.544488788E-2,-5.955760926E-2
1.941658637E1,-9.042066336E-1,1.695101112E-1,-3.848337755E-2
1.942573788E1,-9.491039515E-1,2.738122940E-1,-9.009997360E-3
1.943488944E1,-9.750649333E-1,3.425326049E-1,1.832541823E-2
1.944404095E1,-9.827005267E-1,4.072824121E-1,6.398624927E-2
1.945319251E1,-9.970554113E-1,4.735593498E-1,1.023169160E-1
1.946234402E1,-1.027597785E0,5.265503526E-1,1.154501289E-1
1.947149554E1,-1.041952729E0,5.392253995E-1,1.007898003E-1
1.948064710E1,-1.013090134E0,4.989095032E-1,8.506047726E-2
1.948979861E1,-9.520054460E-1,4.259132445E-1,6.062658876E-2
1.949895012E1,-8.825215697E-1,3.469612300E-1,9.162709117E-3
1.950810168E1,-8.307522535E-1,2.866400778E-1,-7.482878864E-3
1.951725319E1,-7.725690603E-1,2.415900975E-1,3.054236295E-4
1.952640470E1,-7.380561829E-1,2.321219593E-1,3.481829539E-2
1.953555626E1,-7.531746626E-1,2.443388999E-1,7.314895838E-2
1.954470777E1,-7.502731681E-1,2.707580328E-1,6.887302548E-2
1.955385928E1,-7.348492742E-1,2.803788781E-1,4.581354558E-2
1.956301085E1,-7.287407517E-1,2.374668717E-1,8.551862091E-3
1.957216236E1,-7.267554998E-1,1.751604527E-1,-4.077405483E-2
1.958131392E1,-7.353073955E-1,1.148392856E-1,-7.864658535E-2
1.959046543E1,-7.351546884E-1,1.061347127E-1,-1.220167428E-1
1.959961694E1,-7.049177289E-1,1.464506239E-1,-1.743968874E-1
1.960876850E1,-6.514685750E-1,1.818797737E-1,-2.199050188E-1
1.961792001E1,-5.825955868E-1,2.024958730E-1,-2.396048307E-1
1.962707152E1,-5.413633585E-1,2.736595869E-1,-2.319692522E-1
1.963622309E1,-5.488462448E-1,4.133908749E-1,-2.107423097E-1
1.964537460E1,-5.960342288E-1,5.213581324E-1,-1.953184158E-1
1.965452611E1,-6.490252018E-1,5.796940327E-1,-1.853921413E-1
1.966367767E1,-6.713211536E-1,6.646018028E-1,-1.824906170E-1
1.967282918E1,-6.655181050E-1,7.075138092E-1,-1.788255423E-1
1.968198074E1,-6.526902914E-1,6.387935281E-1,-1.805053651E-1
1.969113225E1,-6.497887969E-1,5.399889946E-1,-1.956238300E-1
1.970028376E1,-6.497887969E-1,4.831801951E-1,-2.206685692E-1
1.970943533E1,-6.345176101E-1,4.300364852E-1,-2.443388999E-1
1.971858684E1,-6.166502833E-1,3.764346242E-1,-2.655658424E-1
1.972773840E1,-6.149705052E-1,3.402419090E-1,-2.806843221E-1
1.973688991E1,-6.146650314E-1,2.985515893E-1,-2.977880239E-1
1.974604142E1,-6.148177385E-1,2.689255178E-1,-3.142809272E-1
1.975518022E1,-6.122216582E-1,2.531961799E-1,-3.258870244E-1
1.976434449E1,-5.894675851E-1,2.586938143E-1,-3.269560039E-1
1.977349600E1,-5.604523420E-1,3.106158376E-1,-3.151971996E-1
1.978263480E1,-5.051707029E-1,3.909422457E-1,-2.855710983E-1
1.979179908E1,-4.127800465E-1,4.563029110E-1,-2.501419485E-1
1.980095059E1,-2.831276953E-1,4.975350797E-1,-2.272351831E-1
1.981008939E1,-9.284878522E-2,5.135698318E-1,-2.241809368E-1
1.981925366E1,1.733279079E-1,5.271611810E-1,-2.490729690E-1
1.982840517E1,5.063923597E-1,5.974085927E-1,-3.048127890E-1
1.983755673E1,8.712208867E-1,7.133168578E-1,-3.767400384E-1
1.984670824E1,1.203521848E0,8.028060198E-1,-4.509579837E-1
1.985585980E1,1.457939744E0,8.590039611E-1,-5.132644176E-1
1.986501132E1,1.616454601E0,9.139801860E-1,-5.317425132E-1
1.987416283E1,1.704111099E0,9.469659925E-1,-4.731011987E-1
1.988331439E1,1.779856205E0,9.058864713E-1,-3.478775024E-1
1.989245314E1,1.867512822E0,7.487460375E-1,-2.055501044E-1
1.990161746E1,1.961583257E0,4.367557764E-1,-5.879404768E-2
1.991076897E1,2.073215485E0,-4.596625641E-2,5.543438718E-2
1.991990772E1,2.219513416E0,-5.992411375E-1,1.209477559E-1
1.992907204E1,2.401546001E0,-1.116476059E0,1.324011385E-1
1.993822356E1,2.606027126E0,-1.432131410E0,9.620844573E-2
1.994737507E1,2.794015408E0,-1.551246643E0,6.337540597E-2
1.995652663E1,2.931608677E0,-1.542694807E0,3.268032894E-2
1.996567814E1,3.023235798E0,-1.440988660E0,-1.084253844E-2
1.997481694E1,3.075005054E0,-1.278961420E0,-6.001574174E-2
1.998398121E1,3.095468521E0,-1.106855273E0,-1.197260618E-1
1.999313272E1,3.100660801E0,-9.092461467E-1,-1.681357026E-1
2.000227152E1,3.073477983E0,-6.901046634E-1,-1.947075576E-1
2.001143580E1,2.974520683E0,-5.256340504E-1,-1.797417998E-1
2.002058731E1,2.787906885E0,-4.172086716E-1,-1.200314835E-1
2.002973887E1,2.554563284E0,-3.498627543E-1,-4.718795046E-2
2.003889038E1,2.362757206E0,-3.124483824E-1,5.268557742E-2
2.004804189E1,2.319692373E0,-2.170034945E-1,1.342336833E-1
2.005719345E1,2.390856266E0,-1.588202827E-2,2.163926363E-1
2.006634496E1,2.448428631E0,2.104368806E-1,2.918322682E-1
2.007549647E1,2.488133669E0,2.765611112E-1,3.677300513E-1
2.008463527E1,2.558533669E0,1.522536725E-1,4.569137394E-1
2.009379954E1,2.551203489E0,-8.429691941E-2,5.118899941E-1
2.010295111E1,2.381082535E0,-2.907632887E-1,5.071559548E-1
2.011208986E1,2.155527353E0,-4.178195298E-1,4.703523815E-1
2.012125413E1,2.005411625E0,-5.741963983E-1,4.442386627E-1
2.013040569E1,1.986628056E0,-8.846595287E-1,4.266768098E-1
2.013955720E1,2.057791710E0,-1.324622273E0,4.030064642E-1
2.014870871E1,2.159955978E0,-1.642262816E0,3.497100472E-1
2.015786027E1,2.201646328E0,-1.641804695E0,2.681619525E-1
2.016699902E1,2.127886534E0,-1.488023877E0,1.899735034E-1
2.017616335E1,2.020682812E0,-1.401589036E0,1.366770715E-1
2.018531486E1,1.953184128E0,-1.352415800E0,1.104106456E-1
2.019445361E1,1.900651217E0,-1.272853017E0,1.168245375E-1
2.020361793E1,1.815285325E0,-1.182447553E0,1.698155403E-1
2.021276944E1,1.688992620E0,-1.093721986E0,2.507528067E-1
2.022192095E1,1.541014910E0,-9.297095537E-1,3.313846290E-1
2.023107251E1,1.366159916E0,-6.864396334E-1,3.817795515E-1
2.024022402E1,1.168550849E0,-4.468347728E-1,4.004103839E-1
2.024936283E1,9.866710305E-1,-2.964136302E-1,3.984251320E-1
2.025852710E1,8.483141065E-1,-2.677038014E-1,3.869717419E-1
2.026767861E1,7.576032877E-1,-3.203893900E-1,3.724641204E-1
2.027681741E1,6.774296165E-1,-3.651339412E-1,3.455868363E-1
2.028598168E1,5.592306852E-1,-3.570402265E-1,3.002314270E-1
2.029513319E1,4.052971601E-1,-2.997733057E-1,2.570139766E-1
2.030428475E1,2.535016239E-1,-2.554868758E-1,2.252499312E-1
2.031343626E1,1.330119967E-1,-2.838912606E-1,2.238755226E-1
2.032258777E1,5.528167635E-2,-3.750602305E-1,2.483094037E-1
2.033173934E1,-9.162709117E-3,-4.111002088E-1,2.822114229E-1
2.034089085E1,-1.091889441E-1,-3.261924386E-1,3.002314270E-1
2.035004241E1,-2.394521236E-1,-1.794363856E-1,3.042019308E-1
2.035919392E1,-3.665083647E-1,-7.543963939E-2,2.915268540E-1
2.036834543E1,-4.856235683E-1,-4.856235534E-2,2.718270421E-1
2.037749699E1,-5.989357233E-1,-6.276455522E-2,2.557922900E-1
2.038664850E1,-6.939224601E-1,-4.902049154E-2,2.441861928E-1
2.039580001E1,-7.773031592E-1,4.245388508E-2,2.324273884E-1
2.040495158E1,-8.796200752E-1,1.832541823E-1,2.261662036E-1
2.041410309E1,-1.010494113E0,2.673983872E-1,2.385358512E-1
2.042325460E1,-1.134190679E0,2.365505993E-1,2.658712566E-1
2.043240616E1,-1.248571754E0,2.003578991E-1,2.791571915E-1
2.044155767E1,-1.333326817E0,2.392994165E-1,2.771719396E-1
2.045070923E1,-1.405712247E0,2.626643181E-1,2.693836391E-1
2.045986074E1,-1.463590026E0,2.041756958E-1,2.562504113E-1
2.046901225E1,-1.386317849E0,5.879404768E-2,1.835595965E-1
2.047816382E1,-1.123500824E0,3.268032894E-2,5.405998230E-2
2.048731533E1,-8.629744649E-1,2.806843221E-1,3.191677108E-2
2.049645413E1,-9.097042680E-1,5.486935377E-1,1.542389393E-1
2.050561840E1,-1.223832488E0,3.698680103E-1,3.316900730E-1
2.051476991E1,-1.423121452E0,1.606528312E-1,5.251759291E-1
2.052390871E1,-1.464964390E0,4.085040987E-1,7.305732965E-1
2.053307298E1,-1.474738002E0,7.110261917E-1,7.882983685E-1
2.054222449E1,-1.475196123E0,4.230117202E-1,6.137487888E-1
2.055136330E1,-1.588813663E0,1.018587798E-1,3.426853120E-1
2.056052757E1,-1.785964727E0,5.871769190E-1,1.730224788E-1
2.056967913E1,-1.797418118E0,1.069593549E0,1.273616552E-1
2.057881788E1,-1.627602577E0,8.812998533E-1,1.623326540E-1
2.058798215E1,-1.503753185E0,5.589252710E-1,2.599155009E-1
2.059713371E1,-1.576291323E0,6.876612902E-1,3.680354655E-1
2.060627246E1,-1.820477486E0,1.091278672E0,4.391991794E-1
2.061543673E1,-1.972425818E0,1.251473308E0,4.674508572E-1
2.062458830E1,-1.840330124E0,1.020725727E0,4.630222321E-1
2.063372704E1,-1.594616771E0,7.221741676E-1,4.265241027E-1
2.064289137E1,-1.477028728E0,5.515950918E-1,3.578037918E-1
2.065204288E1,-1.469698548E0,4.795151055E-1,2.504473627E-1
2.066118168E1,-1.399909258E0,3.665083647E-1,1.472141892E-1
2.067034595E1,-1.226886749E0,2.677038014E-1,1.039967462E-1
2.067949746E1,-1.117392302E0,2.312056869E-1,9.071081877E-2
2.068864897E1,-1.135106921E0,2.745758295E-1,9.422318637E-2
2.069780054E1,-1.190846682E0,2.948864996E-1,1.078145429E-1
2.070695204E1,-1.202911019E0,2.707580328E-1,1.053711548E-1
2.071610361E1,-1.139840961E0,2.690782249E-1,8.383878320E-2
2.072525512E1,-1.041341901E0,1.539335102E-1,4.795150831E-2
2.073440663E1,-9.630007148E-1,2.977880463E-2,1.068982668E-2
2.074355819E1,-9.072608948E-1,1.466033421E-2,-2.244863659E-2
2.075270970E1,-8.816053271E-1,-1.068982668E-2,-5.222744122E-2
2.076186126E1,-8.806890249E-1,2.657185495E-2,-6.505523622E-2
2.077101277E1,-8.614473343E-1,7.910472155E-2,-6.429167092E-2
2.078016428E1,-8.322793841E-1,1.285833418E-1,-5.192201585E-2
2.078931585E1,-8.457180262E-1,2.425063550E-1,-4.718795046E-2
2.079846736E1,-9.078717232E-1,3.749074936E-1,-3.741439432E-2
2.080761892E1,-9.846857786E-1,4.020902216E-1,-1.236965694E-2
2.081677043E1,-1.033706307E0,4.147652984E-1,1.847812906E-2
2.082590923E1,-1.036760569E0,4.069769979E-1,3.802524135E-2
2.083507350E1,-1.026528835E0,2.967190444E-1,2.046338283E-2
2.084422501E1,-1.010494113E0,1.760767251E-1,-1.542389300E-2
2.085337652E1,-9.845330715E-1,1.104106456E-1,-2.550287358E-2
2.086252809E1,-9.698727131E-1,-1.863084175E-2,-2.779355086E-2
2.087167960E1,-9.857547879E-1,-9.880454093E-2,-4.978405312E-2
2.088083116E1,-9.845330715E-1,-8.979454637E-2,-7.360709459E-2
2.088998267E1,-9.402466416E-1,-7.238540053E-2,-8.612946421E-2
2.089913418E1,-8.797727823E-1,-6.566607952E-2,-9.376505762E-2
2.090828574E1,-8.710681796E-1,-7.711946964E-2,-7.589777559E-2
2.091743725E1,-8.988617659E-1,-3.237490356E-2,-3.466558084E-2
2.092658882E1,-9.523108602E-1,6.169557199E-2,4.581354442E-4
2.093574033E1,-1.024543524E0,1.447708011E-1,2.244863659E-2
2.094489184E1,-1.071578860E0,2.298312783E-1,3.603998944E-2
2.095404340E1,-1.069288135E0,3.177932799E-1,3.176405653E-2
2.096319491E1,-1.039356589E0,4.231644273E-1,2.458660305E-2
2.097234647E1,-1.021642089E0,5.189147592E-1,1.053711493E-2
2.098149798E1,-1.008966923E0,6.219952106E-1,-1.679830020E-3
2.099064949E1,-9.796462655E-1,6.714738607E-1,-1.924168877E-2
2.099980106E1,-9.280297160E-1,6.250494719E-1,-4.566083103E-2
2.100895257E1,-8.764131069E-1,6.647545099E-1,-8.383878320E-2
2.101810408E1,-8.419002295E-1,7.698202729E-1,-1.629435122E-1
2.102725564E1,-8.315158486E-1,8.812998533E-1,-2.154763639E-1
2.103640715E1,-8.895463347E-1,9.028322697E-1,-2.324273884E-1
2.104555871E1,-9.602518678E-1,7.314895988E-1,-2.418955117E-1
2.105471022E1,-9.633061290E-1,6.024481058E-1,-2.596100867E-1
2.106386178E1,-9.388722181E-1,6.294780970E-1,-2.686200738E-1
2.107300054E1,-9.463551044E-1,6.343649030E-1,-2.600682080E-1
2.108216480E1,-9.630007148E-1,4.952444136E-1,-2.551814318E-1
2.109131637E1,-9.284878373E-1,2.939702570E-1,-2.707580328E-1
2.110046788E1,-8.733588457E-1,2.244863659E-1,-3.045073450E-1
2.110961944E1,-8.832851648E-1,2.341072112E-1,-3.248180151E-1
2.111877095E1,-9.678874612E-1,2.412846684E-1,-3.283303976E-1
2.112792246E1,-1.068524599E0,2.585411072E-1,-3.095468581E-1
2.113707402E1,-1.141215444E0,3.006895781E-1,-2.777827978E-1
2.114622554E1,-1.191152096E0,3.562766612E-1,-2.538070381E-1
2.115537704E1,-1.218182087E0,4.285093546E-1,-2.454078794E-1
2.116452861E1,-1.221389055E0,4.387410581E-1,-2.539597452E-1
2.117368012E1,-1.195580840E0,3.875826001E-1,-2.745758295E-1
2.118283168E1,-1.155570269E0,3.350497186E-1,-3.017585576E-1
2.119198319E1,-1.107466102E0,3.471139669E-1,-3.222219348E-1
2.120113470E1,-1.061805248E0,4.217900336E-1,-3.347443044E-1
2.121028626E1,-1.040731072E0,5.375455618E-1,-3.370349705E-1
2.121943777E1,-1.066081166E0,6.821636558E-1,-3.342861533E-1
2.122858928E1,-1.124111652E0,8.357917666E-1,-3.151971996E-1
2.123772809E1,-1.160304427E0,9.538379908E-1,-3.087832928E-1
2.124689236E1,-1.099219680E0,9.466605186E-1,-3.188622594E-1
2.125604392E1,-9.046648145E-1,8.432746530E-1,-3.240544796E-1
2.126519543E1,-5.830537081E-1,7.113316059E-1,-3.113794029E-1
2.127434694E1,-2.195995897E-1,5.836645365E-1,-2.933593988E-1
2.128349850E1,1.130067408E-1,5.425850749E-1,-2.837385535E-1
2.129265001E1,4.149180055E-1,6.256603003E-1,-2.822114229E-1
2.130180158E1,7.282826304E-1,7.388197780E-1,-2.965663373E-1
2.131095309E1,1.085628271E0,7.718055248E-1,-3.289412558E-1
2.132010460E1,1.457023382E0,6.884248853E-1,-3.762819171E-1
2.132925616E1,1.776038408E0,5.207473040E-1,-3.819322586E-1
2.133840767E1,2.011978149E0,2.828222811E-1,-3.074088693E-1
2.134755923E1,2.164384604E0,6.261184346E-3,-2.145601064E-1
2.135671074E1,2.270977497E0,-3.042019308E-1,-1.256818175E-1
2.136586225E1,2.379250050E0,-5.905365944E-1,-3.970507160E-2
2.137500106E1,2.539750099E0,-7.973083854E-1,2.015795931E-2
2.138416533E1,2.740108013E0,-8.806890249E-1,6.383354217E-2
2.139331689E1,2.916184902E0,-8.777875304E-1,1.076618284E-1
2.140246840E1,3.025526524E0,-7.979192138E-1,1.530172378E-1
2.141161991E1,3.063399076E0,-6.965186000E-1,1.905843467E-1
2.142077147E1,3.041866541E0,-5.752654076E-1,2.012741715E-1
2.142992298E1,2.959096909E0,-4.833329022E-1,1.756185889E-1
2.143907454E1,2.840897799E0,-3.993414044E-1,1.337755471E-1
2.144822606E1,2.755837440E0,-3.687990308E-1,9.345962852E-2
2.145736486E1,2.748812675E0,-4.695888162E-1,7.024743408E-2
2.146652913E1,2.818601847E0,-6.328377724E-1,6.291726977E-2
2.147568064E1,2.939244270E0,-7.586722970E-1,6.810946763E-2
2.148481944E1,3.051640272E0,-7.898254991E-1,7.818844914E-2
2.149398371E1,3.090887070E0,-6.956022978E-1,9.483403713E-2
2.150313522E1,3.027053595E0,-5.447230339E-1,1.424801201E-1
2.151227402E1,2.880908489E0,-3.718532622E-1,2.176143378E-1
2.152143830E1,2.697196007E0,-1.939440072E-1,3.005368412E-1
2.153058980E1,2.515927076E0,-1.740914769E-2,3.949127495E-1
2.153974137E1,2.379250050E0,6.352811307E-2,4.946335554E-1
2.154889288E1,2.307170153E0,7.177455351E-3,5.760289431E-1
2.155804444E1,2.285790443E0,-8.567132801E-2,6.120689511E-1
2.156718319E1,2.297091007E0,-1.705790907E-1,5.906893015E-1
2.157634746E1,2.334200144E0,-2.460187376E-1,5.543438792E-1
2.158549902E1,2.351456642E0,-3.660502136E-1,5.186093450E-1
2.159465054E1,2.331756592E0,-5.613686442E-1,4.996730685E-1
2.160380210E1,2.284263372E0,-8.364025950E-1,4.952444136E-1
2.161295361E1,2.211419821E0,-1.103953719E0,4.845545888E-1
2.162209241E1,2.106659412E0,-1.296065211E0,4.436278343E-1
2.163125668E1,1.977770686E0,-1.397160411E0,3.787252903E-1
2.164040819E1,1.859571815E0,-1.447555304E0,3.113794029E-1
2.164954699E1,1.747634053E0,-1.471989155E0,2.599155009E-1
2.165871126E1,1.641193867E0,-1.477181435E0,2.322746664E-1
2.166786277E1,1.548803210E0,-1.465269804E0,2.212794125E-1
2.167700158E1,1.441904902E0,-1.437170863E0,2.058555335E-1
2.168616585E1,1.291331053E0,-1.347681761E0,1.864611208E-1
2.169531741E1,1.119377613E0,-1.195580840E0,1.655396074E-1
2.170446892E1,9.646805525E-1,-1.038745761E0,1.472141892E-1
2.171362043E1,8.296833038E-1,-9.081771374E-1,1.406475753E-1
2.172277199E1,6.978929639E-1,-7.882983685E-1,1.574458778E-1
2.173192350E1,5.578562617E-1,-6.325323582E-1,1.745496094E-1
2.174107507E1,4.202629030E-1,-4.222481549E-1,1.942494214E-1
2.175022658E1,2.794626355E-1,-2.023431510E-1,2.229592502E-1
2.175937809E1,1.250709742E-1,-4.825693369E-2,2.567085624E-1
2.176852965E1,-2.886253223E-2,8.857285604E-3,2.841966748E-1
2.177768116E1,-1.687465608E-1,-1.053711493E-2,3.069507480E-1
2.178683267E1,-2.822114229E-1,-1.068982668E-2,3.318427801E-1
2.179598423E1,-3.787252903E-1,8.689302206E-2,3.469612300E-1
2.180513574E1,-4.645493329E-1,2.530434728E-1,3.431434333E-1
2.181427454E1,-5.599942207E-1,3.762819171E-1,3.240544796E-1
2.182343882E1,-6.719319820E-1,3.695625961E-1,3.080197275E-1
2.183259038E1,-7.840224504E-1,2.205158621E-1,3.074088693E-1
2.184174189E1,-8.851176500E-1,3.359660041E-3,3.135173619E-1
2.185089340E1,-9.900307059E-1,-1.359135211E-1,3.159607351E-1
2.186004496E1,-1.097387075E0,-1.272089481E-1,3.164188862E-1
2.186918371E1,-1.179087877E0,-2.000524849E-2,3.188622594E-1
2.187834798E1,-1.240172625E0,6.062658876E-2,3.121429384E-1
2.188749954E1,-1.252847672E0,5.024218559E-2,2.870981991E-1
2.189665106E1,-1.194206357E0,1.038440317E-2,2.221956849E-1
2.190580262E1,-1.108076930E0,1.198787764E-1,1.372879148E-1
2.191495413E1,-1.057682037E0,4.367557764E-1,9.895725548E-2
2.192409293E1,-1.092805743E0,7.527165413E-1,1.734806150E-1
2.193325720E1,-1.243837714E0,7.536327839E-1,3.153499067E-1
2.194240871E1,-1.436560035E0,4.514161348E-1,4.723376334E-1
2.195154751E1,-1.529408813E0,2.162399292E-1,6.374191046E-1
2.196071178E1,-1.490467310E0,4.517215490E-1,7.009472251E-1
2.196986335E1,-1.373337388E0,7.104153633E-1,5.801522136E-1
2.197901486E1,-1.228566527E0,3.904841244E-1,3.683409095E-1
2.198816637E1,-1.262315869E0,5.528167635E-2,1.808107942E-1
2.199731793E1,-1.516886473E0,3.112266660E-1,8.842013776E-2
2.200645668E1,-1.644706249E0,6.690304875E-1,1.081199646E-1
2.201562100E1,-1.502378821E0,7.528692484E-1,2.414373755E-1
2.202477251E1,-1.317902923E0,7.153021693E-1,4.107947946E-1
2.203391132E1,-1.349667072E0,6.499415040E-1,5.070032477E-1
2.204307559E1,-1.589882731E0,6.255075932E-1,5.089884996E-1
2.205222710E1,-1.756644011E0,6.852179170E-1,4.631749392E-1
2.206136590E1,-1.698460817E0,6.888830066E-1,4.117110670E-1
2.207053017E1,-1.536891699E0,5.677825212E-1,3.605526090E-1
2.207968168E1,-1.420983434E0,3.880407214E-1,2.802261710E-1
2.208882048E1,-1.348139882E0,2.860292196E-1,1.867665499E-1
2.209798475E1,-1.230399132E0,1.815743446E-1,9.788827598E-2
2.210713632E1,-1.063026905E0,8.170082420E-2,6.673506647E-2
2.211627507E1,-9.709417224E-1,5.222744122E-2,6.612421572E-2
2.212543934E1,-9.816315174E-1,9.437590092E-2,4.046862945E-2
2.213459090E1,-1.026986957E0,1.412584335E-1,2.168507688E-2
2.214372965E1,-1.038898468E0,1.629435122E-1,2.901524492E-2
2.215289397E1,-1.000262380E0,1.763821393E-1,6.032116711E-2
2.216204548E1,-9.500201941E-1,1.838650256E-1,9.926267713E-2
2.217119705E1,-9.202414155E-1,1.617218107E-1,1.232384369E-1
2.218034856E1,-9.049702287E-1,9.361234307E-2,1.331647038E-1
2.218950007E1,-8.910734653E-1,5.940489471E-2,1.339282542E-1
2.219865163E1,-8.501466513E-1,4.596625641E-2,1.079672500E-1
2.220780314E1,-7.881456614E-1,3.573456407E-2,6.322269142E-2
2.221695470E1,-7.441646457E-1,4.031591862E-2,3.054236295E-3
2.222610621E1,-7.264500856E-1,7.452336699E-2,-5.543438718E-2
2.223525772E1,-7.240067124E-1,1.743968874E-1,-9.819369763E-2
2.224440928E1,-7.562289238E-1,3.393256664E-1,-1.156028435E-1
2.225356080E1,-8.209787011E-1,4.761554301E-1,-1.131594554E-1
2.226271236E1,-8.793146014E-1,5.796940327E-1,-8.857285231E-2
2.227186387E1,-9.358180165E-1,6.713211536E-1,-3.970507160E-2
2.228100267E1,-9.730796814E-1,6.763606071E-1,3.512371797E-3
2.229016694E1,-9.814788103E-1,6.294780970E-1,4.611896724E-2
2.229931845E1,-9.584193230E-1,5.193728805E-1,6.352811307E-2
2.230845725E1,-9.031376839E-1,3.494046330E-1,5.360184610E-2
2.231762152E1,-8.539644480E-1,1.878355294E-1,1.527118147E-3
2.232677304E1,-8.200624585E-1,7.559234649E-2,-6.581879407E-2
2.233592460E1,-7.922688723E-1,2.107422985E-2,-1.151447073E-1
2.234507611E1,-7.545490861E-1,-5.115845799E-2,-1.472141892E-1
2.235422767E1,-7.059867382E-1,-8.796200156E-2,-1.669140160E-1
2.236336642E1,-6.972821355E-1,-3.374931216E-2,-1.656923145E-1
2.237253074E1,-7.452336550E-1,6.749862432E-2,-1.391204596E-1
2.238168225E1,-8.070819378E-1,2.344126403E-1,-1.146865711E-1
2.239083376E1,-8.525900841E-1,4.141544402E-1,-8.842013776E-2
2.239998533E1,-8.756495714E-1,5.647283196E-1,-5.741964281E-2
2.240913684E1,-8.686248064E-1,6.792621613E-1,-3.970507160E-2
2.241828840E1,-8.419002295E-1,7.751652002E-1,-3.359659761E-2
2.242743991E1,-8.079982400E-1,8.573241234E-1,-3.100049868E-2
2.243659147E1,-7.849387527E-1,8.892409205E-1,-3.008422814E-2
2.244574298E1,-7.953231335E-1,8.788564801E-1,-3.268032894E-2
2.245489449E1,-8.322793841E-1,8.812998533E-1,-4.337015375E-2
2.246404606E1,-8.829796910E-1,9.087880254E-1,-6.688777357E-2
2.247319757E1,-9.086353183E-1,9.013051391E-1,-1.159082651E-1
2.248234913E1,-8.872556686E-1,8.192988634E-1,-1.469087601E-1
2.249150064E1,-8.420529366E-1,6.583406329E-1,-1.678302884E-1
2.250065215E1,-8.144121170E-1,4.636330605E-1,-1.980672181E-1
2.250980371E1,-8.078454733E-1,2.936648130E-1,-2.307475507E-1
2.251895522E1,-8.116632700E-1,1.820324808E-1,-2.496838123E-1
2.252810679E1,-8.367080092E-1,8.612946421E-2,-2.669402659E-1
2.253725830E1,-8.758022785E-1,-6.108472589E-3,-2.811424434E-1
2.254640980E1,-9.057337642E-1,-3.329117596E-2,-2.886253297E-1
2.255556137E1,-9.098569751E-1,1.725643501E-2,-3.026748300E-1
2.256471288E1,-9.268079996E-1,3.833066672E-2,-2.968717813E-1
2.257386444E1,-9.726215601E-1,4.627167806E-2,-2.660239935E-1
2.258301595E1,-1.030346632E0,8.124268800E-2,-2.328855246E-1
2.259216751E1,-1.086544514E0,1.553079188E-1,-2.028012872E-1
2.260131902E1,-1.123958945E0,2.516690791E-1,-1.811162084E-1
2.261047054E1,-1.141062737E0,3.089359999E-1,-1.806580722E-1
2.261962210E1,-1.154654026E0,3.264978528E-1,-1.911951900E-1
2.262877361E1,-1.162289619E0,3.523061574E-1,-2.003578991E-1
2.263792517E1,-1.156639338E0,4.178195298E-1,-2.150182426E-1
2.264707668E1,-1.156028390E0,5.015056133E-1,-2.272351831E-1
2.265622819E1,-1.167939901E0,5.882459283E-1,-2.316638231E-1
2.266537975E1,-1.164427638E0,6.775823236E-1,-2.269297540E-1
2.267453126E1,-1.118614078E0,7.313368917E-1,-2.278460264E-1
2.268368283E1,-1.000873208E0,7.302678823E-1,-2.354816198E-1
2.269282158E1,-7.959339619E-1,6.901046634E-1,-2.371614426E-1
2.270198585E1,-5.306735635E-1,6.772769094E-1,-2.400629669E-1
2.271113741E1,-2.383831441E-1,6.668924689E-1,-2.502946556E-1
2.272028892E1,6.047387794E-2,6.161921620E-1,-2.634278834E-1
2.272944048E1,3.652866483E-1,5.279247165E-1,-2.922904193E-1
2.273859199E1,6.690304875E-1,4.233171642E-1,-3.445178568E-1
2.274774350E1,9.517000318E-1,3.379512429E-1,-4.150707126E-1
2.275689507E1,1.201841950E0,3.127537966E-1,-4.920374751E-1
2.276604658E1,1.415485859E0,3.642176688E-1,-5.448757410E-1
2.277519814E1,1.577513099E0,4.559974670E-1,-5.431959033E-1
2.278434965E1,1.683647752E0,5.419742465E-1,-4.808894992E-1
2.279350121E1,1.767944694E0,5.847335458E-1,-3.715478480E-1
2.280263996E1,1.876217365E0,5.431959033E-1,-2.408265322E-1
2.281180423E1,2.039160967E0,3.281776905E-1,-1.117850468E-1
2.282095580E1,2.273573399E0,-9.345962852E-2,-4.886778072E-3
2.283009454E1,2.547538519E0,-6.519267559E-1,5.864133686E-2
2.283925887E1,2.790197611E0,-1.114948988E0,7.650861889E-2
2.284841038E1,2.912367105E0,-1.207034230E0,6.032116711E-2
2.285756194E1,2.903662443E0,-9.684983492E-1,3.756710514E-2
2.286671345E1,2.842730522E0,-5.438067913E-1,3.206948051E-3
2.287586496E1,2.807759523E0,-2.047865391E-1,-3.573456407E-2
2.288501652E1,2.827001095E0,-6.490252167E-2,-4.489727318E-2
2.289416804E1,2.845021009E0,-9.086353332E-2,-3.436015919E-2
2.290331960E1,2.807301283E0,-1.690519750E-1,8.093725890E-3
2.291247111E1,2.700250387E0,-2.273878902E-1,6.780404598E-2
2.292162262E1,2.580524206E0,-2.997733057E-1,1.189625040E-1
2.293077418E1,2.510887623E0,-4.454603493E-1,1.626380831E-1
2.293992569E1,2.513636589E0,-6.401679516E-1,1.792836636E-1
2.294907725E1,2.567085505E0,-8.419002295E-1,1.931804419E-1
2.295822876E1,2.646953821E0,-9.411629438E-1,2.035648525E-1
2.296736757E1,2.706511497E0,-8.434273601E-1,2.082989216E-1
2.297653184E1,2.708496809E0,-5.740436912E-1,1.878355294E-1
2.298568335E1,2.642678022E0,-2.325800955E-1,1.597365588E-1
2.299483491E1,2.537917614E0,4.077405483E-2,1.531699449E-1
2.300398642E1,2.436669827E0,1.154501289E-1,1.916533262E-1
2.301313798E1,2.363978863E0,-5.543438718E-2,2.620534599E-1
2.302228949E1,2.334810972E0,-3.355078697E-1,3.158080280E-1
2.303144106E1,2.334658146E0,-5.494571328E-1,3.312319219E-1
2.304059257E1,2.332978487E0,-6.975875497E-1,3.410054743E-1
2.304974408E1,2.316638231E0,-8.151756525E-1,3.715478480E-1
2.305889564E1,2.283957958E0,-9.006943107E-1,4.007157981E-1
2.306804715E1,2.237380743E0,-9.828532338E-1,3.631486893E-1
2.307719871E1,2.176143408E0,-1.059667230E0,2.651077211E-1
2.308635022E1,2.102230787E0,-1.016297102E0,1.699682474E-1
2.309550173E1,2.027249336E0,-8.725953102E-1,1.046075895E-1
2.310465330E1,1.944479585E0,-7.524111271E-1,6.963659078E-2
2.311380480E1,1.873926640E0,-7.356128097E-1,5.696150661E-2
2.312295637E1,1.815743446E0,-7.742488980E-1,6.444438547E-2
2.313210788E1,1.747939467E0,-7.995990515E-1,8.780929446E-2
2.314125939E1,1.672041655E0,-7.893673778E-1,1.105633527E-1
2.315041095E1,1.577971220E0,-7.678350210E-1,1.281252056E-1
2.315956246E1,1.470462084E0,-7.395833135E-1,1.420219839E-1
2.316871402E1,1.348750710E0,-6.934643388E-1,1.368297935E-1
2.317786554E1,1.211462855E0,-6.358919740E-1,1.108687744E-1
2.318701710E1,1.072953224E0,-5.746545792E-1,8.475505561E-2
2.319616861E1,9.539906979E-1,-5.054761171E-1,7.773031294E-2
2.320532012E1,8.699992299E-1,-4.923428893E-1,8.811471611E-2
2.321447168E1,8.025006056E-1,-5.340332389E-1,1.078145429E-1
2.322362319E1,7.272136807E-1,-5.401417017E-1,1.287360638E-1
2.323277475E1,6.229115129E-1,-4.564556181E-1,1.455343664E-1
2.324191350E1,4.793623984E-1,-3.300102353E-1,1.640124917E-1
2.325107777E1,3.092414141E-1,-1.989834905E-1,1.817270666E-1
2.326022934E1,1.542389393E-1,-9.544488788E-2,1.908897758E-1
2.326938085E1,2.153236605E-2,-2.901524538E-3,1.928750277E-1
2.327853241E1,-1.012479365E-1,8.063183725E-2,1.889045089E-1
2.328768392E1,-1.940967143E-1,1.233911440E-1,1.858502775E-1
2.329683548E1,-2.434226274E-1,1.250709742E-1,1.921114624E-1
2.330598699E1,-2.861819267E-1,8.338065445E-2,1.901262105E-1
2.331513850E1,-3.651339412E-1,2.840439789E-2,1.817270666E-1
2.332429007E1,-4.700469673E-1,-2.305948362E-2,1.760767251E-1
2.333344158E1,-6.331431866E-1,1.893626526E-2,1.730224788E-1
2.334259314E1,-8.532009125E-1,1.499630064E-1,1.737860441E-1
2.335173189E1,-1.045617819E0,2.231119573E-1,1.840177327E-1
2.336089616E1,-1.095554590E0,1.488940120E-1,1.812689304E-1
2.337004772E1,-1.026528835E0,-1.801999472E-2,1.140757278E-1
2.337918652E1,-9.116895199E-1,-1.070509851E-1,-2.977880463E-2
2.338835080E1,-9.045121074E-1,8.612946421E-2,-9.575030953E-2
2.339750230E1,-1.094943762E0,3.581092060E-1,4.489727318E-2
2.340664111E1,-1.330272675E0,4.430169761E-1,2.770192325E-1
2.341580538E1,-1.443279386E0,4.311054647E-1,5.077667832E-1
2.342495689E1,-1.374711752E0,8.832851648E-1,7.020162344E-1
2.343410845E1,-1.198634982E0,1.392731786E0,6.998782754E-1
2.344325996E1,-1.213906169E0,7.539382577E-1,5.262449384E-1
2.345241152E1,-1.633863688E0,-6.551336497E-2,4.097257853E-1
2.346156304E1,-1.928139329E0,4.043808877E-1,3.742966652E-1
2.347071460E1,-1.705943704E0,1.044396043E0,2.709107697E-1
2.347986611E1,-1.332410574E0,9.733850956E-1,1.270562261E-1
2.348900491E1,-1.168856263E0,8.502993584E-1,4.596625641E-2
2.349816918E1,-1.300341129E0,8.377770185E-1,1.065928489E-1
2.350732069E1,-1.540251374E0,7.831062078E-1,2.551814318E-1
2.351645949E1,-1.638750434E0,7.934905887E-1,3.564293683E-1
2.352562376E1,-1.486802220E0,6.679614782E-1,3.863608837E-1
2.353477533E1,-1.221236348E0,4.056025743E-1,3.750602305E-1
2.354392684E1,-1.089598775E0,3.110739589E-1,3.436015844E-1
2.355307840E1,-1.158471823E0,3.747547865E-1,3.205420971E-1
2.356222991E1,-1.291331053E0,4.179722369E-1,3.310792148E-1
2.357138142E1,-1.403268814E0,5.595360994E-1,3.741439581E-1
2.358053298E1,-1.454427361E0,7.441646457E-1,4.298837483E-1
2.358968449E1,-1.406323075E0,7.968502641E-1,4.711159468E-1
2.359882330E1,-1.329356313E0,6.565080881E-1,4.894413650E-1
2.360798757E1,-1.278503299E0,4.220954478E-1,4.705050886E-1
2.361713908E1,-1.216655016E0,1.539335102E-1,4.002576768E-1
2.362627788E1,-1.095707297E0,-1.615691036E-1,2.866400778E-1
2.363544215E1,-9.587247968E-1,-3.907895386E-1,1.734806150E-1
2.364459371E1,-8.179244995E-1,-5.317425132E-1,1.110214889E-1
2.365373246E1,-7.504258752E-1,-6.342121959E-1,9.819369763E-2
2.366289678E1,-7.971556783E-1,-6.439857483E-1,1.039967462E-1
2.367204830E1,-8.793146014E-1,-5.625903010E-1,1.107160673E-1
2.368119981E1,-9.350544214E-1,-3.909422457E-1,1.131594554E-1
2.369035137E1,-9.359707236E-1,-2.221956849E-1,1.119377613E-1
2.369950288E1,-9.133693576E-1,-1.884463727E-1,9.972081333E-2
2.370865444E1,-9.152019024E-1,-1.867665499E-1,7.101099193E-2
2.371780595E1,-9.388722181E-1,-7.253811508E-2,3.726168349E-2
2.372695751E1,-8.924478292E-1,6.734590977E-2,1.053711493E-2
2.373610902E1,-8.163973689E-1,1.980672181E-1,-4.886778072E-3
2.374526059E1,-7.879929543E-1,3.168770075E-1,-5.344913341E-3
2.375441210E1,-8.186880350E-1,5.060869455E-1,1.206423342E-2
2.376356361E1,-8.777875304E-1,5.639647245E-1,3.237490356E-2
2.377271517E1,-9.439117312E-1,6.339067221E-1,6.047387794E-2
2.378186668E1,-1.026528835E0,6.910209656E-1,7.941014320E-2
2.379100548E1,-1.106397152E0,6.051968932E-1,6.230641901E-2
2.380016975E1,-1.131441832E0,4.508052766E-1,2.137965336E-2
2.380932132E1,-1.051420808E0,2.761029601E-1,-1.939439960E-2
2.381847283E1,-9.142856598E-1,5.070032179E-2,-5.360184610E-2
2.382762434E1,-8.237275481E-1,-1.287360638E-1,-9.071081877E-2
2.383677590E1,-7.977665067E-1,-2.035648525E-1,-1.131594554E-1
2.384592741E1,-7.821899056E-1,-2.706053257E-1,-1.441599578E-1
2.385507897E1,-7.583668828E-1,-2.936648130E-1,-1.792836636E-1
2.386423048E1,-7.354601026E-1,-2.990097404E-1,-1.876828223E-1
2.387338205E1,-7.701256871E-1,-2.922904193E-1,-1.727170646E-1
2.388253356E1,-8.632798791E-1,-1.574458778E-1,-1.417165697E-1
2.389168507E1,-9.400939345E-1,-1.817270555E-2,-7.941014320E-2
2.390083663E1,-9.927794933E-1,1.128540337E-1,-6.108472589E-4
2.390998814E1,-1.029430389E0,2.498365343E-1,7.360709459E-2
2.391913970E1,-1.040578246E0,2.970244884E-1,1.290414780E-1
2.392829121E1,-1.040425539E0,2.857238054E-1,1.565296054E-1
2.393744277E1,-1.024696231E0,3.051182032E-1,1.603474021E-1
2.394659428E1,-9.762866497E-1,2.803788781E-1,1.490467340E-1
2.395574580E1,-9.006943107E-1,1.797417998E-1,1.240019947E-1
2.396489736E1,-8.273926377E-1,1.351499557E-1,9.101624042E-2
2.397404887E1,-7.795938253E-1,1.104106456E-1,4.184303805E-2
2.398320043E1,-7.524111271E-1,6.200099736E-2,-1.404948719E-2
2.399235194E1,-7.398887277E-1,1.287360638E-1,-5.497625470E-2
2.400150350E1,-7.589777112E-1,2.870981991E-1,-8.521319181E-2
2.401065501E1,-7.945595980E-1,4.127800465E-1,-1.026223376E-1
2.401980658E1,-8.507575393E-1,5.651864409E-1,-1.067455560E-1
2.402895809E1,-8.996253014E-1,7.206470370E-1,-1.090362370E-1
2.403810960E1,-9.321529269E-1,8.344173431E-1,-1.117850468E-1
2.404726116E1,-9.517000318E-1,8.959602118E-1,-1.107160673E-1
2.405641267E1,-9.484930634E-1,8.741224408E-1,-1.125486046E-1
2.406555147E1,-9.170344472E-1,7.488987446E-1,-1.183516532E-1
2.407471574E1,-8.645015955E-1,6.055023670E-1,-1.429382563E-1
2.408386731E1,-8.029587269E-1,5.071559548E-1,-1.936385781E-1
2.409301882E1,-7.473716140E-1,4.431696832E-1,-2.512109280E-1
2.410217033E1,-7.154548764E-1,3.984251320E-1,-2.790044844E-1
2.411132189E1,-7.209524512E-1,3.924693763E-1,-2.773246467E-1
2.412047345E1,-7.411104441E-1,4.262186885E-1,-2.622061968E-1
2.412962496E1,-7.734853625E-1,4.648547769E-1,-2.466295809E-1
2.413877647E1,-8.350282311E-1,5.250232220E-1,-2.385358512E-1
2.414792804E1,-8.913788795E-1,5.453338623E-1,-2.304421216E-1
2.415707955E1,-9.058864713E-1,5.146388412E-1,-2.359397560E-1
2.416623111E1,-8.848122358E-1,4.465293586E-1,-2.486148328E-1
2.417538262E1,-8.620582223E-1,3.808632791E-1,-2.599155009E-1
2.418453418E1,-8.635852933E-1,3.471139669E-1,-2.684673667E-1
2.419368569E1,-8.910734653E-1,3.205420971E-1,-2.710634768E-1
2.420283720E1,-9.179506898E-1,2.945810854E-1,-2.779355049E-1
2.421198876E1,-9.344435930E-1,2.841966748E-1,-2.933593988E-1
2.422114027E1,-9.520054460E-1,3.153499067E-1,-3.100049794E-1
2.423029184E1,-9.671239257E-1,3.701734245E-1,-3.217637837E-1
2.423944335E1,-9.749122262E-1,4.063661397E-1,-3.180987239E-1
2.424859486E1,-9.724688530E-1,4.088095427E-1,-2.985515893E-1
2.425774642E1,-9.546015263E-1,3.891097009E-1,-2.747285664E-1
2.426689793E1,-9.113841057E-1,3.759764731E-1,-2.559449971E-1
2.427604949E1,-8.177717924E-1,3.959817290E-1,-2.486148328E-1
2.428520100E1,-6.675033569E-1,4.101839364E-1,-2.402156889E-1
2.429435257E1,-4.750864506E-1,3.929274976E-1,-2.359397560E-1
2.430350408E1,-2.454078794E-1,3.565820754E-1,-2.591519356E-1
2.431264288E1,2.183778957E-2,3.344388604E-1,-3.049654961E-1
2.432180715E1,3.049654961E-1,3.304683566E-1,-3.567348123E-1
2.433095866E1,5.789304972E-1,3.156553209E-1,-3.999522328E-1
2.434009746E1,8.196043372E-1,3.063398898E-1,-4.508052766E-1
2.434926173E1,1.021336675E0,3.239017725E-1,-5.018110275E-1
2.435841330E1,1.194969893E0,4.185830951E-1,-5.367820263E-1
2.436756480E1,1.366007209E0,5.960342288E-1,-5.540384650E-1
2.437671637E1,1.549719453E0,8.047912717E-1,-5.589252710E-1
2.438586788E1,1.747175932E0,9.949174523E-1,-5.418215394E-1
2.439500668E1,1.932109833E0,1.103953719E0,-4.813476503E-1
2.440417095E1,2.083600044E0,1.069593549E0,-3.874298632E-1
2.441332246E1,2.206838369E0,8.805363178E-1,-2.643441558E-1
2.442246126E1,2.319845200E0,5.213581324E-1,-1.349972486E-1
2.443162554E1,2.425674438E0,6.230641901E-2,4.581354442E-4
2.444077710E1,2.519897699E0,-3.527642787E-1,1.320957243E-1
2.444991585E1,2.604958057E0,-6.789567471E-1,2.544178963E-1
2.445908017E1,2.710176468E0,-8.321266770E-1,3.248180151E-1
2.446823168E1,2.830818892E0,-9.029849768E-1,3.593308926E-1
2.447738324E1,2.901219130E0,-9.268079996E-1,3.775036037E-1
2.448653475E1,2.893736124E0,-8.950439692E-1,3.463504016E-1
2.449568626E1,2.826543093E0,-7.905890942E-1,2.713688910E-1
2.450483783E1,2.763625622E0,-6.771242023E-1,1.718007922E-1
2.451398934E1,2.748201847E0,-6.215370893E-1,6.490252167E-2
2.452314090E1,2.772941113E0,-6.566607952E-1,-3.359660041E-3
2.453227965E1,2.805468798E0,-7.904363275E-1,2.443389036E-3
2.454144397E1,2.808522940E0,-9.630007148E-1,6.856760383E-2
2.455059548E1,2.766069174E0,-1.065928459E0,1.470614821E-1
2.455974704E1,2.689560413E0,-1.021794796E0,1.966928244E-1
2.456889856E1,2.603736401E0,-8.892409205E-1,2.331909388E-1
2.457805012E1,2.545553207E0,-7.307260633E-1,2.704526186E-1
2.458720163E1,2.522493839E0,-5.763344169E-1,2.896943092E-1
2.459635314E1,2.501572132E0,-4.456130862E-1,3.170297146E-1
2.460550470E1,2.456522226E0,-3.943018913E-1,3.440597057E-1
2.461465621E1,2.385358572E0,-4.286620617E-1,3.539859951E-1
2.462380777E1,2.304726601E0,-5.854970813E-1,3.504736125E-1
2.463295929E1,2.254637241E0,-7.695148587E-1,3.356605768E-1
2.464211085E1,2.238907814E0,-8.521319032E-1,3.093941510E-1
2.465126236E1,2.235090017E0,-8.199097514E-1,2.751866877E-1
2.466041387E1,2.212030649E0,-7.747070193E-1,2.455606014E-1
2.466956543E1,2.148502588E0,-7.736380696E-1,2.237228155E-1
2.467871694E1,2.068176031E0,-7.915053368E-1,1.884463727E-1
2.468786850E1,1.999913931E0,-7.989882231E-1,1.652341783E-1
2.469702001E1,1.984948158E0,-7.785248160E-1,1.640124917E-1
2.470617158E1,1.990903974E0,-7.614210844E-1,1.731752008E-1
2.471532309E1,1.955780268E0,-7.808154821E-1,1.893626451E-1
2.472447460E1,1.876522779E0,-8.110524416E-1,2.035648525E-1
2.473362616E1,1.789171576E0,-8.267817497E-1,2.163926363E-1
2.474277767E1,1.717549801E0,-8.382351398E-1,2.257080674E-1
2.475192923E1,1.666391373E0,-8.269344568E-1,2.246390730E-1
2.476108074E1,1.611720443E0,-7.734853625E-1,2.163926363E-1
2.477023230E1,1.535211921E0,-7.030851841E-1,2.060082406E-1
2.477938382E1,1.438698053E0,-6.568135023E-1,1.991362125E-1
2.478853538E1,1.330272675E0,-6.514685750E-1,2.069245130E-1
2.479768689E1,1.225359559E0,-6.551336646E-1,2.238755226E-1
2.480683845E1,1.144727707E0,-5.879405141E-1,2.195995897E-1
2.481598996E1,1.067761064E0,-4.483618736E-1,1.921114624E-1
2.482514147E1,9.678874612E-1,-3.016058207E-1,1.551551968E-1
2.483428027E1,8.386932611E-1,-2.302894145E-1,1.243074164E-1
2.484344454E1,6.916317940E-1,-2.527380586E-1,1.117850468E-1
2.485259611E1,5.502206683E-1,-2.982461751E-1,1.186570823E-1
2.486174762E1,4.230117202E-1,-2.790044844E-1,1.378987730E-1
2.487089918E1,2.991624475E-1,-1.760767251E-1,1.663031727E-1
2.488005069E1,1.583621502E-1,-8.276980370E-2,1.994416267E-1
2.488920225E1,2.305948362E-2,-6.413896382E-2,2.321219593E-1
2.489835376E1,-7.834116369E-2,-1.021642014E-1,2.643441558E-1
2.490750527E1,-1.443126649E-1,-1.197260618E-1,2.791571915E-1
2.491665684E1,-2.044811249E-1,-5.955760926E-2,2.573194206E-1
2.492580835E1,-2.910687327E-1,5.512896553E-2,2.066190839E-1
2.493495991E1,-4.040754735E-1,1.765348613E-1,1.513374150E-1
2.494411142E1,-5.415160656E-1,2.707580328E-1,1.105633527E-1
2.495326298E1,-7.276718020E-1,3.439069986E-1,9.452861547E-2
2.496241449E1,-9.553651214E-1,3.736858070E-1,1.021642014E-1
2.497156606E1,-1.152210593E0,2.999260128E-1,1.447708011E-1
2.498071757E1,-1.248266339E0,1.127013192E-1,2.260134816E-1
2.498986913E1,-1.263690233E0,-7.131642103E-2,3.115321100E-1
2.499900788E1,-1.265980959E0,-1.151447073E-1,3.695625961E-1
2.500817220E1,-1.320193648E0,-5.726693198E-2,3.941491842E-1
2.501732371E1,-1.423884988E0,2.275406010E-2,3.939964771E-1
2.502647522E1,-1.549108624E0,1.146865711E-1,3.704788685E-1
2.503562678E1,-1.691894174E0,2.600682080E-1,3.260397315E-1
2.504477830E1,-1.739845753E0,3.941491842E-1,2.864873707E-1
2.505391710E1,-1.464658976E0,5.187620521E-1,2.724378705E-1
2.506308137E1,-1.034164429E0,7.258392572E-1,3.773508966E-1
2.507223288E1,-1.030193925E0,7.965448499E-1,5.812211633E-1
2.508137168E1,-1.363869190E0,3.176405728E-1,7.612683773E-1
2.509053595E1,-1.618592501E0,1.099525020E-2,8.670976758E-1
2.509968751E1,-1.847813010E0,6.420004964E-1,8.276980519E-1
2.510882632E1,-1.949519038E0,1.431062460E0,5.016583204E-1
2.511799059E1,-1.834985137E0,1.244601250E0,5.314370990E-2
2.512714210E1,-1.650814772E0,5.919110179E-1,-1.911951900E-1
2.513628090E1,-1.493216157E0,3.313846290E-1,-1.745496094E-1
2.514544517E1,-1.478861213E0,5.792359114E-1,1.404948719E-2
2.515459673E1,-1.533379316E0,6.557445526E-1,2.125748396E-1
2.516373548E1,-1.578123927E0,5.670189857E-1,3.327590525E-1
2.517289980E1,-1.722436547E0,7.000309825E-1,3.755183518E-1
2.518205132E1,-1.803068399E0,9.631534219E-1,3.674246371E-1
2.519119012E1,-1.770540833E0,9.940012097E-1,3.408527672E-1
2.520035439E1,-1.703347564E0,8.907679915E-1,2.661767006E-1
2.520950590E1,-1.652799964E0,7.945595980E-1,1.511846930E-1
2.521864470E1,-1.589577317E0,6.610894203E-1,4.795150831E-2
2.522780897E1,-1.409835458E0,4.424061179E-1,-6.108472589E-4
2.523696054E1,-1.192068458E0,1.916533262E-1,4.749337584E-2
2.524609929E1,-1.095401883E0,2.351761982E-2,1.404948682E-1
2.525526361E1,-1.149309158E0,9.315420873E-3,2.377723008E-1
2.526441512E1,-1.264301062E0,7.574506104E-2,3.315373361E-1
2.527355392E1,-1.308434844E0,7.834116369E-2,4.008685052E-1
2.528271819E1,-1.277128935E0,1.450762246E-2,4.091149569E-1
2.529186970E1,-1.211310148E0,-1.023169141E-2,3.423798978E-1
2.530102126E1,-1.127776742E0,-5.650337040E-2,2.116585821E-1
2.531017277E1,-1.035233378E0,-1.382041872E-1,6.520794332E-2
2.531932434E1,-9.576557875E-1,-2.078407854E-1,-4.764608666E-2
2.532846314E1,-8.896990418E-1,-2.513636351E-1,-1.039967462E-1
2.533762741E1,-8.522846103E-1,-2.313583940E-1,-1.177408099E-1
2.534677892E1,-8.168554902E-1,-1.420219839E-1,-9.254335612E-2
2.535593048E1,-7.650861740E-1,-2.443389036E-2,-5.314370990E-2
2.536508199E1,-7.571451664E-1,1.215586066E-1,-1.542389300E-2
2.537423356E1,-8.130376935E-1,2.742704153E-1,3.115320951E-2
2.538338507E1,-8.842014074E-1,4.225535989E-1,7.941014320E-2
2.539253663E1,-9.161182046E-1,4.726430774E-1,1.206423342E-1
2.540168814E1,-9.026795626E-1,4.666872919E-1,1.475196183E-1
2.541082694E1,-8.466343284E-1,4.100312293E-1,1.377460510E-1
2.541999121E1,-7.682931423E-1,2.870981991E-1,9.743013978E-2
2.542914272E1,-7.012526393E-1,1.756185889E-1,4.474456236E-2
2.543829428E1,-6.578825116E-1,1.067455560E-1,-1.099525020E-2
2.544744580E1,-6.255075932E-1,2.168507688E-2,-6.077930331E-2
2.545659736E1,-5.984776020E-1,-1.389677543E-2,-9.239064902E-2
2.546574887E1,-5.845808387E-1,1.679829881E-2,-1.044548824E-1
2.547490043E1,-5.845808387E-1,1.618745178E-2,-9.712471068E-2
2.548405194E1,-5.929799676E-1,4.520269856E-2,-7.589777559E-2
2.549320350E1,-5.943543911E-1,1.188097894E-1,-5.329642445E-2
2.550235501E1,-5.731274486E-1,1.531699449E-1,-2.687728032E-2
2.551150652E1,-5.667135715E-1,1.659977436E-1,3.665083554E-3
2.552065809E1,-5.925218463E-1,2.341072112E-1,1.985253580E-2
2.552980960E1,-6.235223413E-1,3.298575282E-1,1.954711229E-2
2.553896116E1,-6.468872428E-1,3.881934285E-1,9.620844387E-3
2.554811267E1,-6.558972597E-1,4.471401870E-1,-1.191152167E-2
2.555726423E1,-6.714738607E-1,5.314370990E-1,-3.038965166E-2
2.556641574E1,-6.977402568E-1,5.844281316E-1,-4.337015375E-2
2.557556730E1,-7.194253802E-1,6.169557571E-1,-5.207473040E-2
2.558471882E1,-7.391251922E-1,5.952706337E-1,-3.878879920E-2
2.559387038E1,-7.643226385E-1,5.126535892E-1,-2.061609551E-2
2.560302189E1,-7.882983685E-1,4.132381678E-1,1.527118147E-4
2.561217345E1,-7.910472155E-1,3.704788685E-1,1.786728203E-2
2.562132496E1,-7.740961909E-1,4.104893506E-1,2.641914412E-2
2.563047647E1,-7.597413063E-1,4.532486796E-1,3.573456407E-2
2.563962804E1,-7.560762167E-1,3.671191931E-1,5.894676223E-2
2.564877954E1,-7.466080785E-1,2.742704153E-1,5.115845799E-2
2.565793111E1,-7.362236381E-1,2.495311052E-1,1.160609815E-2
2.566708262E1,-7.276718020E-1,2.101314515E-1,-5.070032179E-2
2.567623418E1,-7.094991207E-1,1.502684206E-1,-1.256818175E-1
2.568538569E1,-6.708629727E-1,1.204896197E-1,-1.942494214E-1
2.569453725E1,-6.574243903E-1,1.421747059E-1,-2.015796006E-1
2.570368876E1,-6.465818286E-1,1.759240031E-1,-1.922641695E-1
2.571284033E1,-6.267293096E-1,2.170034945E-1,-1.776038408E-1
2.572199184E1,-6.050441861E-1,2.707580328E-1,-1.566823274E-1
2.573114340E1,-6.096255779E-1,3.480302393E-1,-1.348445266E-1
2.574029491E1,-6.375718117E-1,4.425588250E-1,-1.259872466E-1
2.574944642E1,-6.581879258E-1,4.763081372E-1,-1.204896197E-1
2.575859798E1,-6.568135023E-1,4.648547769E-1,-1.235438585E-1
2.576774949E1,-6.299362183E-1,4.883723855E-1,-1.331647038E-1
2.577690106E1,-5.949652195E-1,5.245651007E-1,-1.507265568E-1
2.578605257E1,-5.740436912E-1,5.292991400E-1,-1.743968874E-1
2.579520413E1,-5.706840754E-1,5.219689608E-1,-2.023431510E-1
2.580435564E1,-5.893148780E-1,4.639385045E-1,-2.214321345E-1
2.581350720E1,-6.281036735E-1,3.958290219E-1,-2.217375487E-1
2.582265871E1,-6.812474132E-1,4.046863019E-1,-2.208212912E-1
2.583181027E1,-7.345438004E-1,4.445441067E-1,-2.194468826E-1
2.584096178E1,-7.641699314E-1,4.433223903E-1,-2.073826492E-1
2.585011330E1,-7.788302302E-1,4.143071473E-1,-1.910424829E-1
2.585926486E1,-7.916580439E-1,3.872771561E-1,-1.788255423E-1
2.586841642E1,-8.319739699E-1,3.584146202E-1,-1.736333370E-1
2.587756793E1,-8.915315866E-1,3.232909143E-1,-1.679829955E-1
2.588671944E1,-9.393303990E-1,2.932066917E-1,-1.603474021E-1
2.589587100E1,-9.649859667E-1,2.509055138E-1,-1.525591016E-1
2.590502251E1,-9.793408513E-1,2.034121305E-1,-1.354553849E-1
2.591417408E1,-9.837695360E-1,1.847812980E-1,-1.049130186E-1
2.592332559E1,-9.820896983E-1,1.992889196E-1,-7.864658535E-2
2.593247715E1,-9.796462655E-1,1.994416267E-1,-6.520794332E-2
2.594162866E1,-9.764393568E-1,1.765348613E-1,-6.459710002E-2
2.595078022E1,-9.898779988E-1,1.716480851E-1,-8.674030751E-2
2.595991897E1,-1.018893242E0,2.069245130E-1,-1.382041872E-1
2.596908324E1,-1.022405624E0,2.976353168E-1,-2.072299272E-1
2.597823481E1,-9.793408513E-1,3.985778391E-1,-2.913741469E-1
2.598737361E1,-8.654178381E-1,4.563029110E-1,-3.687990308E-1
2.599653788E1,-6.754443645E-1,4.709632397E-1,-4.089622498E-1
2.600568939E1,-4.349232614E-1,4.555393457E-1,-4.224008918E-1
2.601482819E1,-1.905843467E-1,4.275930822E-1,-4.359922409E-1
2.602399246E1,3.817795217E-2,4.272876680E-1,-4.534013867E-1
2.603314402E1,2.553341687E-1,4.288147688E-1,-4.866925478E-1
2.604229554E1,4.656183124E-1,3.680354655E-1,-5.351021886E-1
2.605144710E1,6.671979427E-1,2.524326444E-1,-5.873296261E-1
2.606059861E1,8.545753360E-1,1.272089481E-1,-6.219952106E-1
2.606975017E1,1.008814216E0,4.077405483E-2,-6.099309921E-1
2.607890168E1,1.121057391E0,3.817795310E-3,-5.644228458E-1
2.608805324E1,1.198024154E0,-6.719320081E-3,-5.004366040E-1
2.609720475E1,1.264912009E0,-2.076880634E-2,-4.278984964E-1
2.610635626E1,1.346918225E0,-5.283828825E-2,-3.503209054E-1
2.611550783E1,1.467255116E0,-1.084253863E-1,-2.712161839E-1
2.612465934E1,1.620577812E0,-1.940967143E-1,-2.005106062E-1
2.613381090E1,1.770540833E0,-2.912214398E-1,-1.438545287E-1
2.614296241E1,1.875148416E0,-3.631486893E-1,-1.087308154E-1
2.615211397E1,1.922030926E0,-3.830012381E-1,-9.559759498E-2
2.616126548E1,1.927986622E0,-3.486410677E-1,-1.035386100E-1
2.617041704E1,1.915311575E0,-3.136700690E-1,-1.116323397E-1
2.617956856E1,1.902789235E0,-2.794626355E-1,-1.201841980E-1
2.618872012E1,1.898513317E0,-2.812951505E-1,-1.185043678E-1
2.619787163E1,1.896833420E0,-3.016058207E-1,-1.032331884E-1
2.620702319E1,1.887365341E0,-2.944283783E-1,-8.002099395E-2
2.621617470E1,1.847507477E0,-2.528907657E-1,-6.383354217E-2
2.622532626E1,1.765501261E0,-2.052446753E-1,-4.001049697E-2
2.623447777E1,1.657228589E0,-1.655396074E-1,-8.551862091E-3
2.624362928E1,1.544527292E0,-1.325538605E-1,1.084253844E-2
2.625278085E1,1.436407328E0,-9.407047927E-2,1.130067464E-2
2.626193236E1,1.344016671E0,-3.588727489E-2,3.817795310E-3
2.627108392E1,1.270867705E0,2.901524492E-2,-1.007897966E-2
2.628023543E1,1.209782958E0,1.036913246E-1,-2.840439789E-2
2.628938699E1,1.150836229E0,1.643179059E-1,-4.291202128E-2
2.629853850E1,1.087155461E0,1.823379099E-1,-3.848337755E-2
2.630769007E1,1.026223421E0,1.617218107E-1,-3.161134571E-2
2.631684158E1,9.672766328E-1,1.447708011E-1,-3.374931216E-2
2.632599314E1,9.003888369E-1,1.102579311E-1,-3.115320951E-2
2.633514465E1,8.220477104E-1,5.054761097E-2,-2.061609551E-2
2.634429621E1,7.330167294E-1,-4.275931045E-3,-8.399149403E-3
2.635344772E1,6.380299330E-1,-6.230641901E-2,4.428642802E-3
2.636259928E1,5.589252710E-1,-1.160609797E-1,1.053711493E-2
2.637175080E1,4.970769584E-1,-1.719534993E-1,3.206948191E-2
2.638090236E1,4.662291706E-1,-2.418955117E-1,4.902049154E-2
2.639005387E1,4.488200247E-1,-3.022166789E-1,5.818320066E-2
2.639920538E1,4.294256270E-1,-4.196520746E-1,6.429167092E-2
2.640835694E1,4.037700295E-1,-5.680879354E-1,4.947862774E-2
2.641750845E1,3.718532622E-1,-6.566607952E-1,3.466558084E-2
2.642666001E1,3.286358118E-1,-6.392516494E-1,3.374931216E-2
2.643581152E1,2.654131353E-1,-5.428904891E-1,3.756710514E-2
2.644496309E1,1.844758689E-1,-4.527905285E-1,3.817795217E-2
2.645411460E1,1.027750522E-1,-4.059080184E-1,3.634541109E-2
2.646326616E1,1.328592747E-2,-3.872771561E-1,3.436015919E-2
2.647241767E1,-8.811471611E-2,-3.669664860E-1,4.031591862E-2
2.648156923E1,-1.931804419E-1,-3.387148082E-1,5.971032009E-2
2.649072074E1,-2.896943092E-1,-3.182514310E-1,9.025268257E-2
2.649987230E1,-3.662029207E-1,-3.188622594E-1,1.269035190E-1
2.650902382E1,-4.246915579E-1,-3.356605768E-1,1.618745178E-1
2.651817538E1,-4.676035643E-1,-3.767400384E-1,1.835595965E-1
2.652732689E1,-4.992149174E-1,-4.356867969E-1,1.962346882E-1
2.653647845E1,-5.178457499E-1,-4.851654470E-1,1.968455315E-1
2.654562996E1,-5.308262706E-1,-4.865398407E-1,1.844758689E-1
2.655478147E1,-5.367820263E-1,-4.304946065E-1,1.655396074E-1
2.656393304E1,-5.503733754E-1,-3.475720882E-1,1.330119967E-1
2.657308454E1,-5.740436912E-1,-2.898470163E-1,9.666658193E-2
2.658223611E1,-5.937435627E-1,-2.761029601E-1,6.184828654E-2
2.659138762E1,-6.077930331E-1,-2.864873707E-1,3.115320951E-2
2.660053918E1,-6.242858768E-1,-2.890834510E-1,1.389677543E-2
2.660969069E1,-6.490252018E-1,-2.745758295E-1,8.246437646E-3
2.661884225E1,-6.807892919E-1,-2.385358512E-1,6.719320081E-3
2.662799376E1,-7.070556879E-1,-2.005106062E-1,7.177455351E-3
2.663714533E1,-7.398887277E-1,-1.747023165E-1,1.175880991E-2
2.664629684E1,-7.876875401E-1,-1.349972486E-1,1.572931744E-2
2.665544840E1,-8.431219459E-1,-7.895200700E-2,1.893626526E-2
2.666459991E1,-8.793146014E-1,-3.329117596E-2,2.718270384E-2
2.667375147E1,-8.777875304E-1,-1.206423342E-2,4.489727318E-2
2.668290298E1,-8.419002295E-1,-2.947338112E-2,7.391251624E-2
2.669205454E1,-7.782194018E-1,-7.559234649E-2,1.134648770E-1
2.670120606E1,-6.849125028E-1,-1.168245375E-1,1.488940120E-1
2.671035762E1,-5.893148780E-1,-1.285833418E-1,1.667613089E-1
2.671950913E1,-5.436540842E-1,-1.262926757E-1,1.475196183E-1
2.672866064E1,-5.824428797E-1,-1.102579311E-1,1.038440317E-1
2.673781220E1,-6.737645268E-1,-8.215895295E-2,6.413896382E-2
2.674696371E1,-7.751652002E-1,-4.031591862E-2,4.016320780E-2
2.675611527E1,-8.532009125E-1,7.162184268E-2,3.588727489E-2
2.676526678E1,-8.785510659E-1,2.252499312E-1,4.596625641E-2
2.677441835E1,-8.561024070E-1,3.151971996E-1,6.016845629E-2
2.678356986E1,-8.286142945E-1,2.845021188E-1,7.253811508E-2
2.679272142E1,-7.924215794E-1,1.586675793E-1,7.223268598E-2
2.680187293E1,-7.269082665E-1,-1.053711493E-2,7.773031294E-2
2.681101173E1,-6.432221532E-1,-1.501157135E-1,1.090362370E-1
2.682017600E1,-6.067240238E-1,-1.171299592E-1,1.727170646E-1
2.682932757E1,-6.650599241E-1,4.382828996E-2,2.392994165E-1
2.683847908E1,-7.884510756E-1,1.756185889E-1,2.640387416E-1
2.684763064E1,-8.985562921E-1,2.157817930E-1,2.522799075E-1
2.685678215E1,-9.567395449E-1,1.818797737E-1,2.353289127E-1
2.686593371E1,-9.600991607E-1,1.021642014E-1,1.785201132E-1
2.687508522E1,-9.280297160E-1,9.162709117E-3,1.068982705E-1
2.688423679E1,-8.790091872E-1,-8.078455180E-2,5.467082933E-2
2.689338830E1,-8.406785131E-1,-9.162709117E-2,3.054236248E-2
2.690253986E1,-8.141067028E-1,-2.412846684E-2,3.619270027E-2
2.691169137E1,-7.840224504E-1,4.902049154E-2,5.711421743E-2
2.692084293E1,-7.693621516E-1,1.130067408E-1,8.903098851E-2
2.692999444E1,-7.866185308E-1,1.739387512E-1,1.211004704E-1
2.693914595E1,-8.215895891E-1,2.281514555E-1,1.403421611E-1
2.694829751E1,-8.554915786E-1,2.770192325E-1,1.491994411E-1
2.695744908E1,-8.722898960E-1,3.058817685E-1,1.528645307E-1
2.696660059E1,-8.661814332E-1,3.040492237E-1,1.498102844E-1
2.697575210E1,-8.574768305E-1,3.034383655E-1,1.420219839E-1
2.698490366E1,-8.561024070E-1,2.979407609E-1,1.267508119E-1
2.699405517E1,-8.670976758E-1,2.918322682E-1,1.052184403E-1
2.700320673E1,-8.774821162E-1,2.898470163E-1,8.139539510E-2
2.701235824E1,-8.828269839E-1,2.802261710E-1,6.490252167E-2
2.702150980E1,-8.739697337E-1,2.518217862E-1,5.512896553E-2
2.703066132E1,-8.533536196E-1,2.373141646E-1,4.306473210E-2
2.703981288E1,-8.269344568E-1,2.464768738E-1,2.977880463E-2
2.704896439E1,-8.047912717E-1,2.554868758E-1,1.954711229E-2
2.705811595E1,-7.855495811E-1,2.464768738E-1,1.481304597E-2
2.706726746E1,-7.650861740E-1,2.272351831E-1,1.985253580E-2
2.707641902E1,-7.403468490E-1,2.163926363E-1,3.038965166E-2
2.708557054E1,-7.207997441E-1,2.334963679E-1,4.398100078E-2
2.709472210E1,-7.088882327E-1,2.732014358E-1,5.329642445E-2
2.710387361E1,-6.821636558E-1,3.028275371E-1,6.200099736E-2
2.711302517E1,-6.432221532E-1,2.962609231E-1,7.314895838E-2
2.712217668E1,-6.079457402E-1,2.819060087E-1,8.567132801E-2
2.713132824E1,-5.786250830E-1,2.953446507E-1,9.498675168E-2
2.714047975E1,-5.653391480E-1,3.205420971E-1,8.903098851E-2
2.714963132E1,-5.535803437E-1,3.410054743E-1,6.520794332E-2
2.715878283E1,-5.215108395E-1,3.361186981E-1,3.985778242E-2
2.716793439E1,-4.581354558E-1,2.933593988E-1,2.137965336E-2
2.717708590E1,-3.761292100E-1,2.290677279E-1,1.160609815E-2
2.718623741E1,-3.052709103E-1,1.609582454E-1,8.551862091E-3
2.719538897E1,-2.585411072E-1,1.026223376E-1,7.024743594E-3
2.720454048E1,-2.279987335E-1,6.047387794E-2,8.551862091E-3
2.721369205E1,-1.956238300E-1,1.603474095E-2,2.092151903E-2
2.722284356E1,-1.510319859E-1,-8.551862091E-3,4.092676565E-2
2.723199512E1,-1.142284349E-1,-3.054236295E-3,5.635065958E-2
2.724114663E1,-8.903098851E-2,4.886778072E-3,6.154286116E-2
2.725029819E1,-7.589777559E-2,-1.374406368E-2,5.726693198E-2
2.725944970E1,-7.986827940E-2,-4.214845970E-2,4.382828996E-2
2.726860126E1,-8.842013776E-2,-3.802524135E-2,3.161134571E-2
2.727775277E1,-8.811471611E-2,-1.328592747E-2,2.855710872E-2
2.728690434E1,-8.231166750E-2,2.412846684E-2,3.833066672E-2
2.729605585E1,-6.429167092E-2,7.895200700E-2,4.871506989E-2
2.730520741E1,-4.734066129E-2,1.122431830E-1,5.070032179E-2
2.731435892E1,-4.947862774E-2,8.506047726E-2,3.787253052E-2
2.732351048E1,-7.284353673E-2,2.290677279E-3,2.244863659E-2
2.733266199E1,-8.933641016E-2,-8.139539510E-2,1.511846948E-2
2.734181356E1,-9.452861547E-2,-1.097997949E-1,1.084253844E-2
2.735096507E1,-9.605573118E-2,-7.421794534E-2,6.566607859E-3
2.736011663E1,-1.009425074E-1,-7.330167107E-3,5.803049076E-3
2.736926814E1,-1.039967462E-1,5.222744122E-2,7.635590620E-3
2.737841970E1,-1.017060652E-1,7.635590434E-2,1.191152167E-2
2.738757121E1,-9.865183383E-2,6.917845458E-2,1.496575773E-2
2.739672277E1,-9.773556143E-2,4.627167806E-2,1.313321572E-2
2.740587429E1,-1.018587798E-1,2.092151903E-2,1.068982668E-2
2.741502585E1,-1.078145429E-1,3.359660041E-3,3.970507067E-3
2.742417736E1,-1.065928489E-1,-3.206948051E-3,3.054236295E-4
2.743332892E1,-9.483403713E-2,-7.941014133E-3,1.145338640E-2
2.744248043E1,-8.200624585E-2,1.145338640E-2,2.428117767E-2
2.745163194E1,-6.642963737E-2,5.909947306E-2,3.237490356E-2
2.746078350E1,-5.085303262E-2,9.636115283E-2,3.115320951E-2
2.746993501E1,-4.321744293E-2,8.612946421E-2,2.137965336E-2
2.747908658E1,-3.863608837E-2,4.703523964E-2,1.603474095E-2
2.748823809E1,-3.344388679E-2,2.535016090E-2,1.359135192E-2
2.749738965E1,-4.214845970E-2,2.473931387E-2,1.542389300E-2
2.750654116E1,-6.505523622E-2,3.191677108E-2,2.199050039E-2
2.751569272E1,-8.490777016E-2,4.337015375E-2,3.038965166E-2
2.752484423E1,-8.811471611E-2,5.604523420E-2,3.405473381E-2
2.753399580E1,-6.963659078E-2,6.261184067E-2,3.466558084E-2
2.754314730E1,-4.443913698E-2,7.299624383E-2,3.298575059E-2
2.755229887E1,-4.275930673E-2,8.368607610E-2,2.458660305E-2
2.756145038E1,-5.131116882E-2,8.246438205E-2,1.649287529E-2
2.757060194E1,-5.726693198E-2,6.383354217E-2,9.162709117E-3
2.757975345E1,-6.184828654E-2,2.519745007E-2,6.108472589E-3
2.758890501E1,-6.948387623E-2,-1.160609815E-2,4.886778072E-3
2.759805652E1,-7.742489129E-2,-1.450762246E-2,6.566607859E-3
2.760720809E1,-7.773031294E-2,1.374406368E-2,1.389677543E-2
2.761635960E1,-7.192726433E-2,3.726168349E-2,1.878355257E-2
2.762551116E1,-6.627693027E-2,3.909422457E-2,1.832541823E-2
2.763466267E1,-6.551336497E-2,2.351761982E-2,1.282779220E-2
2.764381423E1,-6.841489673E-2,8.246437646E-3,4.886778072E-3
2.765296574E1,-7.452336699E-2,4.734066315E-3,3.512371797E-3
2.766211731E1,-8.444963396E-2,1.007897966E-2,1.145338640E-2
2.767126882E1,-8.887827396E-2,2.229592577E-2,2.000524849E-2
2.768042038E1,-8.796200156E-2,4.092676565E-2,2.183778957E-2
2.768957189E1,-8.735115826E-2,5.222744122E-2,1.511846948E-2
2.769872345E1,-8.475505561E-2,3.359659761E-2,1.023169141E-2
2.770787496E1,-7.834116369E-2,3.512371797E-3,1.328592747E-2
2.771702647E1,-7.284353673E-2,5.955760833E-3,1.893626526E-2
2.772617804E1,-6.429167092E-2,2.229592577E-2,2.199050039E-2
2.773532955E1,-5.879404768E-2,2.351761982E-2,1.954711229E-2
2.774448111E1,-5.787777901E-2,4.734066315E-3,1.404948719E-2
2.775363267E1,-6.154286116E-2,-1.328592747E-2,9.773556143E-3
2.776278418E1,-7.131642103E-2,-1.099525020E-2,4.886778072E-3
2.777193569E1,-8.628217876E-2,1.679830020E-3,8.399149403E-3
2.778108725E1,-9.086353332E-2,3.359659761E-2,1.695101149E-2
2.779023876E1,-7.391251624E-2,6.383354217E-2,2.611372061E-2
2.779939033E1,-4.260659590E-2,6.872031838E-2,2.626643144E-2
2.780854184E1,-1.954711229E-2,4.459185153E-2,1.679829881E-2
2.781769340E1,-6.872031838E-3,1.756185852E-2,9.009997360E-3
2.782684491E1,-9.315420873E-3,1.023169141E-2,1.130067464E-2
2.783599647E1,-2.367033064E-2,2.473931387E-2,1.801999472E-2
2.784514798E1,-4.046862945E-2,4.886778072E-2,2.458660305E-2
2.785429955E1,-4.199574888E-2,6.627693027E-2,2.702999115E-2
2.786345106E1,-3.252761811E-2,6.032116711E-2,2.336490713E-2
2.787260262E1,-2.199050039E-2,4.947862774E-2,1.679829881E-2
2.788175413E1,-1.511846948E-2,4.092676565E-2,1.191152167E-2
2.789090569E1,-1.084253844E-2,4.092676565E-2,1.374406368E-2
2.790005720E1,-1.588202827E-2,5.131116882E-2,1.863084175E-2
2.790920876E1,-2.153236605E-2,5.360184610E-2,2.229592577E-2
2.791836027E1,-2.993151546E-2,4.214845970E-2,1.908897609E-2
2.792751184E1,-3.710897267E-2,1.557660475E-2,1.236965694E-2
2.793666335E1,-3.497100621E-2,-1.634016447E-2,6.872031838E-3
2.794581491E1,-2.993151546E-2,-2.535016090E-2,8.246437646E-3
2.795496642E1,-2.092151903E-2,-1.221694518E-3,8.857285604E-3
2.796411798E1,-1.557660475E-2,2.764083818E-2,3.359660041E-3
2.797326949E1,-2.122694254E-2,3.191677108E-2,-2.137965523E-3
2.798242106E1,-3.573456407E-2,1.252236869E-2,-4.734066315E-3
2.799157257E1,-5.283828825E-2,-7.330167107E-3,-4.734066315E-3
2.800072413E1,-6.704048812E-2,-6.719320081E-3,-6.719320081E-3
2.800987564E1,-7.330167294E-2,4.581354558E-3,-1.038440317E-2
2.801902720E1,-7.101099193E-2,1.725643501E-2,-6.719320081E-3
2.802817871E1,-5.696150661E-2,3.298575059E-2,1.221694518E-3
2.803733027E1,-4.474456236E-2,4.382828996E-2,6.261184346E-3
2.804648178E1,-3.787253052E-2,3.665083647E-2,3.817795310E-3
2.805563330E1,-3.329117596E-2,9.009997360E-3,2.596100792E-3
2.806478486E1,-2.672456764E-2,-3.436015919E-2,3.359660041E-3
2.807393642E1,-2.535016090E-2,-5.665608495E-2,5.803049076E-3
2.808308793E1,-2.901524492E-2,-5.314370990E-2,7.024743594E-3
2.809223949E1,-3.787253052E-2,-3.802524135E-2,8.704573847E-3
2.810139100E1,-4.230117425E-2,-1.389677543E-2,1.175880991E-2
2.811054251E1,-3.344388679E-2,1.389677543E-2,9.926267900E-3
2.811969408E1,-1.817270555E-2,2.764083818E-2,1.130067464E-2
2.812884559E1,-1.252236869E-2,2.412846684E-2,1.313321572E-2
2.813799715E1,-1.664558798E-2,2.443389036E-3,1.313321572E-2
2.814714866E1,-1.786728203E-2,-3.665083554E-3,1.557660475E-2
2.815630022E1,-1.725643501E-2,6.108472589E-3,1.801999472E-2
2.816545173E1,-2.351761982E-2,1.634016447E-2,1.679829881E-2
2.817460330E1,-2.428117767E-2,2.702999115E-2,1.435491070E-2
2.818375481E1,-1.878355257E-2,3.313846514E-2,1.191152167E-2
2.819290637E1,-8.857285604E-3,2.596100792E-2,1.313321572E-2
2.820205788E1,-6.261184346E-3,1.634016447E-2,1.450762246E-2
2.821120944E1,-8.704573847E-3,1.084253844E-2,1.328592747E-2
2.822036095E1,-1.359135192E-2,9.009997360E-3,1.252236869E-2
2.822951251E1,-1.420219894E-2,5.344913341E-3,1.191152167E-2
2.823866402E1,-1.099525020E-2,-4.734066315E-3,1.130067464E-2
2.824781559E1,-6.108472589E-3,-3.512371797E-3,1.634016447E-2
2.825696710E1,-7.635590737E-4,1.450762246E-2,2.489202656E-2
2.826611866E1,2.137965523E-3,2.840439789E-2,2.855710872E-2
2.827527017E1,3.970507067E-3,3.191677108E-2,2.550287358E-2
2.828442173E1,3.970507067E-3,2.840439789E-2,2.305948362E-2
2.829357324E1,-3.054236295E-4,2.473931387E-2,1.939439960E-2
2.830272480E1,-2.748812549E-3,2.535016090E-2,1.878355257E-2
2.831187632E1,-3.359660041E-3,2.779355086E-2,1.756185852E-2
2.832102788E1,-3.359660041E-3,3.374931216E-2,1.511846948E-2
2.833017939E1,-5.344913341E-3,4.275930673E-2,1.389677543E-2
2.833933095E1,-7.177455351E-3,4.398100078E-2,1.374406368E-2
2.834848246E1,-5.955760833E-3,4.398100078E-2,1.557660475E-2
2.835763402E1,-9.162708884E-4,3.741439432E-2,1.939439960E-2
2.836678554E1,1.084253844E-2,3.023693897E-2,1.817270555E-2
2.837593710E1,1.893626526E-2,2.412846684E-2,1.527118124E-2
2.838508861E1,1.649287529E-2,1.756185852E-2,1.649287529E-2
2.839424017E1,7.941014133E-3,1.328592747E-2,1.450762246E-2
2.840339168E1,-7.635590737E-4,9.620844387E-3,1.328592747E-2
2.841254324E1,-1.114796288E-2,1.084253844E-2,1.313321572E-2
2.842169475E1,-1.863084175E-2,2.290677279E-2,1.863084175E-2
2.843084632E1,-1.817270555E-2,3.008422814E-2,2.351761982E-2
2.843999783E1,-7.635590620E-3,2.840439789E-2,2.535016090E-2
2.844914939E1,5.955760833E-3,2.718270384E-2,2.183778957E-2
2.845830090E1,1.450762246E-2,2.779355086E-2,1.343864016E-2
2.846745246E1,1.527118124E-2,2.718270384E-2,5.955760833E-3
2.847660397E1,4.581354442E-4,3.069507517E-2,5.955760833E-3
2.848575548E1,-1.634016447E-2,3.909422457E-2,1.252236869E-2
2.849490704E1,-2.947338112E-2,5.070032179E-2,2.214321308E-2
2.850405861E1,-3.069507517E-2,5.543438718E-2,2.397575416E-2
2.851321012E1,-2.565558441E-2,4.581354558E-2,1.801999472E-2
2.852236168E1,-1.801999472E-2,2.596100792E-2,3.359660041E-3
2.853151319E1,-7.177455351E-3,-2.443389036E-3,-8.093725890E-3
2.854066470E1,1.068982761E-3,-2.779355086E-2,-1.175880991E-2
2.854981626E1,2.290677279E-3,-2.947338112E-2,-5.039489828E-3
2.855896777E1,-7.941014133E-3,-1.221694518E-3,4.734066315E-3
2.856811934E1,-1.924168877E-2,2.535016090E-2,1.313321572E-2
2.857727085E1,-2.504473738E-2,3.970507160E-2,1.557660475E-2
