"Time (s)","Gyroscope x (rad/s)","Gyroscope y (rad/s)","Gyroscope z (rad/s)"
1.133046886E1,-4.566083103E-2,1.191152167E-2,-2.901524538E-3
1.133962043E1,-5.238015205E-2,1.068982761E-3,-1.068982761E-3
1.134877194E1,-5.971032009E-2,-4.428642802E-3,-0.000000000E0
1.135792350E1,-6.398624927E-2,-2.596100792E-3,1.221694518E-3
1.136707506E1,-5.650337040E-2,-1.038440317E-2,-2.443389036E-3
1.137622662E1,-4.031591862E-2,-2.473931387E-2,-9.620844387E-3
1.138537813E1,-2.718270384E-2,-4.947862774E-2,-1.801999472E-2
1.139452970E1,-1.023169141E-2,-7.055285573E-2,-2.458660305E-2
1.140368126E1,6.413896102E-3,-8.093725890E-2,-2.932066843E-2
1.141283282E1,1.572931744E-2,-8.154810965E-2,-3.176405653E-2
1.142198433E1,2.305948362E-2,-6.765133142E-2,-3.054236248E-2
1.143113589E1,2.779355086E-2,-5.314370990E-2,-2.244863659E-2
1.144028746E1,2.947338112E-2,-3.191677108E-2,-1.160609815E-2
1.144943902E1,2.122694254E-2,-1.328592747E-2,-3.054236295E-3
1.145859053E1,9.315420873E-3,1.221694518E-3,-1.527118147E-4
1.146774209E1,6.108472589E-4,1.435491070E-2,-2.596100792E-3
1.147689365E1,-4.428642802E-3,2.764083818E-2,-4.428642802E-3
1.148604522E1,-1.527118147E-3,3.970507160E-2,-4.428642802E-3
1.149519673E1,-1.985253533E-3,3.436015919E-2,-6.872031838E-3
1.150434829E1,-3.665083554E-3,1.450762246E-2,-7.482878864E-3
1.151349985E1,-7.941014133E-3,-3.054236295E-3,-1.053711493E-2
1.152265142E1,-9.620844387E-3,-8.551862091E-3,-1.114796288E-2
1.153180293E1,-9.009997360E-3,-1.343864016E-2,-1.420219894E-2
1.154095449E1,4.581354442E-4,-2.596100792E-2,-2.092151903E-2
1.155010605E1,9.926267900E-3,-4.825693369E-2,-2.443389036E-2
1.155925761E1,1.695101149E-2,-7.360709459E-2,-2.809897438E-2
1.156840912E1,1.527118124E-2,-9.529217333E-2,-2.870982140E-2
1.157756068E1,4.275931045E-3,-1.139230132E-1,-2.565558441E-2
1.158671225E1,-9.162709117E-3,-1.272089481E-1,-2.214321308E-2
1.159586381E1,-2.519745007E-2,-1.296523362E-1,-1.618745178E-2
1.160501532E1,-3.512371704E-2,-1.224748790E-1,-1.191152167E-2
1.161416688E1,-4.275930673E-2,-1.073564067E-1,-8.399149403E-3
1.162331845E1,-4.169032723E-2,-8.444963396E-2,-6.566607859E-3
1.163247001E1,-3.634541109E-2,-5.909947306E-2,-2.748812549E-3
1.164162152E1,-2.733541466E-2,-3.497100621E-2,9.162708884E-4
1.165077308E1,-1.832541823E-2,-2.000524849E-2,9.162708884E-4
1.165992464E1,-1.343864016E-2,-1.389677543E-2,-9.162708884E-4
1.166907621E1,-8.399149403E-3,-1.099525020E-2,-3.817795310E-3
1.167822777E1,-2.901524538E-3,-4.886778072E-3,-8.093725890E-3
1.168737928E1,1.221694518E-3,4.123218823E-3,-1.114796288E-2
1.169653084E1,7.635590737E-4,4.123218823E-3,-1.420219894E-2
1.170568240E1,-4.123218823E-3,-1.374406274E-3,-1.664558798E-2
1.171483392E1,-4.123218823E-3,-1.985253533E-3,-1.298050396E-2
1.172398548E1,-4.275931045E-3,4.581354442E-4,-8.704573847E-3
1.173313704E1,-1.832541777E-3,6.566607859E-3,-3.206948051E-3
1.174228860E1,1.221694518E-3,1.328592747E-2,-7.635590737E-4
1.175144011E1,2.290677279E-3,2.657185495E-2,4.581354442E-4
1.176059168E1,4.581354442E-4,3.252761811E-2,-1.985253533E-3
1.176974324E1,-1.527118147E-4,2.641914412E-2,-4.428642802E-3
1.177889480E1,3.054236295E-3,1.801999472E-2,-6.872031838E-3
1.178804631E1,3.206948051E-3,2.443389036E-3,-8.704573847E-3
1.179719787E1,7.635590737E-4,-1.206423342E-2,-1.114796288E-2
1.180634944E1,-1.679830020E-3,-1.450762246E-2,-9.926267900E-3
1.181550100E1,1.527118147E-4,-7.330167107E-3,-6.872031838E-3
1.182465251E1,-4.581354442E-4,-2.443389036E-3,-4.428642802E-3
1.183380407E1,-1.832541777E-3,-1.527118147E-4,-3.206948051E-3
1.184295563E1,-6.108472589E-3,-3.665083554E-3,4.581354442E-4
1.185210714E1,-1.221694518E-2,-9.162709117E-3,2.137965523E-3
1.186125871E1,-1.710372418E-2,-1.572931744E-2,1.527118147E-3
1.187041027E1,-1.939439960E-2,-2.840439789E-2,-9.162708884E-4
1.187956183E1,-2.046338283E-2,-4.169032723E-2,-4.581354558E-3
1.188871339E1,-2.046338283E-2,-4.825693369E-2,-7.024743594E-3
1.189786490E1,-1.557660475E-2,-4.825693369E-2,-6.872031838E-3
1.190701647E1,-1.252236869E-2,-4.474456236E-2,-6.872031838E-3
1.191616803E1,-1.313321572E-2,-4.169032723E-2,-6.872031838E-3
1.192531954E1,-1.496575773E-2,-3.206948191E-2,-6.413896102E-3
1.193447110E1,-1.878355257E-2,-1.695101149E-2,-5.192201585E-3
1.194362267E1,-1.893626526E-2,-1.221694518E-3,-1.527118147E-3
1.195277423E1,-1.481304597E-2,1.023169141E-2,3.054236295E-4
1.196192574E1,-9.315420873E-3,1.313321572E-2,2.137965523E-3
1.197107730E1,-5.650337320E-3,1.267508045E-2,2.290677279E-3
1.198022886E1,-6.261184346E-3,1.023169141E-2,2.901524538E-3
1.198938042E1,-8.093725890E-3,7.788302377E-3,2.290677279E-3
1.199853194E1,-9.315420873E-3,4.734066315E-3,1.068982761E-3
1.200768350E1,-8.551862091E-3,1.068982761E-3,-3.817795310E-3
1.201683506E1,-8.551862091E-3,4.123218823E-3,-4.428642802E-3
1.202598662E1,-7.330167107E-3,5.955760833E-3,-1.985253533E-3
1.203513813E1,-4.886778072E-3,8.399149403E-3,-7.635590737E-4
1.204428970E1,-1.221694518E-3,9.620844387E-3,4.581354442E-4
1.205344126E1,3.054236295E-3,5.955760833E-3,-1.527118147E-4
1.206259282E1,8.093725890E-3,2.290677279E-3,-2.596100792E-3
1.207174438E1,8.704573847E-3,5.344913341E-3,-5.039489828E-3
1.208089589E1,7.482878864E-3,4.734066315E-3,-6.261184346E-3
1.209004746E1,5.497625098E-3,7.788302377E-3,-6.261184346E-3
1.209919902E1,4.886778072E-3,9.620844387E-3,-2.596100792E-3
1.210835053E1,1.221694518E-3,1.374406368E-2,-2.596100792E-3
1.211750209E1,-3.817795310E-3,1.557660475E-2,-1.374406274E-3
1.212665365E1,-1.175880991E-2,1.313321572E-2,-3.970507067E-3
1.213580522E1,-1.786728203E-2,1.007897966E-2,-2.137965523E-3
1.214495673E1,-1.908897609E-2,9.009997360E-3,-3.054236295E-4
1.215410829E1,-1.786728203E-2,5.955760833E-3,1.527118147E-3
1.216325985E1,-1.359135192E-2,4.734066315E-3,3.054236295E-4
1.217241142E1,-8.551862091E-3,5.344913341E-3,-1.985253533E-3
1.218156293E1,-1.832541777E-3,6.566607859E-3,-2.596100792E-3
1.219071449E1,1.221694518E-3,2.901524538E-3,-2.596100792E-3
1.219986605E1,1.374406274E-3,-4.886778072E-3,-3.817795310E-3
1.220901761E1,-4.734066315E-3,-1.756185852E-2,-5.650337320E-3
1.221816912E1,-1.145338640E-2,-2.244863659E-2,-6.261184346E-3
1.222732068E1,-1.634016447E-2,-2.061609551E-2,-5.192201585E-3
1.223647225E1,-2.137965336E-2,-1.572931744E-2,-3.970507067E-3
1.224562381E1,-2.199050039E-2,-1.038440317E-2,-3.359660041E-3
1.225477532E1,-2.275406010E-2,-6.108472589E-3,-2.748812549E-3
1.226392688E1,-2.137965336E-2,-6.108472589E-3,-3.970507067E-3
1.227307845E1,-1.710372418E-2,-4.886778072E-3,-4.581354558E-3
1.228222996E1,-1.160609815E-2,-7.330167107E-3,-7.024743594E-3
1.229138152E1,-1.023169141E-2,-1.511846948E-2,-7.482878864E-3
1.230053308E1,-1.450762246E-2,-2.305948362E-2,-1.068982668E-2
1.230968464E1,-1.740914769E-2,-3.206948191E-2,-1.252236869E-2
1.231883615E1,-1.801999472E-2,-4.291202128E-2,-1.618745178E-2
1.232798772E1,-1.725643501E-2,-5.741964281E-2,-1.664558798E-2
1.233713928E1,-1.710372418E-2,-6.765133142E-2,-1.725643501E-2
1.234629084E1,-1.649287529E-2,-6.948387623E-2,-1.664558798E-2
1.235544235E1,-1.771457121E-2,-6.887302548E-2,-1.664558798E-2
1.236459392E1,-2.031067200E-2,-6.215370819E-2,-1.740914769E-2
1.237374548E1,-2.275406010E-2,-5.619794875E-2,-1.863084175E-2
1.238289704E1,-2.458660305E-2,-5.619794875E-2,-1.801999472E-2
1.239204855E1,-2.702999115E-2,-5.741964281E-2,-1.679829881E-2
1.240120011E1,-2.962609194E-2,-5.436540768E-2,-1.740914769E-2
1.241035168E1,-2.840439789E-2,-5.131116882E-2,-1.679829881E-2
1.241950324E1,-2.840439789E-2,-4.840964451E-2,-1.740914769E-2
1.242865475E1,-2.657185495E-2,-4.169032723E-2,-1.496575773E-2
1.243780631E1,-2.305948362E-2,-3.634541109E-2,-1.313321572E-2
1.244695787E1,-1.939439960E-2,-2.901524492E-2,-1.130067464E-2
1.245610938E1,-1.817270555E-2,-2.840439789E-2,-1.191152167E-2
1.246526095E1,-1.817270555E-2,-3.206948191E-2,-1.252236869E-2
1.247441251E1,-1.679829881E-2,-3.084778599E-2,-1.313321572E-2
1.248356407E1,-1.267508045E-2,-2.428117767E-2,-1.359135192E-2
1.249271563E1,-6.413896102E-3,-2.000524849E-2,-1.236965694E-2
1.250186714E1,-6.413896102E-3,-2.122694254E-2,-1.420219894E-2
1.251101871E1,-1.130067464E-2,-2.672456764E-2,-1.603474095E-2
1.252017027E1,-2.183778957E-2,-2.611372061E-2,-1.496575773E-2
1.252932178E1,-2.809897438E-2,-2.550287358E-2,-1.007897966E-2
1.253847334E1,-3.359659761E-2,-2.779355086E-2,-5.192201585E-3
1.254762490E1,-3.787253052E-2,-3.451287001E-2,-4.734066315E-3
1.255677647E1,-3.955236077E-2,-4.169032723E-2,-5.344913341E-3
1.256592798E1,-3.268032894E-2,-4.825693369E-2,-5.803049076E-3
1.257507954E1,-2.657185495E-2,-5.680879578E-2,-7.024743594E-3
1.258423110E1,-1.710372418E-2,-6.826218218E-2,-1.130067464E-2
1.259338266E1,-1.145338640E-2,-7.910472155E-2,-1.847812906E-2
1.260253418E1,-1.328592747E-2,-8.933641016E-2,-2.336490713E-2
1.261168574E1,-1.863084175E-2,-1.061347127E-1,-2.153236605E-2
1.262083730E1,-2.779355086E-2,-1.236965731E-1,-1.496575773E-2
1.262998886E1,-3.268032894E-2,-1.296523362E-1,-7.635590620E-3
1.263914037E1,-3.329117596E-2,-1.290414780E-1,-3.359660041E-3
1.264829194E1,-3.451287001E-2,-1.236965731E-1,-2.748812549E-3
1.265744350E1,-3.527642787E-2,-1.120904684E-1,-4.581354558E-3
1.266659501E1,-3.359659761E-2,-9.468132257E-2,-8.246437646E-3
1.267574657E1,-3.069507517E-2,-6.872031838E-2,-7.635590620E-3
1.268489813E1,-2.473931387E-2,-4.169032723E-2,-6.413896102E-3
1.269404970E1,-1.817270555E-2,-2.535016090E-2,-3.970507067E-3
1.270320121E1,-1.450762246E-2,-2.122694254E-2,-4.581354558E-3
1.271235277E1,-1.206423342E-2,-2.000524849E-2,-6.872031838E-3
1.272150433E1,-1.023169141E-2,-1.267508045E-2,-9.315420873E-3
1.273065589E1,-1.221694518E-2,-3.054236295E-3,-9.926267900E-3
1.273980740E1,-1.649287529E-2,-1.985253533E-3,-9.468132630E-3
1.274895897E1,-2.504473738E-2,-8.551862091E-3,-9.468132630E-3
1.275811053E1,-2.687728032E-2,-1.343864016E-2,-8.246437646E-3
1.276726209E1,-2.137965336E-2,-1.343864016E-2,-7.635590620E-3
1.277641360E1,-1.099525020E-2,-7.330167107E-3,-7.024743594E-3
1.278556517E1,2.596100792E-3,-2.443389036E-3,-1.114796288E-2
1.279471673E1,8.093725890E-3,-1.985253533E-3,-1.908897609E-2
1.280386829E1,4.428642802E-3,2.901524538E-3,-2.336490713E-2
1.281301980E1,-1.038440317E-2,1.007897966E-2,-2.107422985E-2
1.282217136E1,-2.702999115E-2,1.252236869E-2,-1.863084175E-2
1.283132292E1,-3.756710514E-2,8.857285604E-3,-1.939439960E-2
1.284047449E1,-4.306473210E-2,1.679830020E-3,-2.061609551E-2
1.284962600E1,-4.474456236E-2,-1.038440317E-2,-2.244863659E-2
1.285877756E1,-4.657710344E-2,-1.771457121E-2,-2.611372061E-2
1.286792912E1,-4.535540938E-2,-7.482878864E-3,-3.527642787E-2
1.287708063E1,-4.001049697E-2,1.725643501E-2,-4.566083103E-2
1.288623220E1,-3.084778599E-2,3.588727489E-2,-5.421269313E-2
1.289538376E1,-1.969982497E-2,3.038965166E-2,-5.955760926E-2
1.290453532E1,-1.145338640E-2,1.053711493E-2,-6.322269142E-2
1.291368683E1,-1.527118147E-4,-3.359660041E-3,-6.856760383E-2
1.292283839E1,1.679830020E-3,-1.527118147E-3,-7.162184268E-2
1.293198996E1,9.162708884E-4,8.093725890E-3,-7.711946964E-2
1.294114152E1,6.261184346E-3,2.687728032E-2,-7.956285775E-2
1.295029303E1,1.542389300E-2,4.489727318E-2,-7.757759839E-2
1.295944459E1,2.458660305E-2,5.512896553E-2,-7.696675509E-2
1.296859615E1,3.436015919E-2,6.291726977E-2,-8.063183725E-2
1.297774772E1,4.367557913E-2,6.780404598E-2,-9.330692142E-2
1.298689923E1,5.360184610E-2,7.131642103E-2,-1.091889441E-1
1.299605079E1,6.597150117E-2,7.482878864E-2,-1.273616552E-1
1.300520235E1,8.567132801E-2,7.421794534E-2,-1.443126649E-1
1.301435386E1,1.117850468E-1,7.055285573E-2,-1.600419879E-1
1.302350543E1,1.383569092E-1,5.497625470E-2,-1.714953631E-1
1.303265699E1,1.650814712E-1,2.672456764E-2,-1.791309565E-1
1.304180855E1,1.950129867E-1,1.985253533E-3,-1.820324808E-1
1.305096006E1,2.228065431E-1,-6.413896102E-3,-1.831014603E-1
1.306011162E1,2.522799075E-1,5.650337320E-3,-1.858502775E-1
1.306926318E1,2.791571915E-1,2.733541466E-2,-1.954711229E-1
1.307841470E1,3.055763543E-1,5.268557742E-2,-2.081461996E-1
1.308756626E1,3.344388604E-1,7.742489129E-2,-2.183778882E-1
1.309671782E1,3.662029207E-1,1.027750522E-1,-2.290677279E-1
1.310586938E1,4.074351192E-1,1.201841980E-1,-2.374668717E-1
1.311502095E1,4.549284875E-1,1.244601309E-1,-2.443388999E-1
1.312417246E1,5.092939138E-1,1.113269106E-1,-2.525853515E-1
1.313332402E1,5.725166202E-1,8.002099395E-2,-2.574721277E-1
1.314247558E1,6.412369013E-1,4.275930673E-2,-2.661767006E-1
1.315162709E1,7.156075835E-1,6.719320081E-3,-2.759502530E-1
1.316077865E1,7.983773947E-1,-2.092151903E-2,-2.832804024E-1
1.316993022E1,8.860339522E-1,-2.809897438E-2,-2.918322682E-1
1.317908178E1,9.759812355E-1,-2.611372061E-2,-2.997733057E-1
1.318823329E1,1.064859509E0,-2.244863659E-2,-3.107685447E-1
1.319738485E1,1.151752472E0,-1.572931744E-2,-3.303156495E-1
1.320653642E1,1.235743999E0,-1.206423342E-2,-3.639122546E-1
1.321568793E1,1.327065706E0,-1.511846948E-2,-4.036173224E-1
1.322483949E1,1.428008199E0,-4.230117425E-2,-4.468347728E-1
1.323397829E1,1.537349820E0,-1.157555580E-1,-4.894413650E-1
1.324314261E1,1.663795233E0,-2.567085624E-1,-5.262449384E-1
1.325229412E1,1.826127887E0,-4.566083252E-1,-5.584670901E-1
1.326144568E1,2.006480455E0,-7.041541934E-1,-5.949652195E-1
1.327059725E1,2.171103954E0,-9.807152748E-1,-6.172611713E-1
1.327974876E1,2.276780367E0,-1.219098449E0,-6.219952106E-1
1.328890032E1,2.290371895E0,-1.356386304E0,-6.161921620E-1
1.329805188E1,2.245779991E0,-1.392120957E0,-6.293253899E-1
1.330720345E1,2.207449198E0,-1.357455373E0,-6.852179170E-1
1.331634225E1,2.209739923E0,-1.302937150E0,-7.756233215E-1
1.332550652E1,2.233410358E0,-1.271936655E0,-8.829796910E-1
1.333465808E1,2.267770529E0,-1.280794024E0,-9.926267862E-1
1.334379688E1,2.312820435E0,-1.313627005E0,-1.076007485E0
1.335296115E1,2.352983713E0,-1.363105655E0,-1.133121610E0
1.336211272E1,2.395895720E0,-1.377766013E0,-1.191457629E0
1.337125152E1,2.471029758E0,-1.303700805E0,-1.212989926E0
1.338041584E1,2.543567896E0,-1.147934675E0,-1.178935170E0
1.338956735E1,2.582509518E0,-9.836167693E-1,-1.112658262E0
1.339871892E1,2.568307400E0,-8.695410490E-1,-1.043937922E0
1.340787048E1,2.499128819E0,-7.603521347E-1,-9.743013978E-1
1.341702199E1,2.430713892E0,-6.827745438E-1,-8.466343284E-1
1.342617355E1,2.358939409E0,-6.508577466E-1,-6.736118197E-1
1.343532511E1,2.274947882E0,-5.654918551E-1,-5.271611810E-1
1.344447668E1,2.242573023E0,-3.643703759E-1,-4.225535989E-1
1.345361548E1,2.295411348E0,-9.055810422E-2,-3.637595475E-1
1.346277975E1,2.375737667E0,1.076618284E-1,-4.005630910E-1
1.347193131E1,2.442014694E0,1.707318127E-1,-4.715740979E-1
1.348107011E1,2.476832867E0,1.050657257E-1,-5.225798488E-1
1.349023438E1,2.450261116E0,-3.970507160E-2,-5.343386531E-1
1.349938595E1,2.363215446E0,-2.147128135E-1,-5.506787896E-1
1.350853751E1,2.246085405E0,-4.046863019E-1,-5.757235289E-1
1.351768907E1,2.134605646E0,-5.479300022E-1,-5.989357233E-1
1.352684058E1,2.038244486E0,-6.470399499E-1,-6.368082762E-1
1.353597938E1,1.966928124E0,-7.189671993E-1,-6.769714952E-1
1.354514371E1,1.903705478E0,-7.282826304E-1,-7.067502737E-1
1.355429522E1,1.827960372E0,-6.670452356E-1,-7.293516397E-1
1.356343402E1,1.733737230E0,-6.026008129E-1,-7.250757217E-1
1.357259834E1,1.628518820E0,-5.766398311E-1,-6.838434935E-1
1.358174990E1,1.497797489E0,-5.332696438E-1,-6.114581227E-1
1.359088871E1,1.346765518E0,-4.506525695E-1,-5.135698318E-1
1.360005298E1,1.192984700E0,-3.329117596E-1,-3.975088596E-1
1.360920454E1,1.066691995E0,-1.843231618E-1,-2.759502530E-1
1.361835610E1,9.717052579E-1,-1.588202827E-2,-1.575985998E-1
1.362750761E1,8.765658140E-1,1.632489264E-1,-4.611896724E-2
1.363665918E1,7.499676943E-1,2.816005945E-1,6.291726977E-2
1.364581074E1,6.013791561E-1,3.095468581E-1,1.699682474E-1
1.365496225E1,4.834856093E-1,2.867927849E-1,2.606790662E-1
1.366411381E1,4.031592011E-1,2.718270421E-1,3.272614181E-1
1.367326537E1,3.410054743E-1,2.333436459E-1,3.665083647E-1
1.368241688E1,2.921377122E-1,1.181989461E-1,3.810159862E-1
1.369156845E1,2.408265322E-1,-1.511846948E-2,3.752129376E-1
1.370072001E1,1.537808031E-1,-5.986303091E-2,3.587200642E-1
1.370987157E1,3.191677108E-2,-2.260134928E-2,3.810159862E-1
1.371902308E1,-7.941014320E-2,2.748812549E-3,4.382829070E-1
1.372817464E1,-1.643179059E-1,-3.817795217E-2,4.914266169E-1
1.373732621E1,-2.593046725E-1,-1.285833418E-1,5.311316848E-1
1.374647777E1,-3.988832533E-1,-1.737860441E-1,5.748072863E-1
1.375562928E1,-5.879405141E-1,-1.545443535E-1,6.387935281E-1
1.376478084E1,-8.469397426E-1,-5.222744122E-2,7.321004272E-1
1.377393240E1,-1.164733052E0,1.279724985E-1,8.629744649E-1
1.378308392E1,-1.380209327E0,3.095468581E-1,1.005912781E0
1.379223548E1,-1.094485521E0,4.178195298E-1,1.009730577E0
1.380138704E1,-2.142546773E-1,4.503471553E-1,7.783721089E-1
1.381052584E1,2.657185495E-1,4.735593498E-1,4.978405237E-1
1.381969011E1,-2.597627938E-1,1.563768983E-1,3.471139669E-1
1.382884168E1,-8.501466513E-1,-7.809682488E-1,3.826957941E-1
1.383798048E1,-9.573503733E-1,-1.214364409E0,5.520532131E-1
1.384714480E1,-6.772769094E-1,3.756710514E-2,6.478035450E-1
1.385629631E1,-7.776085734E-1,1.168856263E0,4.453076422E-1
1.386543511E1,-1.274380088E0,1.233605981E0,2.683146596E-1
1.387459944E1,-1.658450365E0,1.176339149E0,4.104893506E-1
1.388375095E1,-1.754047871E0,1.185196400E0,7.082774043E-1
1.389288975E1,-1.910119414E0,1.486649513E0,9.738432169E-1
1.390205407E1,-2.190498352E0,1.844606042E0,1.112047434E0
1.391120563E1,-2.254026413E0,1.629435062E0,1.123348117E0
1.392034444E1,-2.194621563E0,1.373184681E0,1.188708782E0
1.392950871E1,-2.125595808E0,1.447402596E0,1.332563281E0
1.393866027E1,-2.061304092E0,1.554148197E0,1.351957679E0
1.394779907E1,-1.983268380E0,1.461299300E0,1.154654026E0
1.395696334E1,-1.885838151E0,1.269646049E0,9.484930634E-1
1.396611490E1,-1.793600321E0,1.143964171E0,8.246437907E-1
1.397525371E1,-1.719534993E0,9.552124143E-1,7.606575489E-1
1.398441798E1,-1.685480356E0,7.160657048E-1,7.684458494E-1
1.399356954E1,-1.642568231E0,5.079194903E-1,8.280034661E-1
1.400270834E1,-1.630504012E0,3.749074936E-1,8.820634484E-1
1.401187266E1,-1.664406061E0,2.536543310E-1,8.556442857E-1
1.402102418E1,-1.720451355E0,2.069245130E-1,7.733326554E-1
1.403017574E1,-1.791156888E0,3.173351586E-1,6.830799580E-1
1.403932730E1,-1.876980901E0,4.295783341E-1,6.030589342E-1
1.404847881E1,-1.952726007E0,4.419479966E-1,5.548020005E-1
1.405761761E1,-1.991209388E0,4.851654470E-1,5.538857579E-1
1.406678194E1,-1.997775912E0,5.082249045E-1,5.850389600E-1
1.407593350E1,-1.997623205E0,4.686725736E-1,6.296308041E-1
1.408508501E1,-2.008007765E0,4.224008918E-1,6.930062175E-1
1.409423657E1,-2.015643358E0,4.340069890E-1,7.339329720E-1
1.410338813E1,-2.012283564E0,5.407525301E-1,7.461498976E-1
1.411253970E1,-2.004342556E0,6.978929639E-1,7.282826304E-1
1.412169121E1,-2.017170429E0,8.364025950E-1,7.055285573E-1
1.413084277E1,-2.054737568E0,9.736905098E-1,6.916317940E-1
1.413999433E1,-2.109102964E0,1.129762053E0,6.833853722E-1
1.414914584E1,-2.171561956E0,1.277281642E0,6.980457306E-1
1.415829740E1,-2.214473963E0,1.447249889E0,7.281299233E-1
1.416744897E1,-2.238755226E0,1.685327530E0,7.459971905E-1
1.417660053E1,-2.238296986E0,1.914242625E0,7.478297353E-1
1.418575204E1,-2.245321751E0,2.009534836E0,7.397360206E-1
1.419490360E1,-2.229287148E0,1.944937706E0,7.081246972E-1
1.420405517E1,-2.101314545E0,1.787644506E0,6.591041684E-1
1.421320668E1,-1.974105597E0,1.663489819E0,5.958815217E-1
1.422235824E1,-1.934553266E0,1.613247633E0,5.369347334E-1
1.423150980E1,-1.820935726E0,1.519482613E0,5.256340504E-1
1.424066136E1,-1.631725788E0,1.338060975E0,4.660764635E-1
1.424981287E1,-1.517039180E0,1.147018433E0,4.132381678E-1
1.425896444E1,-1.448624253E0,8.921424150E-1,3.785725832E-1
1.426811600E1,-1.401436329E0,5.900784731E-1,3.307738006E-1
1.427726756E1,-1.382194638E0,4.585935771E-1,2.809897363E-1
1.428641907E1,-1.349056125E0,5.042544007E-1,2.310529798E-1
1.429557063E1,-1.318971992E0,6.065713167E-1,1.847812980E-1
1.430472220E1,-1.273005724E0,6.552863717E-1,1.447708011E-1
1.431387371E1,-1.210088372E0,5.908420086E-1,1.056765765E-1
1.432302527E1,-1.166565537E0,4.220954478E-1,7.910472155E-2
1.433217683E1,-1.152210593E0,1.973036677E-1,7.024743408E-2
1.434132834E1,-1.147934675E0,-2.901524538E-3,4.917320609E-2
1.435047990E1,-1.139077425E0,-1.259872466E-1,-2.153236605E-2
1.435961871E1,-1.112810969E0,-1.771457046E-1,-1.673721522E-1
1.436878303E1,-1.055849433E0,-1.922641695E-1,-3.420744538E-1
1.437793454E1,-9.622371197E-1,-1.835595965E-1,-4.605788291E-1
1.438707334E1,-8.147175312E-1,-2.467822880E-1,-5.271611810E-1
1.439623767E1,-6.459710002E-1,-3.675773442E-1,-5.271611810E-1
1.440538918E1,-4.839437306E-1,-5.859552622E-1,-4.807367921E-1
1.441452798E1,-3.332171738E-1,-8.591566682E-1,-4.304946065E-1
1.442369230E1,-1.679829955E-1,-1.019045949E0,-3.938437700E-1
1.443284386E1,2.458660305E-2,-9.862129092E-1,-3.802524209E-1
1.444199537E1,1.928750277E-1,-8.359444737E-1,-4.080459774E-1
1.445114694E1,2.887780368E-1,-6.276455522E-1,-5.039489865E-1
1.446029850E1,3.219164908E-1,-4.004103839E-1,-6.565080881E-1
1.446943730E1,3.440597057E-1,-1.708845198E-1,-8.550334573E-1
1.447860157E1,4.211791754E-1,1.527118147E-4,-1.082268596E0
1.448775313E1,6.633801460E-1,2.565558441E-2,-1.280335903E0
1.449689194E1,1.169008970E0,-2.977880463E-2,-1.345085621E0
1.450605621E1,1.949366331E0,-9.788827598E-2,-1.329203606E0
1.451520777E1,2.881061077E0,-2.322746664E-1,-1.415333152E0
1.452434657E1,4.063508511E0,-7.834116220E-1,-1.674026966E0
1.453351084E1,4.875324726E0,-1.438545346E0,-2.023278952E0
1.454266240E1,4.651754379E0,-1.652952671E0,-2.074131966E0
1.455180121E1,4.151165485E0,-1.977617979E0,-1.827654958E0
1.456096553E1,3.786794901E0,-2.393299580E0,-1.486802220E0
1.457011704E1,3.642176867E0,-2.598696947E0,-1.113269091E0
1.457925584E1,3.676231623E0,-2.414831877E0,-7.999044657E-1
1.458842016E1,3.802524090E0,-1.567434072E0,-4.979932308E-1
1.459757168E1,3.874604225E0,-1.012479365E-1,-2.121167034E-1
1.460671048E1,3.694862366E0,1.118766785E0,-4.825693369E-2
1.461587480E1,3.431739807E0,1.875148416E0,-3.833066672E-2
1.462502636E1,3.348359346E0,2.382457018E0,-1.919587553E-1
1.463416511E1,3.362256050E0,2.254331827E0,-3.005368412E-1
1.464332944E1,3.380886793E0,1.702125907E0,-3.549022675E-1
1.465248100E1,3.392493010E0,9.052756429E-1,-4.019374847E-1
1.466161980E1,3.350344419E0,-8.918370306E-2,-4.448495209E-1
1.467078407E1,3.345915794E0,-1.032026410E0,-5.173876286E-1
1.467993563E1,3.428227425E0,-1.673874259E0,-5.647283196E-1
1.468907444E1,3.506416082E0,-1.939440012E0,-5.656445622E-1
1.469823871E1,3.538180113E0,-2.029234648E0,-5.891621709E-1
1.470739027E1,3.474193811E0,-1.956543803E0,-6.117635369E-1
1.471652907E1,3.288190842E0,-1.734042645E0,-6.638382673E-1
1.472569334E1,3.024915695E0,-1.450151443E0,-6.714738607E-1
1.473484490E1,2.735679388E0,-1.244295835E0,-6.340594292E-1
1.474398371E1,2.460340023E0,-1.198329568E0,-6.187883019E-1
1.475314798E1,2.243031025E0,-1.289651275E0,-6.337540150E-1
1.476229954E1,2.063900232E0,-1.465880752E0,-6.262711287E-1
1.477145110E1,1.922030926E0,-1.684105873E0,-5.856497884E-1
1.478060267E1,1.815132618E0,-1.893015623E0,-5.123481154E-1
1.478975418E1,1.731446505E0,-2.110171795E0,-3.729222417E-1
1.479890574E1,1.662726283E0,-2.298923731E0,-2.072299272E-1
1.480805730E1,1.603015900E0,-2.363673449E0,-1.079672500E-1
1.481720881E1,1.511999726E0,-2.184237003E0,-1.003316641E-1
1.482634761E1,1.364785433E0,-1.695253849E0,-1.151447073E-1
1.483551194E1,1.183516622E0,-1.095707297E0,-5.024218559E-2
1.484466350E1,9.691091776E-1,-6.397097707E-1,1.267508119E-1
1.485380230E1,7.136223316E-1,-3.894151151E-1,3.006895781E-1
1.486296657E1,4.508052766E-1,-3.066453338E-1,4.556920528E-1
1.487211813E1,2.344126403E-1,-3.003841341E-1,6.129852533E-1
1.488125694E1,3.436015919E-2,-2.519744933E-1,7.592831254E-1
1.489042121E1,-2.200577259E-1,-1.313321590E-1,8.770239353E-1
1.489957277E1,-5.407525301E-1,5.803049076E-3,9.626953006E-1
1.490871157E1,-8.932114244E-1,1.605001241E-1,1.041189194E0
1.491787584E1,-1.333479524E0,3.228327632E-1,1.152821541E0
1.492702740E1,-1.918213129E0,3.785725832E-1,1.304922462E0
1.493616621E1,-2.482941389E0,2.360924631E-1,1.489092946E0
1.494533048E1,-2.872509241E0,1.345391124E-1,1.713121176E0
1.495448204E1,-2.579760790E0,4.892886579E-1,1.843842506E0
1.496362084E1,-1.404032469E0,1.400061965E0,1.731752038E0
1.497278517E1,-1.232384324E0,2.212641478E0,1.743358135E0
1.498193668E1,-1.975480080E0,5.155550838E-1,1.714342833E0
1.499107548E1,-2.489202499E0,-1.071120620E0,1.749008417E0
1.500023980E1,-2.715368748E0,2.614426315E-1,1.883852959E0
1.500939131E1,-3.044615507E0,1.929819226E0,1.327676535E0
1.501853011E1,-2.668638945E0,2.019002914E0,3.782671690E-1
1.502769444E1,-1.967997193E0,1.666085839E0,-1.466033459E-1
1.503684600E1,-1.898666024E0,8.564078808E-1,2.977880463E-2
1.504598475E1,-1.980214119E0,9.330692142E-2,6.543701291E-1
1.505514907E1,-2.095664263E0,6.688777357E-2,1.339282632E0
1.506430063E1,-2.308697224E0,4.097257853E-1,1.727323294E0
1.507343938E1,-2.508138895E0,4.874561131E-1,1.657992125E0
1.508260371E1,-2.576400995E0,4.836383164E-1,1.322789788E0
1.509175527E1,-2.473015070E0,6.890357137E-1,9.436063170E-1
1.510089407E1,-2.283499718E0,9.413156509E-1,6.436802745E-1
1.511005834E1,-2.177975893E0,9.932376146E-1,4.880669713E-1
1.511920990E1,-2.135063887E0,8.973346353E-1,4.543176591E-1
1.512834871E1,-2.101314545E0,7.715001106E-1,4.668400288E-1
1.513751298E1,-2.079629421E0,7.110261917E-1,5.476245880E-1
1.514666454E1,-2.084668875E0,6.675033569E-1,6.704048514E-1
1.515580334E1,-2.081003904E0,5.696150661E-1,7.565343380E-1
1.516496761E1,-2.067565203E0,5.117372870E-1,7.530219555E-1
1.517411918E1,-2.063136578E0,5.856497884E-1,6.992673874E-1
1.518325798E1,-2.072452068E0,7.788302302E-1,6.313106418E-1
1.519242230E1,-2.091541052E0,1.016602516E0,5.650337338E-1
1.520157381E1,-2.085890770E0,1.159693480E0,5.033381581E-1
1.521072537E1,-2.078255177E0,1.227802992E0,4.648547769E-1
1.521987694E1,-2.100703716E0,1.320651770E0,4.926483035E-1
1.522902845E1,-2.096885920E0,1.473363638E0,5.610632300E-1
1.523818001E1,-2.058707952E0,1.667613029E0,6.374191046E-1
1.524733157E1,-2.020529985E0,1.897749662E0,7.255338430E-1
1.525648308E1,-1.975938201E0,2.192788839E0,7.976137996E-1
1.526563464E1,-1.928444743E0,2.315874577E0,8.289197087E-1
1.527478621E1,-1.890877724E0,2.330382347E0,8.072346449E-1
1.528393777E1,-1.878660798E0,2.297549248E0,7.456917763E-1
1.529308928E1,-1.887212634E0,2.243642092E0,6.882721782E-1
1.530224084E1,-1.878508091E0,2.183931589E0,6.511631608E-1
1.531139240E1,-1.818950415E0,2.083294630E0,6.236750484E-1
1.532053121E1,-1.737402320E0,1.879577041E0,5.803049207E-1
1.532969548E1,-1.657992125E0,1.560714722E0,5.207473040E-1
1.533884704E1,-1.615690947E0,1.223527074E0,4.155288339E-1
1.534798584E1,-1.600114346E0,8.750386834E-1,2.370087355E-1
1.535715011E1,-1.549108624E0,5.062396526E-1,1.969982497E-2
1.536630168E1,-1.486191392E0,1.041494608E-1,-1.945548505E-1
1.537544048E1,-1.469393134E0,-2.490729690E-1,-3.504736125E-1
1.538460475E1,-1.470920205E0,-4.721849263E-1,-4.217900336E-1
1.539375631E1,-1.409530044E0,-5.865660906E-1,-3.999522328E-1
1.540289511E1,-1.224443316E0,-7.191199064E-1,-3.318427801E-1
1.541205938E1,-9.333745837E-1,-8.394568563E-1,-2.321219593E-1
1.542121095E1,-6.155813336E-1,-8.452599049E-1,-1.382041872E-1
1.543034975E1,-3.741439581E-1,-7.742488980E-1,-1.114796251E-1
1.543951402E1,-2.475458533E-1,-7.139277458E-1,-1.601946950E-1
1.544866558E1,-1.986780763E-1,-6.129852533E-1,-2.582356930E-1
1.545780438E1,-1.499630064E-1,-4.002576768E-1,-4.118637741E-1
1.546696871E1,-3.985778242E-2,-1.548497826E-1,-5.908420086E-1
1.547612022E1,1.334701329E-1,3.298575059E-2,-7.154548764E-1
1.548525902E1,3.643703759E-1,1.524063945E-1,-7.829535007E-1
1.549442334E1,7.035433054E-1,2.250972092E-1,-8.215895891E-1
1.550357485E1,1.191304922E0,2.454078794E-1,-9.200887084E-1
1.551272642E1,1.767181158E0,1.745496094E-1,-1.082726717E0
1.552187798E1,2.360466480E0,6.169557199E-2,-1.222610831E0
1.553102949E1,2.958027840E0,-5.192201585E-3,-1.315459609E0
1.554016829E1,3.634388447E0,-2.092151791E-1,-1.376391530E0
1.554933261E1,4.167352676E0,-5.712949038E-1,-1.423121452E0
1.555848412E1,4.233477116E0,-1.054322362E0,-1.344169378E0
1.556762292E1,3.990512371E0,-1.712968469E0,-1.105938911E0
1.557678725E1,3.688753843E0,-2.231119633E0,-7.913526297E-1
1.558593881E1,3.411123753E0,-2.323815584E0,-5.270084739E-1
1.559507756E1,3.213361979E0,-1.923557997E0,-3.773508966E-1
1.560424188E1,3.110892296E0,-1.039967418E0,-2.816005945E-1
1.561339345E1,3.045837164E0,-2.397575416E-2,-2.925958335E-1
1.562253220E1,3.022777557E0,6.357392669E-1,-4.610369802E-1
1.563169652E1,3.144947052E0,8.354863524E-1,-7.644753456E-1
1.564084808E1,3.409596682E0,6.739172339E-1,-1.067150116E0
1.564998688E1,3.606442213E0,2.634278834E-1,-1.293316364E0
1.565915115E1,3.578190565E0,-3.848337829E-1,-1.415180445E0
1.566830272E1,3.430365562E0,-1.087766290E0,-1.429840684E0
1.567744152E1,3.363477707E0,-1.415638566E0,-1.403727055E0
1.568660579E1,3.391882181E0,-1.424037695E0,-1.249640822E0
1.569575735E1,3.396310806E0,-1.134801507E0,-9.663603902E-1
1.570489615E1,3.342861652E0,-7.331694365E-1,-7.094991207E-1
1.571406043E1,3.213361979E0,-3.903313875E-1,-5.195255876E-1
1.572321199E1,3.002314329E0,-1.605001241E-1,-3.703261614E-1
1.573236355E1,2.738886356E0,-4.596625641E-2,-2.489202619E-1
1.574151506E1,2.484315872E0,-9.666658193E-2,-1.481304616E-1
1.575066662E1,2.250666618E0,-2.247917950E-1,-1.472141892E-1
1.575980543E1,2.048934460E0,-4.416425824E-1,-2.205158621E-1
1.576896970E1,1.917755008E0,-8.316685557E-1,-3.084778786E-1
1.577812126E1,1.845674992E0,-1.318055630E0,-4.778352678E-1
1.578726006E1,1.820324779E0,-1.916685939E0,-6.936170459E-1
1.579642438E1,1.799861431E0,-2.475000381E0,-9.266552925E-1
1.580557589E1,1.753589749E0,-2.756906509E0,-1.051420808E0
1.581471470E1,1.666849494E0,-2.655811071E0,-1.037371397E0
1.582387902E1,1.539487839E0,-2.259676695E0,-9.280297160E-1
1.583303053E1,1.416707516E0,-1.776343822E0,-7.056813240E-1
1.584216933E1,1.328134656E0,-1.318513751E0,-4.014793634E-1
1.585133365E1,1.270409584E0,-9.281824231E-1,-9.987352788E-2
1.586048517E1,1.171757698E0,-6.839962006E-1,1.197260618E-1
1.586962397E1,9.848384857E-1,-5.825955868E-1,2.533488870E-1
1.587878829E1,6.945333481E-1,-5.688515306E-1,3.526115716E-1
1.588793980E1,3.582619131E-1,-6.227588058E-1,4.217900336E-1
1.589707860E1,-3.741439432E-2,-6.801784039E-1,5.209000111E-1
1.590624292E1,-5.233433843E-1,-7.649334669E-1,6.293253899E-1
1.591539449E1,-1.091736794E0,-8.351809382E-1,7.834116220E-1
1.592453324E1,-1.379598498E0,-6.284091473E-1,9.309312105E-1
1.593369756E1,-7.957812548E-1,-9.804098308E-2,8.509102464E-1
1.594284912E1,-3.219164908E-1,1.022863746E0,8.339592218E-1
1.595198787E1,-6.233696342E-1,1.853921413E0,1.159693480E0
1.596115220E1,-9.536852837E-1,1.119072199E0,1.375933409E0
1.597030376E1,-1.293774486E0,1.243837714E0,1.669140100E0
1.597944251E1,-2.263799906E0,1.509250879E0,1.652341843E0
1.598860683E1,-2.861972094E0,2.667111874E0,1.324622273E0
1.599775839E1,-2.172783613E0,2.985363245E0,7.870767117E-1
1.600689714E1,-1.660130143E0,2.022973299E0,3.675773442E-1
1.601606147E1,-1.645317078E0,8.003626466E-1,4.138490260E-1
1.602521303E1,-1.751909971E0,1.363716573E-1,7.841751575E-1
1.603435183E1,-2.050156116E0,5.515950918E-1,1.084712029E0
1.604351610E1,-2.339850426E0,1.231620789E0,1.093721986E0
1.605266766E1,-2.454995155E0,1.456565261E0,8.985562921E-1
1.606180647E1,-2.437586069E0,1.463742733E0,7.174401283E-1
1.607097074E1,-2.352983713E0,1.443890214E0,7.088882327E-1
1.608012230E1,-2.308544397E0,1.305991411E0,8.344173431E-1
1.608926110E1,-2.306253910E0,1.074938416E0,9.512419105E-1
1.609842537E1,-2.283957958E0,9.100096822E-1,9.715525508E-1
1.610757694E1,-2.249292374E0,8.417475224E-1,9.248227477E-1
1.611672845E1,-2.230050564E0,7.316423059E-1,8.145648241E-1
1.612588001E1,-2.228981733E0,6.111527085E-1,6.780404449E-1
1.613503157E1,-2.230508804E0,5.613686442E-1,5.430431962E-1
1.614417037E1,-2.186222315E0,5.754181147E-1,4.199574888E-1
1.615333464E1,-2.154152870E0,6.380299330E-1,4.017847776E-1
1.616248621E1,-2.156901598E0,6.592568755E-1,4.408790171E-1
1.617162501E1,-2.175227165E0,6.219952106E-1,4.840964675E-1
1.618078928E1,-2.193552494E0,5.280774832E-1,4.877615273E-1
1.618994084E1,-2.225011110E0,4.790569544E-1,4.417952895E-1
1.619907964E1,-2.245779991E0,6.264238358E-1,3.865135908E-1
1.620824392E1,-2.247765303E0,9.210049510E-1,3.814741075E-1
1.621739548E1,-2.249903202E0,1.211157441E0,4.434750974E-1
1.622654704E1,-2.273115396E0,1.468782187E0,5.749599934E-1
1.623569855E1,-2.279376507E0,1.769471765E0,6.974348426E-1
1.624485011E1,-2.208518267E0,2.021751642E0,7.563816309E-1
1.625400168E1,-2.116433144E0,2.179197550E0,7.875348330E-1
1.626315324E1,-2.045727491E0,2.397575378E0,8.128849864E-1
1.627230475E1,-2.006480455E0,2.558075666E0,8.448017836E-1
1.628145631E1,-1.984490037E0,2.587548971E0,8.449544907E-1
1.629060782E1,-1.960361600E0,2.533183575E0,7.754706144E-1
1.629975938E1,-1.932873487E0,2.402615070E0,6.707102656E-1
1.630889818E1,-1.893015623E0,2.198591948E0,5.705313683E-1
1.631806246E1,-1.816354275E0,1.930277348E0,4.758500159E-1
1.632721402E1,-1.717397094E0,1.523758531E0,3.736858070E-1
1.633635282E1,-1.607291818E0,1.040272832E0,2.765611112E-1
1.634551714E1,-1.490314603E0,5.299099684E-1,1.910424829E-1
1.635466865E1,-1.362342119E0,-1.038440317E-2,7.391251624E-2
1.636382022E1,-1.266591787E0,-5.267030597E-1,-8.322793990E-2
1.637297178E1,-1.235285878E0,-9.130639434E-1,-2.641914487E-1
1.638212329E1,-1.244906664E0,-1.216655016E0,-4.196520746E-1
1.639126209E1,-1.220930934E0,-1.443584800E0,-5.028799772E-1
1.640042642E1,-1.130831003E0,-1.534448266E0,-5.065450668E-1
1.640957792E1,-9.816315174E-1,-1.469545841E0,-4.755446017E-1
1.641871673E1,-8.020424247E-1,-1.238950968E0,-4.231644273E-1
1.642788105E1,-6.426113248E-1,-9.750649333E-1,-3.478775024E-1
1.643703256E1,-5.045598149E-1,-8.727480173E-1,-2.736595869E-1
1.644618412E1,-3.691044450E-1,-9.362761378E-1,-2.324273884E-1
1.645533568E1,-2.791571915E-1,-1.008356094E0,-2.279987335E-1
1.646448720E1,-2.956500649E-1,-9.964445829E-1,-2.648022771E-1
1.647363876E1,-3.802524209E-1,-8.829796910E-1,-3.393256664E-1
1.648279032E1,-4.459185004E-1,-7.142331600E-1,-4.619532526E-1
1.649194183E1,-4.045335948E-1,-6.048914790E-1,-5.919110179E-1
1.650108063E1,-1.976090819E-1,-5.129590034E-1,-7.430956960E-1
1.651024496E1,2.180724740E-1,-3.984251320E-1,-8.984035850E-1
1.651939647E1,8.819107413E-1,-2.652604282E-1,-1.023932695E0
1.652853527E1,1.744427085E0,-2.061609477E-1,-1.180309653E0
1.653769959E1,2.639012814E0,-2.622061968E-1,-1.413958669E0
1.654685110E1,3.496489763E0,-4.245388508E-1,-1.672194362E0
1.655598990E1,4.454298019E0,-7.699729800E-1,-1.957001925E0
1.656515423E1,5.338805199E0,-1.226123214E0,-2.310835123E0
1.657430579E1,5.363238811E0,-1.471989155E0,-2.502183199E0
1.658344454E1,4.842491627E0,-1.808871388E0,-2.410250664E0
1.659260886E1,4.319453716E0,-2.196454048E0,-2.084058046E0
1.660176043E1,3.927595139E0,-2.234326601E0,-1.597060204E0
1.661089918E1,3.654088259E0,-1.660282850E0,-1.077839971E0
1.662006350E1,3.502750874E0,-5.540384650E-1,-5.575508475E-1
1.662921506E1,3.438153744E0,7.565343380E-1,-9.544488788E-2
1.663835386E1,3.405320644E0,1.698155403E0,1.679829955E-1
1.664751813E1,3.452814102E0,2.118265629E0,1.655396074E-1
1.665666970E1,3.658822298E0,2.293578863E0,-8.903098851E-2
1.666580850E1,3.856278658E0,2.128802776E0,-4.208737612E-1
1.667497277E1,3.864067078E0,1.691130638E0,-6.000047326E-1
1.668412433E1,3.667221546E0,9.614735842E-1,-6.418477297E-1
1.669326313E1,3.457548141E0,1.236965731E-1,-6.175665855E-1
1.670242740E1,3.344388723E0,-5.357130170E-1,-6.123743653E-1
1.671157897E1,3.338433027E0,-8.926005363E-1,-6.274928451E-1
1.672071777E1,3.368211746E0,-9.978190064E-1,-5.960342288E-1
1.672988204E1,3.353093386E0,-1.012632012E0,-4.960079789E-1
1.673903360E1,3.285289288E0,-1.028208613E0,-4.292729199E-1
1.674817240E1,3.125400066E0,-1.028361320E0,-4.103366435E-1
1.675733668E1,2.898470163E0,-1.085170150E0,-3.941491842E-1
1.676648824E1,2.666195631E0,-1.163358569E0,-3.988832533E-1
1.677562704E1,2.443694353E0,-1.274838209E0,-4.576773047E-1
1.678479131E1,2.239824295E0,-1.400214672E0,-5.366293192E-1
1.679394287E1,2.052294016E0,-1.493521571E0,-5.702258945E-1
1.680308168E1,1.884463787E0,-1.626838923E0,-5.645755529E-1
1.681224595E1,1.760767221E0,-1.872094154E0,-5.280774832E-1
1.682139751E1,1.683953166E0,-2.201798916E0,-4.917320311E-1
1.683053631E1,1.601336122E0,-2.415137291E0,-4.761554301E-1
1.683970058E1,1.460688472E0,-2.283347130E0,-4.511106908E-1
1.684885214E1,1.301562786E0,-1.829334855E0,-3.396310806E-1
1.685799095E1,1.161373377E0,-1.313779712E0,-1.669140160E-1
1.686715522E1,1.037065983E0,-9.246700406E-1,-7.635590737E-4
1.687630678E1,9.148964882E-1,-6.248967648E-1,1.056765765E-1
1.688544558E1,7.788302302E-1,-5.183038712E-1,1.467560530E-1
1.689460985E1,6.146650314E-1,-5.858024955E-1,1.774511337E-1
1.690376142E1,4.004103839E-1,-6.372663975E-1,2.370087355E-1
1.691290022E1,1.333174109E-1,-5.992411375E-1,3.400892019E-1
1.692206449E1,-1.443126649E-1,-4.943281412E-1,4.906630516E-1
1.693121605E1,-4.837910235E-1,-3.067980409E-1,6.818582416E-1
1.694035485E1,-9.338327646E-1,-1.241547018E-1,8.732061386E-1
1.694951912E1,-1.416096687E0,-1.809635013E-1,1.034164429E0
1.695867068E1,-1.588355541E0,-3.309265077E-1,1.128845692E0
1.696780949E1,-1.030652046E0,-8.490777016E-2,1.078908920E0
1.697697376E1,-8.104416132E-1,6.806365848E-1,1.051268101E0
1.698612532E1,-1.185807228E0,9.643751383E-1,1.196802497E0
1.699526412E1,-1.307976723E0,6.847597957E-1,1.376238823E0
1.700442839E1,-1.627297044E0,1.884463787E0,1.656465054E0
1.701357996E1,-2.343821049E0,1.901567459E0,1.387539506E0
1.702271876E1,-2.886864185E0,2.164995432E0,9.891144037E-1
1.703188303E1,-2.608775854E0,2.651077032E0,8.258655071E-1
1.704103459E1,-2.148960590E0,2.075964451E0,7.220214605E-1
1.705017339E1,-2.178434134E0,7.832589149E-1,7.464553714E-1
1.705933766E1,-2.354663372E0,3.558185324E-2,9.883508682E-1
1.706848923E1,-2.533794403E0,5.213581324E-1,1.227802992E0
1.707764079E1,-2.694294453E0,1.063790560E0,1.193442822E0
1.708679230E1,-2.717659473E0,1.125944257E0,8.982508779E-1
1.709594386E1,-2.691851139E0,1.181684017E0,6.540647149E-1
1.710508266E1,-2.618702173E0,1.273921967E0,6.380299330E-1
1.711424694E1,-2.529365778E0,1.205965161E0,7.853968740E-1
1.712339850E1,-2.474847555E0,9.112313986E-1,9.184088707E-1
1.713253730E1,-2.418955088E0,5.535803437E-1,9.776610136E-1
1.714170157E1,-2.348860502E0,2.964136302E-1,9.729269743E-1
1.715085313E1,-2.306711912E0,1.498102844E-1,9.133693576E-1
1.715999194E1,-2.290219069E0,8.490777016E-2,8.006680608E-1
1.716915621E1,-2.329771519E0,1.675248593E-1,6.598677635E-1
1.717830777E1,-2.378639221E0,3.712424338E-1,5.531222224E-1
1.718745933E1,-2.395132065E0,6.006155610E-1,5.057815313E-1
1.719661084E1,-2.418038845E0,8.008207679E-1,5.140279531E-1
1.720576240E1,-2.439113140E0,1.010494113E0,5.430431962E-1
1.721491397E1,-2.464005232E0,1.173895717E0,5.592306852E-1
1.722406548E1,-2.496227264E0,1.191915751E0,5.711421967E-1
1.723321704E1,-2.503557444E0,1.173284888E0,5.986303091E-1
1.724236860E1,-2.486759186E0,1.210241079E0,6.397097707E-1
1.725152011E1,-2.485537529E0,1.303395391E0,7.043069005E-1
1.726067168E1,-2.548149347E0,1.602252364E0,7.458444834E-1
1.726982324E1,-2.513483763E0,1.808413267E0,7.482879162E-1
1.727897475E1,-2.368560314E0,1.809635043E0,6.949914694E-1
1.728812631E1,-2.313125849E0,1.861251593E0,6.233696342E-1
1.729726511E1,-2.308544397E0,2.001441002E0,5.322006941E-1
1.730642938E1,-2.276780367E0,2.008313179E0,4.439332485E-1
1.731558095E1,-2.210198164E0,1.979297876E0,3.790307343E-1
1.732473251E1,-2.095969677E0,1.971509576E0,3.231382072E-1
1.733388402E1,-1.981283069E0,1.991362095E0,2.774773538E-1
1.734303558E1,-1.913479090E0,1.913020849E0,2.907632887E-1
1.735217438E1,-1.842162609E0,1.762141585E0,3.481829464E-1
1.736133865E1,-1.748703003E0,1.433505774E0,3.930802047E-1
1.737049022E1,-1.646996975E0,9.836167693E-1,4.393518865E-1
1.737962902E1,-1.521773219E0,4.251496792E-1,4.253024161E-1
1.738879329E1,-1.381736517E0,-2.266243398E-1,2.838912606E-1
1.739794485E1,-1.273769259E0,-8.823688626E-1,4.520269856E-2
1.740708365E1,-1.201841950E0,-1.430451512E0,-2.281514555E-1
1.741624792E1,-1.123806238E0,-1.916991353E0,-4.787515402E-1
1.742539949E1,-1.006370902E0,-2.224247694E0,-6.621584296E-1
1.743453829E1,-8.935168386E-1,-2.215543032E0,-7.956285477E-1
1.744370256E1,-8.967237473E-1,-1.911188364E0,-8.136485219E-1
1.745285412E1,-1.039814711E0,-1.262010455E0,-7.064448595E-1
1.746199292E1,-1.072189689E0,-6.704048514E-1,-5.642701387E-1
1.747115720E1,-8.826742768E-1,-2.568612695E-1,-4.575245976E-1
1.748030876E1,-6.009209752E-1,1.162136942E-1,-3.776563108E-1
1.748944756E1,-2.420482337E-1,2.338017821E-1,-3.611634374E-1
1.749861183E1,1.334701329E-1,-3.649812192E-2,-4.352286756E-1
1.750776339E1,5.012001991E-1,-4.190412164E-1,-5.909947157E-1
1.751690220E1,9.666658044E-1,-6.245913506E-1,-7.855495811E-1
1.752606647E1,1.570030212E0,-5.577035546E-1,-1.040272832E0
1.753521803E1,2.226232767E0,-4.301891923E-1,-1.381431103E0
1.754435683E1,2.863041162E0,-3.449759781E-1,-1.740914702E0
1.755352110E1,3.421355486E0,-1.356080920E-1,-2.032594204E0
1.756267266E1,3.885293961E0,1.110214889E-1,-2.196759462E0
1.757181147E1,4.223245144E0,1.459924877E-1,-2.180419207E0
1.758097574E1,4.394740582E0,-1.872246861E-1,-2.084363461E0
1.759012730E1,4.328921795E0,-5.638120174E-1,-1.900803924E0
1.759926610E1,4.074962139E0,-7.298097610E-1,-1.546359777E0
1.760843037E1,3.753045559E0,-4.614951015E-1,-1.052947998E0
1.761758194E1,3.410971165E0,2.148655206E-1,-5.532749295E-1
1.762672074E1,3.110128880E0,8.709154725E-1,-1.388150454E-1
1.763588501E1,2.985057831E0,1.297592282E0,9.132166207E-2
1.764503657E1,3.118222475E0,1.424495816E0,1.166718230E-1
1.765417537E1,3.423493385E0,1.391510010E0,2.290677279E-3
1.766333964E1,3.738690615E0,1.317139387E0,-1.902789176E-1
1.767249121E1,3.956763029E0,1.205201626E0,-3.773508966E-1
1.768163001E1,3.964398623E0,8.590039611E-1,-4.485146105E-1
1.769079428E1,3.791070700E0,3.732276857E-1,-4.194993675E-1
1.769994584E1,3.647827148E0,-6.108472589E-4,-4.294256270E-1
1.770908459E1,3.592392683E0,-4.118637741E-1,-4.618005157E-1
1.771824892E1,3.547648191E0,-7.090409398E-1,-4.943281412E-1
1.772740048E1,3.436015844E0,-8.246437907E-1,-5.285356045E-1
1.773653928E1,3.248027563E0,-8.302941322E-1,-5.097520351E-1
1.774570355E1,3.015905619E0,-8.255600929E-1,-4.399627447E-1
1.775485511E1,2.787296057E0,-8.820634484E-1,-3.248180151E-1
1.776399386E1,2.649244547E0,-1.066997409E0,-2.493783981E-1
1.777315818E1,2.518523216E0,-1.203369141E0,-2.405211031E-1
1.778230975E1,2.387343884E0,-1.317750216E0,-2.974826097E-1
1.779144850E1,2.269755602E0,-1.528339863E0,-3.512371778E-1
1.780061282E1,2.163620949E0,-1.845674992E0,-4.005630910E-1
1.780976438E1,2.060540438E0,-2.147280931E0,-4.347705245E-1
1.781890313E1,1.950587988E0,-2.316332817E0,-4.683671296E-1
1.782806746E1,1.836512327E0,-2.447359562E0,-4.903576374E-1
1.783721897E1,1.730835676E0,-2.621756554E0,-4.915793240E-1
1.784635777E1,1.606986403E0,-2.631530046E0,-4.918847680E-1
1.785552209E1,1.452442050E0,-2.315416574E0,-4.810422063E-1
1.786467360E1,1.272394896E0,-1.777260065E0,-3.923166394E-1
1.787381240E1,1.096165419E0,-1.247197390E0,-2.174616307E-1
1.788297673E1,9.550597072E-1,-8.532009125E-1,-3.252761811E-2
1.789212824E1,8.457180262E-1,-6.033644080E-1,1.020114943E-1
1.790126704E1,7.101099491E-1,-5.079194903E-1,2.086043358E-1
1.791043136E1,4.711159468E-1,-3.836120665E-1,3.466558158E-1
1.791958287E1,1.090362370E-1,-1.545443535E-1,5.141806602E-1
1.792872168E1,-3.559712470E-1,7.666133344E-2,6.598677635E-1
1.793788600E1,-8.365553021E-1,2.073826492E-1,8.247964978E-1
1.794703751E1,-1.371962905E0,2.047865391E-1,1.028666735E0
1.795618907E1,-1.919740200E0,7.834116369E-2,1.271020412E0
1.796534063E1,-2.219971657E0,3.115320951E-2,1.531546831E0
1.797449214E1,-1.770846248E0,4.167505503E-1,1.774358630E0
1.798363095E1,-1.348598003E0,1.253153205E0,2.077186108E0
1.799279527E1,-1.580719948E0,1.934247851E0,2.482330561E0
1.800194678E1,-1.960514307E0,1.386470556E0,2.662072420E0
1.801108558E1,-2.249750376E0,1.012632012E0,2.729265451E0
1.802024990E1,-2.514247417E0,1.004080176E0,2.487980843E0
1.802940142E1,-2.966579676E0,1.165802002E0,1.825364351E0
1.803854022E1,-2.776453495E0,8.942803741E-1,1.010952234E0
1.804770454E1,-2.203478813E0,5.095993280E-1,3.765873313E-1
1.805685605E1,-1.913326383E0,-4.306473210E-2,1.157555580E-1
1.806599485E1,-1.816201568E0,-9.967499971E-1,1.495048702E-1
1.807515912E1,-1.865222096E0,-1.420067191E0,3.918585181E-1
1.808431069E1,-2.042367697E0,-1.059972763E0,6.945333481E-1
1.809344949E1,-2.240129709E0,-5.244123936E-1,8.863393664E-1
1.810261376E1,-2.416511774E0,-2.153236605E-2,8.816053271E-1
1.811176532E1,-2.527075052E0,5.436540842E-1,7.852441669E-1
1.812090412E1,-2.537001371E0,1.071273327E0,6.968240142E-1
1.813006839E1,-2.540971994E0,1.544069171E0,6.433748603E-1
1.813921996E1,-2.582204103E0,1.886143565E0,6.415423155E-1
1.814835876E1,-2.597475290E0,2.030150890E0,7.353073955E-1
1.815752303E1,-2.593810081E0,2.141172409E0,9.546015263E-1
1.816667459E1,-2.557770252E0,2.134300232E0,1.189777732E0
1.817581339E1,-2.535474300E0,1.951962471E0,1.398382068E0
1.818497766E1,-2.544178724E0,1.698002696E0,1.523147583E0
1.819412923E1,-2.542957067E0,1.515359282E0,1.473821759E0
1.820326803E1,-2.540819168E0,1.361425877E0,1.280335903E0
1.821243230E1,-2.575026512E0,1.243532300E0,1.020573020E0
1.822158386E1,-2.626032352E0,1.199704051E0,7.614210844E-1
1.823072267E1,-2.646037579E0,1.140451789E0,5.561764240E-1
1.823988694E1,-2.632904291E0,1.176033735E0,3.955236077E-1
1.824903850E1,-2.590755939E0,1.307824016E0,2.174616307E-1
1.825817730E1,-2.547538519E0,1.450151443E0,5.772506446E-2
1.826734157E1,-2.459882021E0,1.636612535E0,-6.948387623E-2
1.827649313E1,-2.294800520E0,1.789935231E0,-8.292251825E-2
1.828563194E1,-2.068786860E0,1.889655948E0,6.139015034E-2
1.829479621E1,-1.777870893E0,1.784284830E0,2.704526186E-1
1.830394777E1,-1.521315098E0,1.617218137E0,4.343124032E-1
1.831309928E1,-1.369672298E0,1.573695302E0,5.251759291E-1
1.832225084E1,-1.232384324E0,1.583774209E0,5.468609929E-1
1.833140240E1,-1.056460381E0,1.579650998E0,5.028799772E-1
1.834054115E1,-8.973346353E-1,1.582857966E0,4.784461260E-1
1.834970548E1,-7.495095730E-1,1.464200854E0,4.593571424E-1
1.835885704E1,-5.969504714E-1,1.167939901E0,4.216373265E-1
1.836799579E1,-4.975350797E-1,8.339592218E-1,3.645231128E-1
1.837716011E1,-4.495835900E-1,5.155550838E-1,3.028275371E-1
1.838631162E1,-3.970507085E-1,3.405473530E-1,2.086043358E-1
1.839545042E1,-3.023693860E-1,3.052709103E-1,5.482354015E-2
1.840461475E1,-2.310529798E-1,1.317902952E-1,-1.136175916E-1
1.841376626E1,-1.525591016E-1,-6.077930331E-2,-2.313583940E-1
1.842291782E1,-1.192679256E-1,-1.647760421E-1,-3.080197275E-1
1.843206938E1,-1.586675793E-1,-3.506263196E-1,-3.741439581E-1
1.844122089E1,-2.376195788E-1,-6.528429985E-1,-4.398100376E-1
1.845037246E1,-2.864873707E-1,-9.660549164E-1,-4.955498278E-1
1.845952402E1,-2.770192325E-1,-1.185959935E0,-5.227325559E-1
1.846867553E1,-1.850867122E-1,-1.243837714E0,-5.496098399E-1
1.847781433E1,1.649287529E-2,-1.211310148E0,-6.317687631E-1
1.848697865E1,3.180987239E-1,-1.156028390E0,-7.927270532E-1
1.849613016E1,6.441384554E-1,-1.121362805E0,-9.944593310E-1
1.850526897E1,9.381086826E-1,-1.038440347E0,-1.189166903E0
1.851443324E1,1.166412830E0,-9.074136019E-1,-1.367076159E0
1.852358480E1,1.336381078E0,-7.719582319E-1,-1.489398360E0
1.853272360E1,1.530783176E0,-5.531222224E-1,-1.542542100E0
1.854188787E1,1.857281089E0,-2.870981991E-1,-1.612484097E0
1.855103944E1,2.327786207E0,-9.162708884E-4,-1.683800459E0
1.856017824E1,2.817380190E0,3.407000601E-1,-1.709303379E0
1.856934251E1,3.126774311E0,6.578825116E-1,-1.629893184E0
1.857849407E1,3.247722149E0,7.229377031E-1,-1.383569002E0
1.858763287E1,3.255663157E0,4.972296655E-1,-1.003469348E0
1.859679714E1,3.285289288E0,2.545706034E-1,-5.108210444E-1
1.860594871E1,3.427005768E0,1.459924877E-1,2.504473738E-2
1.861508751E1,3.533293247E0,1.612636745E-1,5.302154422E-1
1.862425178E1,3.454493999E0,2.696890533E-1,8.599202037E-1
1.863340334E1,3.242529869E0,3.608580232E-1,8.125795722E-1
1.864254214E1,3.127232552E0,4.138490260E-1,4.001049399E-1
1.865170642E1,3.232909203E0,3.662029207E-1,-1.455343664E-1
1.866085798E1,3.495878935E0,1.075091213E-1,-7.437065244E-1
1.866999673E1,3.701581717E0,-2.484621257E-1,-1.260483265E0
1.867916105E1,3.600181103E0,-1.059056401E0,-1.548803210E0
1.868831261E1,3.405015230E0,-1.897902489E0,-1.610193372E0
1.869745136E1,3.335378647E0,-2.132773161E0,-1.568961143E0
1.870661569E1,3.338738441E0,-1.997928619E0,-1.475654244E0
1.871576720E1,3.395394564E0,-1.609582543E0,-1.223221660E0
1.872490600E1,3.420286417E0,-1.100746751E0,-8.771766424E-1
1.873407032E1,3.286205530E0,-6.508577466E-1,-5.975613594E-1
1.874322183E1,3.009797096E0,-3.416163325E-1,-4.317162931E-1
1.875236063E1,2.686811686E0,-3.020639718E-1,-3.718532622E-1
1.876152496E1,2.378792048E0,-4.647020400E-1,-3.817795515E-1
1.877067647E1,2.133383989E0,-6.435275674E-1,-4.089622498E-1
1.877981527E1,1.966011882E0,-8.808417320E-1,-4.228590131E-1
1.878897959E1,1.867818236E0,-1.141826272E0,-4.100312293E-1
1.879813110E1,1.835137844E0,-1.432131410E0,-3.800997138E-1
1.880726990E1,1.814979911E0,-1.737707734E0,-3.817795515E-1
1.881643418E1,1.795738220E0,-2.115058661E0,-4.213318825E-1
1.882558574E1,1.731446505E0,-2.383220673E0,-5.369347334E-1
1.883472454E1,1.589730024E0,-2.333894730E0,-6.687250137E-1
1.884388881E1,1.406628489E0,-2.025874853E0,-7.215633392E-1
1.885304037E1,1.221541762E0,-1.607749939E0,-6.713211536E-1
1.886217918E1,1.068066478E0,-1.162442327E0,-5.945070982E-1
1.887134345E1,9.602518678E-1,-7.887565494E-1,-4.996730685E-1
1.888049501E1,8.663341403E-1,-5.473191738E-1,-3.845283389E-1
1.888963381E1,7.224795818E-1,-3.794888556E-1,-2.531961799E-1
1.889879808E1,4.987567961E-1,-1.856975704E-1,-6.856760383E-2
1.890794964E1,1.963873953E-1,2.443389036E-2,1.806580722E-1
1.891710115E1,-1.595838517E-1,1.375933439E-1,4.364503622E-1
1.892625272E1,-5.967977643E-1,1.346918195E-1,6.531484127E-1
1.893540428E1,-1.063637733E0,1.252236813E-1,8.721371889E-1
1.894455579E1,-1.595685720E0,1.626380831E-1,1.134648800E0
1.895370735E1,-2.101467371E0,1.925695986E-1,1.424037695E0
1.896285886E1,-2.071230412E0,3.723114133E-1,1.637376070E0
1.897199766E1,-1.464048147E0,7.986828089E-1,1.759240150E0
1.898116199E1,-1.328440070E0,1.255138397E0,1.962499499E0
1.899031350E1,-1.453205585E0,1.123806238E0,2.168813229E0
1.899945230E1,-1.810856700E0,3.460449576E-1,2.211419821E0
1.900861662E1,-2.174768925E0,4.874561131E-1,2.137201786E0
1.901776813E1,-2.461714506E0,1.489092946E0,1.697849989E0
1.902690694E1,-2.543720722E0,1.905690789E0,1.000262380E0
1.903607126E1,-2.312515020E0,1.506502032E0,3.445178568E-1
1.904522277E1,-2.077186108E0,1.015838981E0,7.849387079E-2
1.905436157E1,-2.014726877E0,3.407000601E-1,2.606790662E-1
1.906352584E1,-2.084821701E0,-1.640124917E-1,6.904101372E-1
1.907267740E1,-2.273267984E0,-1.734806150E-1,1.144116879E0
1.908181621E1,-2.465532303E0,1.021642014E-1,1.430146098E0
1.909098048E1,-2.563420534E0,2.967190444E-1,1.436712742E0
1.910013204E1,-2.595031977E0,4.802786708E-1,1.237271070E0
1.910927084E1,-2.529976606E0,6.986565590E-1,9.773555994E-1
1.911843511E1,-2.434684515E0,8.305995464E-1,7.551599145E-1
1.912758668E1,-2.363215446E0,8.629744649E-1,5.454866290E-1
1.913672548E1,-2.274795294E0,8.545753360E-1,3.648285270E-1
1.914588975E1,-2.213557720E0,8.933641315E-1,3.816268146E-1
1.915504131E1,-2.214473963E0,8.516737819E-1,5.184566379E-1
1.916418011E1,-2.235548258E0,7.113316059E-1,6.954495907E-1
1.917334438E1,-2.262425423E0,6.310052276E-1,8.272398710E-1
1.918249595E1,-2.277238607E0,6.642963886E-1,8.796200752E-1
1.919163470E1,-2.285637617E0,7.951704264E-1,8.690829277E-1
1.920079902E1,-2.326869965E0,9.515473247E-1,8.278507590E-1
1.920995053E1,-2.363826275E0,1.098914266E0,7.766922712E-1
1.921910209E1,-2.389023542E0,1.261399627E0,7.337802649E-1
1.922825365E1,-2.451024532E0,1.538877010E0,6.733064055E-1
1.923740517E1,-2.516537905E0,1.803068399E0,6.084038615E-1
1.924655673E1,-2.524784327E0,1.782299638E0,5.375455618E-1
1.925570829E1,-2.481719732E0,1.680898905E0,4.995203316E-1
1.926485980E1,-2.387343884E0,1.737707734E0,5.044071078E-1
1.927399860E1,-2.280903578E0,1.814063668E0,5.483881235E-1
1.928316287E1,-2.104063272E0,1.790393353E0,5.796940327E-1
1.929231444E1,-1.865069389E0,1.746106863E0,5.899257660E-1
1.930146600E1,-1.692963123E0,1.700293303E0,6.387935281E-1
1.931061751E1,-1.607139111E0,1.653563499E0,6.815528274E-1
1.931976907E1,-1.523758531E0,1.588508248E0,6.711684465E-1
1.932890787E1,-1.397313118E0,1.460841179E0,6.142069101E-1
1.933807214E1,-1.255291104E0,1.265980959E0,5.103628635E-1
1.934722371E1,-1.153890491E0,1.016602516E0,3.610107303E-1
1.935636251E1,-1.037676811E0,7.076665759E-1,1.916533262E-1
1.936552678E1,-9.199360013E-1,4.553866386E-1,3.329117596E-2
1.937467834E1,-8.370134830E-1,2.628170252E-1,-9.239064902E-2
1.938381714E1,-8.079982400E-1,9.681928903E-2,-1.751604527E-1
1.939298142E1,-8.159392476E-1,-4.245388508E-2,-2.110477239E-1
1.940213298E1,-8.289197087E-1,-1.763821393E-1,-2.293731421E-1
1.941127173E1,-8.276980519E-1,-3.083251417E-1,-2.255553454E-1
1.942043605E1,-8.237275481E-1,-4.805840850E-1,-2.119639963E-1
1.942958756E1,-8.478559852E-1,-6.818582416E-1,-2.084516287E-1
1.943873912E1,-9.025267959E-1,-8.255600929E-1,-2.472404242E-1
1.944789068E1,-9.278770089E-1,-8.495358229E-1,-3.315373361E-1
1.945704220E1,-8.324320912E-1,-8.420529366E-1,-4.639385045E-1
1.946618100E1,-6.079457402E-1,-8.525900841E-1,-6.481089592E-1
1.947534532E1,-3.038965166E-1,-8.469397426E-1,-8.553388715E-1
1.948449683E1,-1.756185852E-2,-7.548545003E-1,-9.932376146E-1
1.949363563E1,2.119639963E-1,-5.387672782E-1,-1.030193925E0
1.950279990E1,4.150707126E-1,-3.069507480E-1,-1.021642089E0
1.951195147E1,6.649072170E-1,-1.866138428E-1,-1.018740535E0
1.952109027E1,1.084864736E0,-1.432436854E-1,-1.025001645E0
1.953025454E1,1.681357026E0,-6.734590977E-2,-1.133885264E0
1.953940610E1,2.386733055E0,-6.459710002E-2,-1.340809703E0
1.954854490E1,3.230160236E0,-2.535016239E-1,-1.602710485E0
1.955770918E1,4.033119202E0,-4.616478086E-1,-1.829640269E0
1.956686074E1,4.304029942E0,-6.192464232E-1,-1.891030431E0
1.957599949E1,4.169032574E0,-1.025765300E0,-1.742747188E0
1.958516381E1,3.962566137E0,-1.462368369E0,-1.424495816E0
1.959431537E1,3.849406719E0,-1.538724303E0,-1.020420313E0
1.960345412E1,3.796415806E0,-1.172063231E0,-6.381826997E-1
1.961261845E1,3.778853893E0,-4.608842432E-1,-2.944283783E-1
1.962176996E1,3.755183458E0,4.866925478E-1,-1.863084175E-2
1.963090876E1,3.707079411E0,1.355928183E0,7.330167294E-2
1.964007308E1,3.625378370E0,1.820477486E0,-7.421794534E-2
1.964922459E1,3.577426910E0,1.862015128E0,-3.842229247E-1
1.965836339E1,3.639580727E0,1.531394124E0,-6.844543815E-1
1.966752766E1,3.744493723E0,1.024848938E0,-8.128849864E-1
1.967667923E1,3.790765285E0,5.312843919E-1,-8.281561732E-1
1.968581803E1,3.767400503E0,-4.230117425E-2,-7.924215794E-1
1.969498230E1,3.710744381E0,-6.242858768E-1,-7.490514517E-1
1.970413386E1,3.681576490E0,-1.000720501E0,-6.507050395E-1
1.971327266E1,3.688601255E0,-1.009272337E0,-5.442649126E-1
1.972243694E1,3.680049419E0,-8.701519370E-1,-4.046863019E-1
1.973158850E1,3.592698097E0,-7.773031592E-1,-2.124221325E-1
1.974072730E1,3.411123753E0,-7.582141757E-1,-3.237490356E-2
1.974989157E1,3.182208776E0,-7.588250041E-1,4.902049154E-2
1.975904313E1,2.935884714E0,-8.335011005E-1,2.107422985E-2
1.976818188E1,2.703609943E0,-9.517000318E-1,-4.749337584E-2
1.977734621E1,2.495311022E0,-1.112200141E0,-1.814216375E-1
1.978649777E1,2.274795294E0,-1.330730796E0,-3.239017725E-1
1.979563652E1,2.106048584E0,-1.724727273E0,-4.004103839E-1
1.980480084E1,1.978686929E0,-2.238449812E0,-4.486673176E-1
1.981395235E1,1.872094154E0,-2.772024870E0,-4.837910235E-1
1.982309115E1,1.761378050E0,-3.066453218E0,-5.179984570E-1
1.983225548E1,1.628671527E0,-2.979407549E0,-5.299099684E-1
1.984140699E1,1.477792263E0,-2.551356316E0,-4.404208660E-1
1.985054579E1,1.284764528E0,-1.993041873E0,-2.504473627E-1
1.985971006E1,1.029583097E0,-1.528645277E0,-4.611896724E-2
1.986886162E1,7.430956960E-1,-1.198787689E0,1.030804738E-1
1.987800042E1,4.912739098E-1,-9.862129092E-1,1.878355294E-1
1.988716470E1,3.096995652E-1,-7.650861740E-1,2.480039895E-1
1.989631626E1,1.349972486E-1,-4.282039404E-1,3.295520842E-1
1.990545506E1,-9.880454093E-2,-4.779879749E-2,4.637857676E-1
1.991461933E1,-4.326325655E-1,1.527118087E-1,5.859552622E-1
1.992377089E1,-8.251019120E-1,2.008160353E-1,7.174401283E-1
1.993293626E1,-1.205659747E0,2.715215981E-1,9.144383669E-1
1.994207397E1,-1.588508248E0,3.182514310E-1,1.132663488E0
1.995122553E1,-1.783674002E0,2.536543310E-1,1.367076159E0
1.996036428E1,-1.291025639E0,3.075616062E-1,1.517191887E0
1.996952860E1,-8.409839869E-1,7.203416228E-1,1.657992125E0
1.997868011E1,-1.207186937E0,1.121210098E0,2.007549524E0
1.998781892E1,-1.511847019E0,4.312581718E-1,2.316027403E0
1.999698324E1,-1.928444743E0,6.068767309E-1,2.522341013E0
2.000613475E1,-2.404447556E0,1.178018928E0,2.257233381E0
2.001527355E1,-2.858154297E0,1.660130143E0,1.511847019E0
2.002443782E1,-2.924736738E0,1.913020849E0,8.504521251E-1
2.003358938E1,-2.193705320E0,1.661351800E0,4.619532526E-1
2.004272818E1,-1.896222591E0,6.948387623E-1,5.092939138E-1
2.005189246E1,-2.006938696E0,-4.472928941E-1,8.084563613E-1
2.006104402E1,-2.153236628E0,-7.999044657E-1,1.164885759E0
2.007018282E1,-2.332825661E0,-5.071559548E-1,1.340504289E0
2.007934709E1,-2.438044071E0,-3.463504016E-1,1.235896707E0
2.008849865E1,-2.423536539E0,-2.437280566E-1,9.483403563E-1
2.009765016E1,-2.384594917E0,-4.474456236E-2,6.613948941E-1
2.010680173E1,-2.314347506E0,2.512109280E-1,4.815003574E-1
2.011595324E1,-2.255706310E0,4.848600030E-1,4.115583301E-1
2.012510480E1,-2.241351366E0,6.058077812E-1,3.884988427E-1
2.013425636E1,-2.227607250E0,7.120952010E-1,4.337015450E-1
2.014340787E1,-2.195384979E0,8.302941322E-1,5.882459283E-1
2.015255944E1,-2.181030035E0,9.251281619E-1,7.953231335E-1
2.016171095E1,-2.195537806E0,9.396358132E-1,9.582666159E-1
2.017086251E1,-2.222873211E0,9.888089895E-1,1.063026905E0
2.018000131E1,-2.246848822E0,1.176186442E0,1.079825282E0
2.018916558E1,-2.269755602E0,1.442210436E0,1.014617324E0
2.019831714E1,-2.321219683E0,1.653868914E0,9.184088707E-1
2.020746865E1,-2.387038469E0,1.746870399E0,8.298360109E-1
2.021662022E1,-2.412541151E0,1.742289066E0,7.478297353E-1
2.022577178E1,-2.420787573E0,1.738929391E0,6.690304875E-1
2.023492329E1,-2.432088375E0,1.785812020E0,6.120689511E-1
2.024407485E1,-2.466295719E0,1.910272121E0,5.989357233E-1
2.025322636E1,-2.555937529E0,1.996554255E0,6.172611713E-1
2.026236517E1,-2.675816536E0,2.083141804E0,6.503996253E-1
2.027152949E1,-2.767596245E0,2.279529333E0,6.681141853E-1
2.028068100E1,-2.819212914E0,2.542346239E0,6.839962006E-1
2.028981980E1,-2.841050625E0,2.711092949E0,6.800256968E-1
2.029898407E1,-2.813867807E0,2.776606321E0,6.508577466E-1
2.030813563E1,-2.686506271E0,2.631224632E0,5.749599934E-1
2.031728720E1,-2.436822414E0,2.327022552E0,4.767662883E-1
2.032643871E1,-2.088334084E0,1.874384761E0,3.477247953E-1
2.033559027E1,-1.699224353E0,1.408308387E0,2.371614426E-1
2.034472907E1,-1.333937645E0,9.860602021E-1,1.588202864E-1
2.035389334E1,-1.082115889E0,5.560237169E-1,9.620844573E-2
2.036304490E1,-9.266552925E-1,2.443389036E-2,3.665083647E-2
2.037218365E1,-8.625163436E-1,-5.836645365E-1,-2.657185495E-2
2.038134798E1,-9.231429100E-1,-1.092042208E0,-7.864658535E-2
2.039049949E1,-1.009730577E0,-1.254985690E0,-1.218640283E-1
2.039963829E1,-1.034927964E0,-1.154654026E0,-1.928750277E-1
2.040880261E1,-9.358180165E-1,-1.025154471E0,-2.747285664E-1
2.041795412E1,-7.104153633E-1,-9.756757617E-1,-3.318427801E-1
2.042709292E1,-4.501944184E-1,-9.807152748E-1,-3.385621011E-1
2.043625720E1,-2.489202619E-1,-9.700254202E-1,-3.156553209E-1
2.044540876E1,-1.310267299E-1,-9.181034565E-1,-3.051182032E-1
2.045456027E1,-5.787777901E-2,-8.162446618E-1,-3.376458287E-1
2.046371183E1,-2.290677279E-2,-6.952968836E-1,-4.175141156E-1
2.047286339E1,-4.688252881E-2,-5.757235289E-1,-5.173876286E-1
2.048200220E1,-8.948912472E-2,-3.959817290E-1,-5.922164321E-1
2.049116647E1,-7.238540053E-2,-1.490467340E-1,-6.284091473E-1
2.050031803E1,9.666658193E-2,1.180462316E-1,-6.609367132E-1
2.050945678E1,5.097520351E-1,3.541387022E-1,-7.137750387E-1
2.051862110E1,1.234216928E0,5.599942207E-1,-7.924215794E-1
2.052777261E1,2.127122879E0,6.667397618E-1,-9.345963001E-1
2.053692418E1,2.977269650E0,5.807630420E-1,-1.116017938E0
2.054607568E1,3.682950735E0,4.094203711E-1,-1.289803982E0
2.055522725E1,4.233477116E0,1.878355294E-1,-1.464200854E0
2.056436605E1,5.007267475E0,-5.427377820E-1,-1.729308605E0
2.057353032E1,5.539163113E0,-1.527118206E0,-2.001441002E0
2.058268188E1,5.248857975E0,-2.386121988E0,-1.967386365E0
2.059182069E1,4.674203396E0,-2.772177458E0,-1.670209169E0
2.060098496E1,4.136962891E0,-2.353594542E0,-1.180767775E0
2.061013652E1,3.718074560E0,-1.372421026E0,-6.476507783E-1
2.061927527E1,3.505041599E0,-3.197785318E-1,-2.762556672E-1
2.062843959E1,3.433114290E0,6.007682681E-1,-1.669140160E-1
2.063759110E1,3.295368195E0,1.372726560E0,-2.728960216E-1
2.064672990E1,3.116389990E0,1.969066143E0,-4.210264683E-1
2.065589423E1,3.113030434E0,2.102536201E0,-5.042544007E-1
2.066504574E1,3.264825821E0,1.749313831E0,-5.486935377E-1
2.067418454E1,3.433725119E0,1.284917235E0,-5.807630420E-1
2.068334881E1,3.557879925E0,7.704311013E-1,-6.168029904E-1
2.069250037E1,3.624309540E0,3.939964995E-2,-6.383354068E-1
2.070163918E1,3.620033503E0,-6.064186096E-1,-6.232169271E-1
2.071080345E1,3.561697721E0,-1.000567794E0,-5.836645365E-1
2.071995501E1,3.534973145E0,-1.188556075E0,-5.703786016E-1
2.072909381E1,3.488854170E0,-1.347681761E0,-5.497625470E-1
2.073825808E1,3.371113300E0,-1.500851750E0,-5.242596865E-1
2.074740964E1,3.180528879E0,-1.558271408E0,-5.341859460E-1
2.075654839E1,2.940465927E0,-1.510625243E0,-5.548020005E-1
2.076571272E1,2.707427740E0,-1.427397370E0,-5.833591223E-1
2.077486423E1,2.508291483E0,-1.396549582E0,-6.293253899E-1
2.078400303E1,2.336643457E0,-1.455649018E0,-7.256865501E-1
2.079316735E1,2.167286158E0,-1.576749444E0,-8.032641411E-1
2.080231886E1,2.006175041E0,-1.751757264E0,-8.017370105E-1
2.081147042E1,1.840482831E0,-1.935469508E0,-7.307260633E-1
2.082062194E1,1.670667291E0,-2.101009130E0,-6.334486008E-1
2.082977350E1,1.524522066E0,-2.256011724E0,-5.612159371E-1
2.083891230E1,1.391204596E0,-2.252499342E0,-5.615213513E-1
2.084807657E1,1.233605981E0,-1.979297876E0,-5.781669021E-1
2.085722813E1,1.046992183E0,-1.541167617E0,-4.923428893E-1
2.086636688E1,8.348754644E-1,-1.085170150E0,-2.695363462E-1
2.087553121E1,6.103891134E-1,-7.183563709E-1,2.489202656E-2
2.088468272E1,4.227063060E-1,-4.724903405E-1,2.968717813E-1
2.089382152E1,2.872509360E-1,-3.513898849E-1,4.705050886E-1
2.090298584E1,1.046075895E-1,-1.986780763E-1,6.424586177E-1
2.091213735E1,-1.852394342E-1,7.513421029E-2,8.203678727E-1
2.092127615E1,-5.525113344E-1,3.361186981E-1,9.915578365E-1
2.093044042E1,-9.232956171E-1,4.457657933E-1,1.140299082E0
2.093959199E1,-1.352110386E0,4.149180055E-1,1.294232607E0
2.094873079E1,-1.916227818E0,3.316900730E-1,1.500546336E0
2.095789506E1,-2.299839973E0,3.121429384E-1,1.730530262E0
2.096704662E1,-1.746717691E0,4.149180055E-1,1.770235300E0
2.097618537E1,-1.373948216E0,9.837695360E-1,1.759698272E0
2.098534970E1,-2.068328857E0,1.475959659E0,2.002357244E0
2.099450126E1,-2.282430887E0,6.644490957E-1,2.153542042E0
2.100364001E1,-2.261662006E0,1.032484531E0,2.282278061E0
2.101280433E1,-2.320150614E0,1.561783671E0,2.036564827E0
2.102195584E1,-2.785005331E0,1.214211583E0,1.318971992E0
2.103109464E1,-2.789281368E0,6.019899845E-1,7.130114436E-1
2.104025892E1,-2.002662659E0,5.757235289E-1,4.315635860E-1
2.104941048E1,-1.663184404E0,2.954973578E-1,4.544703662E-1
2.105854928E1,-1.861098886E0,-6.313106418E-1,6.710157394E-1
2.106771355E1,-2.010298252E0,-5.957288146E-1,9.155073166E-1
2.107686511E1,-2.208671093E0,-2.615953386E-1,1.066997409E0
2.108600386E1,-2.421551228E0,1.569877416E-1,1.116017938E0
2.109516819E1,-2.472098827E0,3.750602305E-1,1.093416572E0
2.110431975E1,-2.410097837E0,5.001311898E-1,1.015075445E0
2.111345850E1,-2.299076319E0,6.155813336E-1,9.057337642E-1
2.112262282E1,-2.186833143E0,7.304205894E-1,8.052493930E-1
2.113177433E1,-2.117654800E0,8.417475224E-1,6.998782754E-1
2.114091313E1,-2.111851692E0,9.179506898E-1,6.259657145E-1
2.115007740E1,-2.151404142E0,9.752176404E-1,6.555918455E-1
2.115922897E1,-2.171103954E0,1.068371892E0,7.640172243E-1
2.116836777E1,-2.200577259E0,1.128998399E0,8.724426031E-1
2.117753204E1,-2.226996422E0,1.108687758E0,9.090934396E-1
2.118668360E1,-2.218597174E0,1.071273327E0,8.816053271E-1
2.119582235E1,-2.237228155E0,1.121057391E0,8.350282311E-1
2.120498668E1,-2.287164927E0,1.223832488E0,7.759287357E-1
2.121413819E1,-2.301367044E0,1.256665468E0,7.154548764E-1
2.122328975E1,-2.292967796E0,1.216807723E0,6.769714952E-1
2.123244131E1,-2.281056404E0,1.237576604E0,6.117635369E-1
2.124159282E1,-2.279987335E0,1.286138892E0,5.256340504E-1
2.125073162E1,-2.302130699E0,1.390746474E0,4.637857676E-1
2.125989589E1,-2.371461868E0,1.571862698E0,4.442386627E-1
2.126904746E1,-2.439418554E0,1.860488057E0,4.599680007E-1
2.127818626E1,-2.426132679E0,2.081767559E0,4.953971207E-1
2.128735053E1,-2.415290117E0,2.343057394E0,5.813738704E-1
2.129650209E1,-2.397117376E0,2.548913002E0,6.710157394E-1
2.130565360E1,-2.312973261E0,2.695668936E0,7.221741676E-1
2.131480517E1,-2.177823305E0,2.743620396E0,7.383615971E-1
2.132395668E1,-2.010145664E0,2.651077032E0,7.647807598E-1
2.133309548E1,-1.819408536E0,2.494241953E0,7.563816309E-1
2.134225980E1,-1.618897915E0,2.234479189E0,6.823163629E-1
2.135141131E1,-1.436865449E0,1.851019859E0,5.500679612E-1
2.136055011E1,-1.273921967E0,1.401130915E0,4.141544402E-1
2.136971438E1,-1.133885264E0,9.620844126E-1,2.609844804E-1
2.137886595E1,-9.869764447E-1,5.260922313E-1,8.826743066E-2
2.138800475E1,-7.966975570E-1,1.550024897E-1,-7.910472155E-2
2.139716902E1,-5.873296261E-1,-1.137702987E-1,-1.885990947E-1
2.140632053E1,-3.715478480E-1,-2.383831441E-1,-2.328855246E-1
2.141545933E1,-1.539335102E-1,-2.373141646E-1,-2.350234836E-1
2.142462365E1,9.009997360E-3,-2.719797492E-1,-2.252499312E-1
2.143377516E1,6.215370819E-2,-4.178195298E-1,-2.516690791E-1
2.144292673E1,2.015795931E-2,-5.230379701E-1,-3.159607351E-1
2.145207824E1,-6.933116168E-2,-5.404471159E-1,-4.002576768E-1
2.146122980E1,-1.647760421E-1,-5.645755529E-1,-5.150969625E-1
2.147036860E1,-2.341072112E-1,-6.096255779E-1,-6.493306160E-1
2.147953287E1,-2.495311052E-1,-5.546492934E-1,-7.574505806E-1
2.148868444E1,-1.969982386E-1,-3.407000601E-1,-7.774558663E-1
2.149782318E1,-3.603998944E-2,-1.094943732E-1,-7.105680704E-1
2.150698751E1,3.367295563E-1,-5.619794875E-2,-6.487197876E-1
2.151613902E1,1.006065488E0,-1.847812980E-1,-6.591041684E-1
2.152527782E1,1.955016613E0,-3.686463237E-1,-7.890619636E-1
2.153444214E1,3.009644508E0,-5.390726924E-1,-1.026376128E0
2.154359365E1,4.262339592E0,-9.093988538E-1,-1.453358293E0
2.155273246E1,5.413939476E0,-1.545748949E0,-2.087112427E0
2.156189673E1,5.475176811E0,-1.943715930E0,-2.479734421E0
2.157104829E1,4.903576374E0,-2.246696234E0,-2.387649298E0
2.158018709E1,4.334419250E0,-2.344737291E0,-1.965401053E0
2.158935136E1,3.996315479E0,-2.168354988E0,-1.370741248E0
2.159850287E1,3.915530920E0,-1.809635043E0,-8.212841153E-1
2.160764168E1,4.001507759E0,-1.126249671E0,-3.979669809E-1
2.161680600E1,4.056025982E0,-9.223793447E-2,-1.375933439E-1
2.162595751E1,3.898579836E0,7.747070193E-1,-1.290414780E-1
2.163509631E1,3.681881905E0,1.206117868E0,-3.652866483E-1
2.164426058E1,3.752434731E0,1.287055135E0,-7.702783942E-1
2.165341214E1,4.049306393E0,1.052031636E0,-1.085017443E0
2.166255095E1,4.225077629E0,7.719582319E-1,-1.275296330E0
2.167171522E1,4.185678005E0,2.359397560E-1,-1.333784938E0
2.168086678E1,4.124593258E0,-4.014793634E-1,-1.288582325E0
2.169000553E1,4.140628338E0,-9.040539265E-1,-1.120751977E0
2.169916985E1,4.201407433E0,-1.138008475E0,-8.631271720E-1
2.170832136E1,4.198505878E0,-1.122126460E0,-6.493306160E-1
2.171746017E1,4.090538502E0,-9.399412274E-1,-5.635066032E-1
2.172662449E1,3.908048153E0,-7.824953198E-1,-5.758762360E-1
2.173577600E1,3.642482281E0,-6.258130074E-1,-6.346703172E-1
2.174491480E1,3.319038630E0,-5.595360994E-1,-6.841489077E-1
2.175407907E1,3.020181656E0,-6.221479177E-1,-6.989619732E-1
2.176323063E1,2.766374588E0,-8.425110579E-1,-7.018635273E-1
2.177236938E1,2.579607964E0,-1.178171635E0,-7.473716140E-1
2.178153371E1,2.477749109E0,-1.543152928E0,-8.273926377E-1
2.179068522E1,2.369171143E0,-1.854532242E0,-8.834378719E-1
2.179982402E1,2.201035500E0,-2.081309319E0,-8.867974877E-1
2.180898834E1,1.988155127E0,-2.276169538E0,-8.663341403E-1
2.181813985E1,1.756644011E0,-2.437586069E0,-8.672503829E-1
2.182727865E1,1.512915969E0,-2.395284891E0,-8.976400495E-1
2.183644292E1,1.264301062E0,-2.020682812E0,-8.849649429E-1
2.184559449E1,1.044090629E0,-1.443432093E0,-7.751652002E-1
2.185473329E1,8.535063267E-1,-8.837432861E-1,-5.851916671E-1
2.186389756E1,6.814001203E-1,-4.643966258E-1,-3.804051280E-1
2.187304907E1,5.108210444E-1,-2.186833173E-1,-2.076880634E-1
2.188218787E1,3.402419090E-1,-1.027750522E-1,-5.635065958E-2
2.189135220E1,1.472141892E-1,-1.801999472E-2,1.046075895E-1
2.190050371E1,-9.529217333E-2,5.635065958E-2,2.744231224E-1
2.190964251E1,-3.845283389E-1,8.185353130E-2,4.372139275E-1
2.191880678E1,-6.885775924E-1,2.993151546E-2,5.725166202E-1
2.192795834E1,-9.773555994E-1,-6.413896382E-2,6.757497787E-1
2.193709714E1,-1.244601250E0,-1.328592747E-1,7.525638342E-1
2.194626142E1,-1.573389769E0,-1.885990947E-1,7.991409302E-1
2.195541298E1,-1.931499004E0,-1.976090819E-1,8.319739699E-1
2.196456449E1,-2.363215446E0,-1.872246861E-1,8.722898960E-1
2.197371605E1,-2.829749823E0,-2.533488870E-1,9.839222431E-1
2.198286756E1,-2.517148733E0,-1.841704547E-1,1.100899458E0
2.199200636E1,1.019198656E0,1.189625040E-1,5.894675851E-1
2.200117063E1,6.479562521E-1,6.203153729E-1,-1.435491070E-2
2.201032220E1,-2.604194641E0,-8.180772066E-1,5.407525301E-1
2.201946100E1,-1.832389116E0,-1.939134598E0,1.112505555E0
2.202862527E1,-1.161220670E0,3.026137352E0,2.010756493E0
2.203777683E1,-1.449845910E0,4.625793457E0,2.069855928E0
2.204691558E1,-1.621799469E0,3.724793911E0,1.005454540E0
2.205607990E1,-1.428313613E0,1.560714722E0,7.391251922E-1
2.206523142E1,-1.719993114E0,-1.449235082E-1,1.116170645E0
2.207437022E1,-2.185916901E0,-1.673721522E-1,1.760919929E0
2.208353449E1,-2.166980743E0,3.610107303E-1,2.009840250E0
2.209268605E1,-2.053363085E0,2.128802687E-1,1.537502527E0
2.210182485E1,-2.059777021E0,-2.473931462E-1,7.933378816E-1
2.211098912E1,-1.993347287E0,-6.383354068E-1,3.361186981E-1
2.212014069E1,-1.887365341E0,-4.672981501E-1,2.402156889E-1
2.212927944E1,-1.822462797E0,-1.824906170E-1,3.315373361E-1
2.213844376E1,-1.767181158E0,-6.734590977E-2,4.582881629E-1
2.214759527E1,-1.767944694E0,-1.049130186E-1,5.686988235E-1
2.215673407E1,-1.773594975E0,-8.811471611E-2,6.949914694E-1
2.216589839E1,-1.808260560E0,6.841489673E-2,8.394568563E-1
2.217504990E1,-1.839108348E0,3.103103936E-1,9.361234307E-1
2.218418871E1,-1.846285820E0,6.297835112E-1,9.547542930E-1
2.219335298E1,-1.818186879E0,8.918370008E-1,9.083298445E-1
2.220250454E1,-1.779245377E0,1.032026410E0,8.506048322E-1
2.221165605E1,-1.747481346E0,1.092042208E0,7.945595980E-1
2.222080761E1,-1.752826214E0,1.115865231E0,7.212579250E-1
2.222995912E1,-1.774969459E0,1.130067468E0,6.496360302E-1
2.223911068E1,-1.768555522E0,1.202300072E0,6.117635369E-1
2.224826220E1,-1.735417008E0,1.236049414E0,5.862606764E-1
2.225741376E1,-1.710525036E0,1.137703061E0,5.682406425E-1
2.226656532E1,-1.665933132E0,9.750649333E-1,5.589252710E-1
2.227571683E1,-1.621035933E0,8.455653191E-1,5.818319917E-1
2.228486839E1,-1.590646267E0,7.337802649E-1,6.310052276E-1
2.229401990E1,-1.565143347E0,6.803311110E-1,6.502469182E-1
2.230317147E1,-1.554453611E0,6.891884208E-1,6.190937161E-1
2.231232298E1,-1.525438309E0,7.082774043E-1,5.599942207E-1
2.232147454E1,-1.507723689E0,7.539382577E-1,5.161659122E-1
2.233062605E1,-1.526354551E0,8.449544907E-1,4.964661002E-1
2.233977761E1,-1.533990145E0,9.411629438E-1,4.836383164E-1
2.234892918E1,-1.499629974E0,9.802571535E-1,4.483618736E-1
2.235808068E1,-1.439919710E0,9.362761378E-1,3.950654566E-1
2.236723225E1,-1.402352571E0,8.197570443E-1,3.458922505E-1
2.237637100E1,-1.410140872E0,6.809419990E-1,2.861819267E-1
2.238553532E1,-1.423426867E0,6.227588058E-1,2.250972092E-1
2.239468683E1,-1.385707021E0,6.192464232E-1,2.044811249E-1
2.240383839E1,-1.307060480E0,5.543438792E-1,2.356343269E-1
2.241298990E1,-1.260025144E0,3.727695346E-1,2.941229641E-1
2.242214147E1,-1.276365399E0,1.776038408E-1,3.417690396E-1
2.243129298E1,-1.312252641E0,1.831014603E-1,3.634541333E-1
2.244044454E1,-1.337297320E0,3.686463237E-1,3.521534503E-1
2.244959610E1,-1.345543742E0,4.840964675E-1,3.191677034E-1
2.245874761E1,-1.381889224E0,4.193466306E-1,2.730487287E-1
2.246789918E1,-1.457328796E0,2.648022771E-1,2.153236568E-1
2.247705069E1,-1.528950691E0,1.113269106E-1,1.488940120E-1
2.248620225E1,-1.607444525E0,-5.222744122E-2,9.666658193E-2
2.249535376E1,-1.720451355E0,-1.658450365E-1,7.696675509E-2
2.250450532E1,-1.876217365E0,-2.527380586E-1,9.177979827E-2
2.251364412E1,-2.040077209E0,-3.987305462E-1,1.029277667E-1
2.252280839E1,-2.166064262E0,-7.070556879E-1,7.421794534E-2
2.253195990E1,-2.213710546E0,-1.075091124E0,-5.344913341E-3
2.254109871E1,-2.140103340E0,-1.253153205E0,-1.218640283E-1
2.255026303E1,-1.856822968E0,-1.048213840E0,-2.017323077E-1
2.255941454E1,-1.391357303E0,-6.537593007E-1,-1.890572309E-1
2.256855334E1,-7.956285477E-1,-4.260659516E-1,-1.215586066E-1
2.257771761E1,-1.235438585E-1,-5.751127005E-1,-1.661504507E-1
2.258686918E1,5.100574493E-1,-9.153546095E-1,-3.445178568E-1
2.259600793E1,9.397885203E-1,-1.119683027E0,-3.822376728E-1
2.260517225E1,1.002858520E0,-1.137703061E0,-2.304421216E-1
2.261432376E1,7.266027927E-1,-1.030499339E0,-1.068982761E-3
2.262346256E1,2.745758295E-1,-8.105943203E-1,2.038702667E-1
2.263262688E1,-2.066190839E-1,-3.903313875E-1,2.832804024E-1
2.264177839E1,-6.119162440E-1,2.403683960E-1,2.243336588E-1
2.265091720E1,-8.359444737E-1,9.660549164E-1,7.269082218E-2
2.266008147E1,-8.133431077E-1,1.662268162E0,-3.100049868E-2
2.266923303E1,-6.361974478E-1,2.201951742E0,-4.535540938E-2
2.267837178E1,-4.242334068E-1,2.411624908E0,-4.275931045E-3
2.268753610E1,-2.559449971E-1,2.173394442E0,4.230117425E-2
2.269668761E1,-1.349972486E-1,1.510167122E0,5.757235363E-2
2.270582642E1,-6.856760383E-2,6.459710002E-1,3.481829539E-2
2.271499068E1,-3.573456407E-2,-1.230857223E-1,-2.107422985E-2
2.272414225E1,-2.641914412E-2,-6.439857483E-1,-1.049130186E-1
2.273328105E1,-4.917320609E-2,-8.970292211E-1,-1.818797737E-1
2.274244532E1,-1.110214889E-1,-9.374978542E-1,-2.066190839E-1
2.275159683E1,-2.139492482E-1,-8.658760190E-1,-1.776038408E-1
2.276073563E1,-3.306210935E-1,-7.392778993E-1,-1.253764033E-1
2.276989990E1,-4.140017331E-1,-6.006155610E-1,-8.200624585E-2
2.277905147E1,-4.211791754E-1,-4.926483035E-1,-6.933116168E-2
2.278819027E1,-3.468085229E-1,-4.613423944E-1,-8.475505561E-2
2.279735454E1,-2.234173864E-1,-4.618005157E-1,-9.910997003E-2
2.280650610E1,-8.735115826E-2,-3.927747905E-1,-9.147437662E-2
2.281565761E1,1.404948719E-2,-2.232646793E-1,-6.765133142E-2
2.282480918E1,6.062658876E-2,8.399149403E-3,-4.184303805E-2
2.283396068E1,5.344913527E-2,2.499892414E-1,-1.649287529E-2
2.284311225E1,3.237490356E-2,4.592044353E-1,-3.054236295E-4
2.285226376E1,2.351761982E-2,6.158867478E-1,1.053711493E-2
2.286141532E1,1.832541823E-2,7.099572420E-1,1.710372418E-2
2.287056683E1,-1.985253533E-3,7.116370797E-1,2.122694254E-2
2.287971839E1,-3.634541109E-2,6.285618544E-1,2.046338283E-2
2.288886990E1,-7.101099193E-2,5.091412067E-1,1.908897609E-2
2.289802147E1,-8.903098851E-2,3.874298632E-1,1.236965694E-2
2.290717303E1,-7.818844914E-2,2.751866877E-1,-7.024743594E-3
2.291632454E1,-4.428642616E-2,1.438545287E-1,-3.420744836E-2
2.292547610E1,-2.748812549E-3,4.581354558E-3,-5.879404768E-2
2.293462761E1,1.924168877E-2,-1.177408099E-1,-7.131642103E-2
2.294377918E1,6.566607859E-3,-2.075353563E-1,-7.269082218E-2
2.295293069E1,-3.436015919E-2,-2.600682080E-1,-6.139015034E-2
2.296208225E1,-9.513945878E-2,-2.889307439E-1,-4.337015375E-2
2.297123376E1,-1.444653720E-1,-3.016058207E-1,-2.977880463E-2
2.298038532E1,-1.666085869E-1,-3.009949923E-1,-1.939439960E-2
2.298953683E1,-1.545443535E-1,-2.751866877E-1,-1.511846948E-2
2.299868839E1,-1.204896197E-1,-2.189887464E-1,-1.496575773E-2
2.300783990E1,-7.803573459E-2,-1.406475753E-1,-1.771457121E-2
2.301699147E1,-3.451287001E-2,-5.070032179E-2,-1.328592747E-2
2.302614298E1,-9.162708884E-4,4.337015375E-2,-2.596100792E-3
2.303529454E1,1.725643501E-2,1.327065676E-1,1.084253844E-2
2.304444605E1,2.535016090E-2,1.971509457E-1,2.428117767E-2
2.305359761E1,3.237490356E-2,2.394521236E-1,3.771981969E-2
2.306274912E1,3.573456407E-2,2.732014358E-1,4.688252881E-2
2.307190069E1,2.748812735E-2,3.016058207E-1,5.054761097E-2
2.308105225E1,1.191152167E-2,3.122956753E-1,5.222744122E-2
2.309020376E1,-1.527118147E-3,3.008422852E-1,4.840964451E-2
2.309935532E1,-1.420219894E-2,2.687727809E-1,4.230117425E-2
2.310850683E1,-2.107422985E-2,2.188360244E-1,3.497100621E-2
2.311765839E1,-1.435491070E-2,1.566823274E-1,2.519745007E-2
2.312680990E1,3.054236295E-4,1.030804738E-1,1.618745178E-2
2.313596147E1,1.313321572E-2,5.543438718E-2,1.084253844E-2
2.314511298E1,1.786728203E-2,1.206423342E-2,1.404948719E-2
2.315426454E1,1.160609815E-2,3.665083554E-3,2.244863659E-2
2.316341605E1,-2.596100792E-3,5.497625098E-3,3.161134571E-2
2.317256761E1,-2.107422985E-2,4.275931045E-3,3.206948191E-2
2.318171912E1,-3.329117596E-2,-1.832541777E-3,2.886253223E-2
2.319087068E1,-4.001049697E-2,-9.009997360E-3,2.275406010E-2
2.320002220E1,-4.382828996E-2,-6.108472589E-4,1.969982497E-2
2.320917376E1,-4.138490185E-2,1.740914769E-2,1.664558798E-2
2.321832527E1,-3.787253052E-2,4.520269856E-2,1.236965694E-2
2.322747683E1,-3.878879920E-2,6.688777357E-2,1.298050396E-2
2.323662834E1,-4.077405483E-2,7.895200700E-2,1.786728203E-2
2.324577990E1,-2.779355086E-2,7.406523079E-2,2.031067200E-2
2.325493142E1,-9.773556143E-3,5.909947306E-2,1.679829881E-2
2.326408298E1,8.399149403E-3,4.153761268E-2,9.620844387E-3
2.327323449E1,1.817270555E-2,3.497100621E-2,6.719320081E-3
2.328238605E1,1.267508045E-2,4.092676565E-2,8.399149403E-3
2.329153761E1,1.527118147E-3,4.214845970E-2,1.145338640E-2
2.330068912E1,-9.009997360E-3,4.581354558E-2,1.618745178E-2
2.330984068E1,-1.267508045E-2,4.214845970E-2,1.985253580E-2
2.331899220E1,-7.635590620E-3,3.374931216E-2,1.496575773E-2
2.332814376E1,9.162709117E-3,2.702999115E-2,4.734066315E-3
2.333729527E1,3.130592033E-2,2.168507688E-2,-6.108472589E-3
2.334644683E1,4.260659590E-2,1.145338640E-2,-1.756185852E-2
2.335559834E1,4.153761268E-2,-7.788302377E-3,-2.244863659E-2
2.336474990E1,3.176405653E-2,-2.535016090E-2,-2.122694254E-2
2.337390142E1,1.343864016E-2,-3.451287001E-2,-1.527118124E-2
2.338305298E1,-4.581354558E-3,-2.107422985E-2,-1.114796288E-2
2.339220449E1,-1.466033421E-2,-2.443389036E-3,-8.857285604E-3
2.340135605E1,-1.786728203E-2,7.024743594E-3,-1.068982668E-2
2.341050756E1,-1.282779220E-2,4.734066315E-3,-1.618745178E-2
2.341965912E1,-3.054236295E-4,-7.941014133E-3,-2.458660305E-2
2.342881063E1,1.527118124E-2,-2.840439789E-2,-3.481829539E-2
2.343796220E1,2.428117767E-2,-5.803048983E-2,-4.275930673E-2
2.344711371E1,2.321219631E-2,-8.872556686E-2,-4.688252881E-2
2.345626527E1,1.786728203E-2,-1.026223376E-1,-4.703523964E-2
2.346541678E1,1.343864016E-2,-1.032331884E-1,-4.398100078E-2
2.347456834E1,7.330167107E-3,-1.014006436E-1,-3.970507160E-2
2.348371985E1,1.068982761E-3,-9.727742523E-2,-3.787253052E-2
2.349287142E1,-1.527118147E-4,-9.544488788E-2,-4.031591862E-2
2.350202298E1,9.773556143E-3,-9.116895497E-2,-4.581354558E-2
2.351117449E1,2.443389036E-2,-8.399149776E-2,-5.421269313E-2
2.352032600E1,3.115320951E-2,-7.910472155E-2,-5.604523420E-2
2.352947756E1,3.237490356E-2,-7.681404054E-2,-5.482354015E-2
2.353862912E1,2.687728032E-2,-6.826218218E-2,-5.176930502E-2
2.354778063E1,1.801999472E-2,-5.192201585E-2,-4.153761268E-2
2.355693220E1,1.221694518E-2,-4.230117425E-2,-3.298575059E-2
2.356608371E1,1.038440317E-2,-3.817795217E-2,-2.993151546E-2
2.357523527E1,1.282779220E-2,-4.169032723E-2,-3.115320951E-2
2.358438678E1,2.168507688E-2,-5.436540768E-2,-3.726168349E-2
2.359353834E1,3.359659761E-2,-6.704048812E-2,-4.443913698E-2
2.360268985E1,3.970507160E-2,-7.070557028E-2,-4.749337584E-2
2.361184142E1,4.153761268E-2,-6.154286116E-2,-4.749337584E-2
2.362099293E1,4.199574888E-2,-4.535540938E-2,-4.382828996E-2
2.363014449E1,4.245388508E-2,-3.268032894E-2,-3.771981969E-2
2.363929600E1,3.741439432E-2,-2.962609194E-2,-3.466558084E-2
2.364844756E1,3.634541109E-2,-3.634541109E-2,-3.527642787E-2
2.365759907E1,3.512371704E-2,-3.802524135E-2,-3.527642787E-2
2.366675063E1,4.062134400E-2,-4.107947648E-2,-3.527642787E-2
2.367590214E1,4.428642616E-2,-4.107947648E-2,-3.466558084E-2
2.368505371E1,4.611896724E-2,-3.512371704E-2,-3.588727489E-2
2.369420522E1,4.184303805E-2,-3.924693540E-2,-3.710897267E-2
2.370335678E1,3.512371704E-2,-5.131116882E-2,-3.466558084E-2
2.371250829E1,3.084778599E-2,-4.642439261E-2,-3.038965166E-2
2.372165985E1,3.451287001E-2,-4.535540938E-2,-2.794626169E-2
2.373081136E1,3.955236077E-2,-5.421269313E-2,-2.733541466E-2
2.373996292E1,4.153761268E-2,-7.299624383E-2,-2.550287358E-2
2.374911444E1,4.550812021E-2,-9.651386738E-2,-2.535016090E-2
2.375826600E1,4.871506989E-2,-1.151447073E-1,-2.351761982E-2
2.376741751E1,5.299099907E-2,-1.259872466E-1,-2.412846684E-2
2.377656907E1,6.047387794E-2,-1.223221645E-1,-2.596100792E-2
2.378572063E1,6.474980712E-2,-1.151447073E-1,-2.947338112E-2
2.379487214E1,5.482354015E-2,-1.102579311E-1,-3.084778599E-2
2.380402365E1,2.993151546E-2,-8.750387281E-2,-2.428117767E-2
2.381317522E1,-6.108472589E-4,-5.604523420E-2,-1.420219894E-2
2.382232673E1,-2.199050039E-2,-1.878355257E-2,3.054236295E-4
2.383147829E1,-2.611372061E-2,2.641914412E-2,1.618745178E-2
2.384062985E1,-1.420219894E-2,6.520794332E-2,2.962609194E-2
2.384978136E1,9.620844387E-3,9.422318637E-2,3.100049868E-2
2.385893292E1,3.726168349E-2,1.110214889E-1,2.565558441E-2
2.386808444E1,5.635065958E-2,1.116323397E-1,1.359135192E-2
2.387723600E1,6.765133142E-2,9.590301663E-2,-2.137965523E-3
2.388638751E1,6.612421572E-2,6.749862432E-2,-1.496575773E-2
2.389553907E1,5.222744122E-2,3.741439432E-2,-1.878355257E-2
2.390469058E1,3.436015919E-2,2.886253223E-2,-1.221694518E-2
2.391384214E1,1.572931744E-2,4.459185153E-2,-7.635590737E-4
2.392299365E1,5.650337320E-3,6.276455522E-2,1.084253844E-2
2.393214522E1,1.221694518E-3,6.810946763E-2,1.817270555E-2
2.394129673E1,8.704573847E-3,5.971032009E-2,2.000524849E-2
2.395044829E1,2.061609551E-2,5.008947477E-2,1.527118124E-2
2.395959980E1,2.687728032E-2,3.497100621E-2,6.108472589E-3
2.396875136E1,2.519745007E-2,2.046338283E-2,-6.108472589E-4
2.397790287E1,2.031067200E-2,9.620844387E-3,-6.719320081E-3
2.398705444E1,1.542389300E-2,4.123218823E-3,-1.160609815E-2
2.399620595E1,1.374406368E-2,-1.221694518E-3,-1.466033421E-2
2.400535751E1,1.435491070E-2,-4.886778072E-3,-1.710372418E-2
2.401450902E1,1.313321572E-2,-4.275931045E-3,-1.893626526E-2
2.402366058E1,1.252236869E-2,-5.497625098E-3,-2.076880634E-2
2.403281209E1,1.252236869E-2,-7.330167107E-3,-2.382304333E-2
2.404196365E1,1.985253580E-2,4.581354442E-4,-2.504473738E-2
2.405111517E1,2.046338283E-2,1.496575773E-2,-2.321219631E-2
2.406026673E1,1.175880991E-2,1.985253580E-2,-1.298050396E-2
2.406941824E1,-3.206948051E-3,2.351761982E-2,-7.635590737E-4
2.407856980E1,-1.679829881E-2,2.886253223E-2,5.192201585E-3
2.408772131E1,-3.100049868E-2,2.580829710E-2,9.315420873E-3
2.409687287E1,-3.939964995E-2,1.221694518E-3,8.704573847E-3
2.410602438E1,-3.298575059E-2,-2.535016090E-2,6.261184346E-3
2.411517595E1,-1.924168877E-2,-4.398100078E-2,2.137965523E-3
2.412432746E1,-0.000000000E0,-5.131116882E-2,-7.482878864E-3
2.413347902E1,2.199050039E-2,-3.497100621E-2,-1.527118124E-2
2.414263053E1,3.222219273E-2,-7.177455351E-3,-1.511846948E-2
2.415178209E1,3.084778599E-2,1.084253844E-2,-1.221694518E-2
2.416093360E1,2.092151903E-2,2.107422985E-2,-9.162709117E-3
2.417008517E1,8.551862091E-3,2.168507688E-2,-3.817795310E-3
2.417923668E1,4.123218823E-3,1.985253580E-2,4.123218823E-3
2.418838824E1,4.123218823E-3,2.962609194E-2,1.206423342E-2
2.419753975E1,7.635590620E-3,4.703523964E-2,1.634016447E-2
2.420669131E1,9.315420873E-3,5.726693198E-2,1.756185852E-2
2.421584282E1,7.482878864E-3,6.337540597E-2,1.695101149E-2
2.422499438E1,8.704573847E-3,6.810946763E-2,1.511846948E-2
2.423414589E1,1.175880991E-2,6.872031838E-2,1.084253844E-2
2.424329746E1,1.496575773E-2,5.665608495E-2,2.290677279E-3
2.425244897E1,1.588202827E-2,3.497100621E-2,-6.108472589E-3
2.426160053E1,1.588202827E-2,2.229592577E-2,-9.162709117E-3
2.427075204E1,1.649287529E-2,1.801999472E-2,-7.941014133E-3
2.427990360E1,1.282779220E-2,1.740914769E-2,-1.374406274E-3
2.428905511E1,8.551862091E-3,1.511846948E-2,8.399149403E-3
2.429820668E1,8.399149403E-3,1.695101149E-2,1.267508045E-2
2.430735819E1,1.466033421E-2,1.985253580E-2,1.404948719E-2
2.431650975E1,1.893626526E-2,1.863084175E-2,1.160609815E-2
2.432566126E1,1.969982497E-2,1.206423342E-2,9.162709117E-3
2.433481282E1,1.527118124E-2,1.145338640E-2,6.108472589E-3
2.434396433E1,8.551862091E-3,6.566607859E-3,2.290677279E-3
2.435311589E1,2.443389036E-3,3.512371797E-3,-7.635590737E-4
2.436226740E1,6.108472589E-4,8.399149403E-3,-7.635590737E-4
2.437141897E1,1.221694518E-3,1.313321572E-2,-1.374406274E-3
2.438057048E1,4.275931045E-3,1.435491070E-2,-2.596100792E-3
2.438972199E1,8.551862091E-3,2.229592577E-2,-7.635590737E-4
2.439887355E1,1.282779220E-2,2.764083818E-2,1.832541777E-3
2.440802506E1,1.084253844E-2,3.924693540E-2,7.177455351E-3
2.441717662E1,3.206948051E-3,5.238015205E-2,1.511846948E-2
2.442632813E1,-2.901524538E-3,4.947862774E-2,1.695101149E-2
2.443547970E1,-3.970507067E-3,3.497100621E-2,1.328592747E-2
2.444463121E1,-1.527118147E-4,1.740914769E-2,7.788302377E-3
2.445378277E1,9.162709117E-3,1.084253844E-2,2.290677279E-3
2.446293428E1,2.031067200E-2,1.145338640E-2,-4.275931045E-3
2.447208584E1,2.702999115E-2,1.557660475E-2,-6.108472589E-3
2.448123735E1,2.580829710E-2,1.679829881E-2,-5.497625098E-3
2.449038892E1,1.969982497E-2,1.145338640E-2,-3.665083554E-3
2.449954043E1,1.114796288E-2,5.344913341E-3,-7.635590737E-4
2.450869199E1,5.039489828E-3,-5.497625098E-3,-1.985253533E-3
2.451784350E1,5.192201585E-3,-1.450762246E-2,-6.872031838E-3
2.452699506E1,1.084253844E-2,-2.596100792E-2,-1.221694518E-2
2.453614657E1,1.634016447E-2,-2.962609194E-2,-1.649287529E-2
2.454529813E1,2.122694254E-2,-1.817270555E-2,-1.466033421E-2
2.455444964E1,1.801999472E-2,-8.551862091E-3,-1.038440317E-2
2.456360121E1,7.482878864E-3,-7.941014133E-3,-6.872031838E-3
2.457275272E1,9.162708884E-4,-1.634016447E-2,-6.261184346E-3
2.458190428E1,-1.527118147E-3,-2.840439789E-2,-8.704573847E-3
2.459105579E1,2.290677279E-3,-4.169032723E-2,-1.359135192E-2
2.460020735E1,8.551862091E-3,-4.596625641E-2,-1.771457121E-2
2.460935886E1,1.527118124E-2,-4.230117425E-2,-2.015795931E-2
2.461851042E1,1.893626526E-2,-3.619270027E-2,-2.137965336E-2
2.462766194E1,2.321219631E-2,-2.351761982E-2,-1.893626526E-2
2.463681350E1,2.000524849E-2,-5.497625098E-3,-1.649287529E-2
2.464596501E1,1.175880991E-2,7.177455351E-3,-1.160609815E-2
2.465511657E1,7.330167107E-3,1.374406368E-2,-3.206948051E-3
2.466426808E1,8.551862091E-3,1.328592747E-2,1.068982761E-3
2.467341964E1,1.298050396E-2,6.566607859E-3,4.886778072E-3
2.468257115E1,1.542389300E-2,1.221694518E-3,2.443389036E-3
2.469172272E1,1.985253580E-2,-9.620844387E-3,-3.665083554E-3
2.470087423E1,2.489202656E-2,-1.817270555E-2,-8.551862091E-3
2.471002574E1,2.504473738E-2,-3.023693897E-2,-1.466033421E-2
2.471917730E1,2.260134928E-2,-3.985778242E-2,-1.343864016E-2
2.472832881E1,2.137965336E-2,-3.619270027E-2,-8.551862091E-3
2.473748037E1,1.756185852E-2,-2.901524492E-2,-6.108472589E-3
2.474663188E1,9.620844387E-3,-2.901524492E-2,-8.551862091E-3
2.475578345E1,5.955760833E-3,-3.329117596E-2,-1.114796288E-2
2.476493496E1,7.330167107E-3,-4.046862945E-2,-1.099525020E-2
2.477408652E1,7.941014133E-3,-5.131116882E-2,-1.160609815E-2
2.478323803E1,6.872031838E-3,-6.459710002E-2,-1.404948719E-2
2.479238959E1,1.985253533E-3,-7.116370648E-2,-1.649287529E-2
2.480154110E1,-1.068982761E-3,-6.154286116E-2,-1.542389300E-2
2.481069266E1,-3.817795310E-3,-3.252761811E-2,-9.926267900E-3
2.481984418E1,-4.734066315E-3,-1.084253844E-2,-3.817795310E-3
2.482899574E1,-1.832541777E-3,4.734066315E-3,-2.596100792E-3
2.483814725E1,6.719320081E-3,1.252236869E-2,-4.428642802E-3
2.484729881E1,1.114796288E-2,1.832541777E-3,-9.162709117E-3
2.485645032E1,7.635590620E-3,-1.634016447E-2,-1.236965694E-2
2.486560188E1,2.290677279E-3,-3.206948191E-2,-1.481304597E-2
2.487475339E1,-1.527118147E-4,-4.413371533E-2,-1.603474095E-2
2.488390496E1,1.832541777E-3,-4.535540938E-2,-1.664558798E-2
2.489305647E1,7.788302377E-3,-2.718270384E-2,-1.282779220E-2
2.490220803E1,1.191152167E-2,-3.054236295E-3,-5.497625098E-3
2.491135954E1,9.315420873E-3,2.901524538E-3,-1.527118147E-4
2.492051110E1,5.039489828E-3,-0.000000000E0,-7.635590737E-4
2.492966261E1,-1.068982761E-3,-7.941014133E-3,-5.650337320E-3
2.493881412E1,-2.901524538E-3,-1.511846948E-2,-9.926267900E-3
2.494796568E1,1.527118147E-3,-2.244863659E-2,-1.481304597E-2
2.495711720E1,6.719320081E-3,-3.436015919E-2,-2.015795931E-2
2.496626876E1,1.038440317E-2,-4.352286831E-2,-2.015795931E-2
2.497542027E1,1.160609815E-2,-3.023693897E-2,-1.649287529E-2
2.498457183E1,8.857285604E-3,-1.145338640E-2,-9.315420873E-3
2.499372334E1,4.428642802E-3,-5.497625098E-3,-5.650337320E-3
2.500287490E1,-4.581354442E-4,-3.665083554E-3,-5.650337320E-3
2.501202642E1,-4.123218823E-3,-8.551862091E-3,-6.872031838E-3
2.502117798E1,-7.024743594E-3,-2.000524849E-2,-1.114796288E-2
2.503032949E1,-3.359660041E-3,-3.023693897E-2,-1.542389300E-2
2.503948105E1,2.901524538E-3,-3.863608837E-2,-1.664558798E-2
2.504863256E1,9.773556143E-3,-4.107947648E-2,-1.710372418E-2
2.505778412E1,1.099525020E-2,-3.497100621E-2,-1.466033421E-2
2.506693563E1,-9.162708884E-4,-2.412846684E-2,-9.315420873E-3
2.507608720E1,-1.466033421E-2,-4.886778072E-3,-3.970507067E-3
2.508523871E1,-1.969982497E-2,9.620844387E-3,-2.748812549E-3
2.509439027E1,-1.801999472E-2,1.557660475E-2,-3.359660041E-3
2.510354178E1,-1.282779220E-2,4.123218823E-3,-6.413896102E-3
2.511269334E1,-6.413896102E-3,-1.756185852E-2,-1.053711493E-2
2.512184485E1,-1.527118147E-4,-3.619270027E-2,-1.542389300E-2
2.513099642E1,5.344913341E-3,-3.512371704E-2,-1.649287529E-2
2.514014792E1,4.734066315E-3,-3.084778599E-2,-1.420219894E-2
2.514929944E1,1.527118147E-3,-2.351761982E-2,-9.315420873E-3
2.515845100E1,-6.566607859E-3,-1.511846948E-2,-3.817795310E-3
2.516760251E1,-9.773556143E-3,-5.497625098E-3,-1.527118147E-4
2.517675407E1,-9.773556143E-3,-1.832541777E-3,-2.596100792E-3
2.518590558E1,-6.566607859E-3,-9.162709117E-3,-4.428642802E-3
2.519505714E1,-3.359660041E-3,-1.817270555E-2,-6.872031838E-3
2.520420865E1,-9.162708884E-4,-1.878355257E-2,-9.315420873E-3
2.521336022E1,-4.123218823E-3,-9.162709117E-3,-8.093725890E-3
2.522251173E1,-6.719320081E-3,4.581354442E-4,-5.650337320E-3
2.523166329E1,-1.114796288E-2,5.344913341E-3,-3.359660041E-3
2.524081480E1,-1.236965694E-2,4.734066315E-3,-1.527118147E-3
2.524996636E1,-1.282779220E-2,1.068982761E-3,-2.137965523E-3
2.525911787E1,-1.588202827E-2,-1.084253844E-2,-3.359660041E-3
2.526826944E1,-2.061609551E-2,-2.657185495E-2,-7.024743594E-3
2.527742095E1,-1.679829881E-2,-3.924693540E-2,-1.007897966E-2
2.528657246E1,-1.130067464E-2,-3.802524135E-2,-9.315420873E-3
2.529572402E1,-9.468132630E-3,-2.718270384E-2,-7.482878864E-3
2.530487553E1,-1.511846948E-2,-1.267508045E-2,-2.748812549E-3
2.531402709E1,-2.092151903E-2,3.512371797E-3,9.162708884E-4
2.532317860E1,-2.229592577E-2,1.863084175E-2,5.192201585E-3
2.533233017E1,-2.183778957E-2,2.458660305E-2,8.857285604E-3
2.534148168E1,-1.740914769E-2,1.924168877E-2,1.007897966E-2
2.535063324E1,-1.221694518E-2,5.344913341E-3,4.581354558E-3
2.535978475E1,-6.719320081E-3,-4.886778072E-3,-2.596100792E-3
2.536893631E1,-4.734066315E-3,-6.108472589E-3,-6.872031838E-3
2.537808782E1,-6.566607859E-3,-7.941014133E-3,-8.093725890E-3
2.538723938E1,-6.566607859E-3,-1.038440317E-2,-6.872031838E-3
2.539639089E1,-4.123218823E-3,-1.572931744E-2,-6.261184346E-3
2.540554246E1,-3.970507067E-3,-2.305948362E-2,-7.482878864E-3
2.541469397E1,-2.748812549E-3,-2.305948362E-2,-8.704573847E-3
2.542384548E1,1.527118147E-3,-1.817270555E-2,-1.175880991E-2
2.543299704E1,5.192201585E-3,-1.343864016E-2,-1.603474095E-2
2.544214855E1,1.191152167E-2,-1.343864016E-2,-2.015795931E-2
2.545130011E1,1.939439960E-2,-1.450762246E-2,-2.382304333E-2
2.546045162E1,2.489202656E-2,-8.551862091E-3,-2.199050039E-2
2.546960318E1,2.473931387E-2,9.009997360E-3,-2.015795931E-2
2.547875470E1,2.702999115E-2,3.909422457E-2,-1.649287529E-2
2.548790626E1,3.038965166E-2,6.810946763E-2,-5.497625098E-3
2.549705777E1,3.313846514E-2,9.101624042E-2,6.719320081E-3
2.550620928E1,3.848337755E-2,1.067455560E-1,1.160609815E-2
2.551536084E1,3.054236248E-2,1.085781008E-1,1.343864016E-2
2.552451235E1,1.634016447E-2,9.651386738E-2,1.267508045E-2
2.553366392E1,7.177455351E-3,9.513945878E-2,8.399149403E-3
2.554281542E1,5.955760833E-3,9.575030953E-2,5.344913341E-3
2.555196699E1,9.162709117E-3,8.383878320E-2,1.068982761E-3
2.556111850E1,1.618745178E-2,6.322269142E-2,-1.527118147E-4
2.557027006E1,1.572931744E-2,3.680354729E-2,-1.832541777E-3
2.557942157E1,7.330167107E-3,1.557660475E-2,-3.817795310E-3
2.558857313E1,-1.832541777E-3,7.788302377E-3,1.068982761E-3
2.559772464E1,-9.315420873E-3,7.788302377E-3,6.566607859E-3
2.560687621E1,-1.053711493E-2,5.955760833E-3,9.620844387E-3
2.561602772E1,-1.359135192E-2,5.344913341E-3,5.192201585E-3
2.562517923E1,-8.551862091E-3,5.344913341E-3,4.581354442E-4
2.563433079E1,-1.832541777E-3,2.290677279E-3,-5.650337320E-3
2.564348230E1,4.428642802E-3,-5.497625098E-3,-8.704573847E-3
2.565263386E1,8.857285604E-3,-1.206423342E-2,-8.551862091E-3
2.566178537E1,9.468132630E-3,-1.328592747E-2,-7.941014133E-3
2.567093694E1,1.985253533E-3,-1.099525020E-2,-4.428642802E-3
2.568008845E1,-5.955760833E-3,-6.719320081E-3,2.290677279E-3
2.568924001E1,-1.298050396E-2,1.221694518E-3,8.246437646E-3