"Time (s)","Gyroscope x (rad/s)","Gyroscope y (rad/s)","Gyroscope z (rad/s)"
1.514422825E1,-2.367033064E-2,-1.588202827E-2,-1.969982497E-2
1.515337997E1,-2.886253223E-2,-8.704573847E-3,-1.114796288E-2
1.516253164E1,-3.359659761E-2,-2.428117767E-2,-7.482878864E-3
1.517168336E1,-4.214845970E-2,-3.710897267E-2,-1.114796288E-2
1.518083507E1,-4.138490185E-2,-4.428642616E-2,-1.542389300E-2
1.518998679E1,-3.451287001E-2,-5.100574717E-2,-1.908897609E-2
1.519913851E1,-2.901524492E-2,-5.085303262E-2,-2.214321308E-2
1.520829018E1,-2.718270384E-2,-4.306473210E-2,-2.260134928E-2
1.521744190E1,-2.672456764E-2,-3.038965166E-2,-2.321219631E-2
1.522659362E1,-2.428117767E-2,-1.832541823E-2,-2.443389036E-2
1.523574533E1,-2.321219631E-2,-1.053711493E-2,-2.382304333E-2
1.524489700E1,-2.000524849E-2,-1.527118124E-2,-2.076880634E-2
1.525404872E1,-1.374406368E-2,-3.283303976E-2,-1.954711229E-2
1.526320044E1,-9.926267900E-3,-4.902049154E-2,-1.771457121E-2
1.527235216E1,-7.482878864E-3,-5.146388337E-2,-1.527118124E-2
1.528150382E1,-4.428642802E-3,-4.902049154E-2,-1.206423342E-2
1.529065554E1,-3.817795310E-3,-4.123219103E-2,-8.399149403E-3
1.529980726E1,-2.748812549E-3,-2.733541466E-2,-5.955760833E-3
1.530895898E1,-1.679830020E-3,-1.160609815E-2,-4.734066315E-3
1.531811070E1,-4.275931045E-3,-1.985253533E-3,-5.497625098E-3
1.532726237E1,-4.886778072E-3,-2.596100792E-3,-9.162709117E-3
1.533641408E1,-5.955760833E-3,-9.926267900E-3,-1.282779220E-2
1.534556580E1,-2.137965523E-3,-2.367033064E-2,-1.511846948E-2
1.535471752E1,3.512371797E-3,-3.939964995E-2,-1.878355257E-2
1.536386919E1,1.099525020E-2,-4.550812021E-2,-2.489202656E-2
1.537302091E1,1.649287529E-2,-4.123219103E-2,-2.596100792E-2
1.538217263E1,1.832541823E-2,-2.733541466E-2,-2.229592577E-2
1.539132435E1,1.191152167E-2,-7.482878864E-3,-1.267508045E-2
1.540047606E1,1.221694518E-3,8.857285604E-3,-2.443389036E-3
1.540962773E1,-5.650337320E-3,1.130067464E-2,3.054236295E-3
1.541877945E1,-7.941014133E-3,-1.374406274E-3,3.054236295E-3
1.542793117E1,-9.620844387E-3,-2.305948362E-2,1.221694518E-3
1.543708283E1,-8.704573847E-3,-4.123219103E-2,-6.108472589E-3
1.544623455E1,-6.872031838E-3,-4.779879749E-2,-1.099525020E-2
1.545538627E1,-6.872031838E-3,-4.611896724E-2,-1.527118124E-2
1.546453799E1,-4.581354558E-3,-3.283303976E-2,-1.404948719E-2
1.547368971E1,-2.137965523E-3,-1.282779220E-2,-9.162709117E-3
1.548284138E1,-1.221694518E-3,1.313321572E-2,-3.054236295E-3
1.549199310E1,-2.596100792E-3,2.275406010E-2,4.886778072E-3
1.550114481E1,-8.246437646E-3,2.031067200E-2,1.038440317E-2
1.551029653E1,-1.420219894E-2,1.252236869E-2,1.038440317E-2
1.551944820E1,-2.031067200E-2,2.290677279E-3,9.620844387E-3
1.552859992E1,-2.825168520E-2,-3.206948051E-3,4.734066315E-3
1.553775164E1,-2.947338112E-2,-8.093725890E-3,-3.206948051E-3
1.554690336E1,-2.702999115E-2,-8.704573847E-3,-9.926267900E-3
1.555605502E1,-2.458660305E-2,-9.162708884E-4,-1.298050396E-2
1.556520674E1,-2.336490713E-2,9.926267900E-3,-9.926267900E-3
1.557435846E1,-2.290677279E-2,1.725643501E-2,-5.039489828E-3
1.558351018E1,-3.222219273E-2,2.199050039E-2,4.581354442E-4
1.559266184E1,-3.649812192E-2,1.298050396E-2,4.123218823E-3
1.560181356E1,-3.756710514E-2,3.359660041E-3,4.734066315E-3
1.561096528E1,-3.878879920E-2,-3.206948051E-3,2.901524538E-3
1.562011700E1,-3.939964995E-2,-2.596100792E-3,-1.985253533E-3
1.562926872E1,-4.001049697E-2,2.748812549E-3,-7.482878864E-3
1.563842039E1,-3.878879920E-2,3.970507067E-3,-1.175880991E-2
1.564757211E1,-3.634541109E-2,3.970507067E-3,-1.359135192E-2
1.565672382E1,-3.008422814E-2,5.192201585E-3,-1.298050396E-2
1.566587549E1,-2.779355086E-2,1.053711493E-2,-7.482878864E-3
1.567502721E1,-2.901524492E-2,1.603474095E-2,-3.817795310E-3
1.568417893E1,-3.329117596E-2,9.468132630E-3,-7.635590737E-4
1.569333065E1,-3.695625812E-2,4.581354558E-3,-1.374406274E-3
1.570248237E1,-4.245388508E-2,6.413896102E-3,-3.206948051E-3
1.571163403E1,-4.321744293E-2,1.359135192E-2,-5.803049076E-3
1.572078575E1,-3.955236077E-2,1.832541823E-2,-1.236965694E-2
1.572993747E1,-3.145863488E-2,1.603474095E-2,-1.847812906E-2
1.573908919E1,-2.076880634E-2,4.581354558E-3,-2.260134928E-2
1.574824086E1,-1.466033421E-2,-3.359660041E-3,-2.382304333E-2
1.575739257E1,-1.282779220E-2,-2.748812549E-3,-2.076880634E-2
1.576654429E1,-1.404948719E-2,-4.428642802E-3,-1.527118124E-2
1.577569601E1,-1.267508045E-2,-1.466033421E-2,-9.162709117E-3
1.578484768E1,-1.328592747E-2,-2.550287358E-2,-3.054236295E-3
1.579399940E1,-1.145338640E-2,-2.672456764E-2,3.665083554E-3
1.580315112E1,-5.344913341E-3,-2.244863659E-2,7.941014133E-3
1.581230283E1,5.039489828E-3,-1.466033421E-2,7.482878864E-3
1.582145455E1,1.236965694E-2,-6.108472589E-3,1.527118147E-4
1.583060622E1,1.542389300E-2,4.123218823E-3,-9.620844387E-3
1.583975794E1,1.481304597E-2,1.786728203E-2,-1.878355257E-2
1.584890966E1,1.359135192E-2,1.175880991E-2,-2.550287358E-2
1.585806132E1,1.191152167E-2,-4.428642802E-3,-2.489202656E-2
1.586721304E1,5.803049076E-3,-1.954711229E-2,-1.878355257E-2
1.587636476E1,9.162708884E-4,-2.855710872E-2,-9.620844387E-3
1.588551648E1,2.748812549E-3,-2.794626169E-2,1.527118147E-4
1.589466820E1,2.748812549E-3,-2.183778957E-2,8.704573847E-3
1.590381987E1,-5.955760833E-3,-1.710372418E-2,1.221694518E-2
1.591297158E1,-1.710372418E-2,-1.038440317E-2,1.099525020E-2
1.592212330E1,-2.580829710E-2,-6.261184346E-3,2.290677279E-3
1.593127502E1,-2.519745007E-2,-6.872031838E-3,-8.704573847E-3
1.594042669E1,-2.565558441E-2,-6.872031838E-3,-1.786728203E-2
1.594957841E1,-2.504473738E-2,-3.359660041E-3,-2.214321308E-2
1.595873013E1,-2.580829710E-2,2.748812549E-3,-2.031067200E-2
1.596788184E1,-2.275406010E-2,5.192201585E-3,-1.420219894E-2
1.597703351E1,-1.786728203E-2,2.748812549E-3,-6.719320081E-3
1.598618523E1,-1.160609815E-2,-1.374406274E-3,-6.108472589E-4
1.599533695E1,-7.330167107E-3,-5.039489828E-3,4.886778072E-3
1.600448867E1,-1.038440317E-2,-3.817795310E-3,7.941014133E-3
1.601364033E1,-1.908897609E-2,3.512371797E-3,1.023169141E-2
1.602279205E1,-3.222219273E-2,1.847812906E-2,1.206423342E-2
1.603194377E1,-4.214845970E-2,2.336490713E-2,1.435491070E-2
1.604109549E1,-5.619794875E-2,1.969982497E-2,1.618745178E-2
1.605024716E1,-6.719319522E-2,1.068982668E-2,1.298050396E-2
1.605939888E1,-6.520794332E-2,-1.099525020E-2,5.039489828E-3
1.606855060E1,-5.573981255E-2,-2.199050039E-2,-2.748812549E-3
1.607770231E1,-4.840964451E-2,-2.794626169E-2,-7.024743594E-3
1.608685398E1,-4.886778072E-2,-3.100049868E-2,-1.007897966E-2
1.609600570E1,-5.451811850E-2,-2.687728032E-2,-1.252236869E-2
1.610515742E1,-6.001574174E-2,-2.687728032E-2,-1.435491070E-2
1.611430914E1,-6.429167092E-2,-3.405473381E-2,-1.496575773E-2
1.612346080E1,-6.490252167E-2,-3.771981969E-2,-1.374406368E-2
1.613261252E1,-5.864133686E-2,-4.550812021E-2,-1.313321572E-2
1.614176424E1,-4.734066129E-2,-5.879404768E-2,-1.603474095E-2
1.615091596E1,-3.313846514E-2,-6.352811307E-2,-1.969982497E-2
1.616006763E1,-1.725643501E-2,-5.635065958E-2,-1.893626526E-2
1.616921935E1,-2.596100792E-3,-4.367557913E-2,-1.572931744E-2
1.617837106E1,7.788302377E-3,-2.122694254E-2,-9.620844387E-3
1.618752278E1,1.175880991E-2,3.512371797E-3,-2.901524538E-3
1.619667445E1,1.343864016E-2,2.092151903E-2,5.039489828E-3
1.620582617E1,1.404948719E-2,2.519745007E-2,1.053711493E-2
1.621497789E1,1.038440317E-2,1.740914769E-2,1.053711493E-2
1.622412960E1,6.108472589E-3,1.068982668E-2,7.482878864E-3
1.623328127E1,6.261184346E-3,3.359660041E-3,1.985253533E-3
1.624243299E1,7.482878864E-3,1.068982761E-3,-2.901524538E-3
1.625158471E1,6.872031838E-3,3.359660041E-3,-5.344913341E-3
1.626073643E1,1.832541777E-3,4.581354558E-3,-5.344913341E-3
1.626988815E1,-5.497625098E-3,6.413896102E-3,-3.665083554E-3
1.627903981E1,-1.298050396E-2,7.024743594E-3,6.108472589E-4
1.628819153E1,-2.153236605E-2,-3.817795310E-3,7.177455351E-3
1.629734325E1,-2.825168520E-2,-1.771457121E-2,1.206423342E-2
1.630649497E1,-3.359659761E-2,-3.084778599E-2,1.206423342E-2
1.631564664E1,-3.344388679E-2,-3.756710514E-2,2.901524538E-3
1.632479836E1,-2.672456764E-2,-4.062134400E-2,-6.261184346E-3
1.633395007E1,-2.061609551E-2,-3.634541109E-2,-1.099525020E-2
1.634310174E1,-1.695101149E-2,-2.794626169E-2,-1.710372418E-2
1.635225346E1,-1.206423342E-2,-1.710372418E-2,-1.832541823E-2
1.636140518E1,-5.344913341E-3,-1.175880991E-2,-1.649287529E-2
1.637055690E1,-4.123218823E-3,-8.093725890E-3,-8.551862091E-3
1.637970862E1,-1.832541777E-3,4.581354442E-4,-6.108472589E-4
1.638886028E1,5.497625098E-3,1.313321572E-2,6.261184346E-3
1.639801200E1,1.771457121E-2,1.496575773E-2,7.482878864E-3
1.640716372E1,2.886253223E-2,1.679829881E-2,8.246437646E-3
1.641631544E1,3.680354729E-2,2.641914412E-2,7.635590620E-3
1.642546711E1,3.420744836E-2,3.298575059E-2,6.413896102E-3
1.643461882E1,2.809897438E-2,3.787253052E-2,5.192201585E-3
1.644377054E1,1.878355257E-2,3.909422457E-2,5.650337320E-3
1.645292226E1,1.084253844E-2,2.993151546E-2,8.093725890E-3
1.646207393E1,5.344913341E-3,2.031067200E-2,8.704573847E-3
1.647122565E1,-1.527118147E-4,1.313321572E-2,9.773556143E-3
1.648037737E1,6.108472589E-4,5.955760833E-3,7.941014133E-3
1.648952908E1,2.443389036E-3,4.581354442E-4,4.428642802E-3
1.649868075E1,5.497625098E-3,1.068982761E-3,2.596100792E-3
1.650783247E1,1.221694518E-3,-1.527118147E-4,2.443389036E-3
1.651698419E1,-1.099525020E-2,-1.374406274E-3,6.108472589E-4
1.652613591E1,-2.275406010E-2,-6.261184346E-3,-1.985253533E-3
1.653528757E1,-3.054236248E-2,-2.015795931E-2,-4.428642802E-3
1.654443929E1,-3.359659761E-2,-3.283303976E-2,-4.428642802E-3
1.655359101E1,-3.222219273E-2,-3.878879920E-2,-5.650337320E-3
1.656274273E1,-2.794626169E-2,-2.916795574E-2,-1.114796288E-2
1.657189440E1,-2.443389036E-2,-1.527118147E-3,-2.275406010E-2
1.658104612E1,-1.924168877E-2,3.878879920E-2,-3.542914242E-2
1.659019783E1,-1.450762246E-2,7.971556485E-2,-4.764608666E-2
1.659934955E1,-1.053711493E-2,1.116323397E-1,-5.925218388E-2
1.660850122E1,-1.068982668E-2,1.339282542E-1,-6.963659078E-2
1.661765294E1,-1.450762246E-2,1.429382563E-1,-7.406523079E-2
1.662680466E1,-1.878355257E-2,1.429382563E-1,-7.589777559E-2
1.663595638E1,-2.428117767E-2,1.333174109E-1,-7.345438004E-2
1.664510804E1,-2.840439789E-2,1.146865711E-1,-6.734590977E-2
1.665425976E1,-3.069507517E-2,9.422318637E-2,-5.879404768E-2
1.666341148E1,-2.504473738E-2,8.154810965E-2,-5.085303262E-2
1.667256320E1,-1.893626526E-2,7.849387079E-2,-4.413371533E-2
1.668171487E1,-8.551862091E-3,8.154810965E-2,-3.603998944E-2
1.669086658E1,-1.221694518E-3,8.215895295E-2,-3.176405653E-2
1.670001830E1,6.108472589E-4,8.521319181E-2,-2.443389036E-2
1.670917002E1,-2.443389036E-3,9.009996802E-2,-2.260134928E-2
1.671832169E1,-2.596100792E-3,9.727742523E-2,-2.565558441E-2
1.672747341E1,3.054236295E-3,9.788827598E-2,-3.665083647E-2
1.673662513E1,1.359135192E-2,9.483403713E-2,-5.543438718E-2
1.674577684E1,2.305948362E-2,9.239064902E-2,-8.170082420E-2
1.675492851E1,2.870982140E-2,8.689302206E-2,-1.035386100E-1
1.676408023E1,3.313846514E-2,7.711946964E-2,-1.169772521E-1
1.677323195E1,3.390202299E-2,6.749862432E-2,-1.181989461E-1
1.678238367E1,3.573456407E-2,6.398624927E-2,-1.078145429E-1
1.679153533E1,4.184303805E-2,6.337540597E-2,-8.582404256E-2
1.680068705E1,4.474456236E-2,6.169557199E-2,-6.383354217E-2
1.680983877E1,4.902049154E-2,5.879404768E-2,-4.840964451E-2
1.681899049E1,6.077930331E-2,6.123743951E-2,-4.291202128E-2
1.682814216E1,7.482878864E-2,6.658235192E-2,-4.703523964E-2
1.683729388E1,9.345962852E-2,6.841489673E-2,-5.986303091E-2
1.684644560E1,1.151447073E-1,5.940489471E-2,-8.475505561E-2
1.685559731E1,1.418692768E-1,4.902049154E-2,-1.162136942E-1
1.686474898E1,1.685938388E-1,4.169032723E-2,-1.429382563E-1
1.687390070E1,1.908897758E-1,3.985778242E-2,-1.623326540E-1
1.688305242E1,2.061609477E-1,5.558710173E-2,-1.646233350E-1
1.689220414E1,2.128802687E-1,5.268557742E-2,-1.554606259E-1
1.690135580E1,2.168507725E-1,1.404948719E-2,-1.412584335E-1
1.691050752E1,2.371614426E-1,-5.451811850E-2,-1.301104724E-1
1.691965924E1,2.715215981E-1,-1.032331884E-1,-1.293469071E-1
1.692881096E1,3.167243004E-1,-1.296523362E-1,-1.270562261E-1
1.693796263E1,3.666610718E-1,-1.433963925E-1,-1.163664013E-1
1.694711435E1,4.036173224E-1,-1.456870735E-1,-9.773556143E-2
1.695626606E1,4.369085133E-1,-1.498102844E-1,-7.925742865E-2
1.696541778E1,4.720322192E-1,-1.539335102E-1,-6.245913357E-2
1.697456945E1,5.157077909E-1,-1.627907902E-1,-4.871506989E-2
1.698372117E1,5.627430081E-1,-1.820324808E-1,-3.680354729E-2
1.699287289E1,6.158867478E-1,-2.072299272E-1,-2.962609194E-2
1.700202461E1,6.913263798E-1,-2.269297540E-1,-1.618745178E-2
1.701117627E1,8.139539957E-1,-2.356343269E-1,2.901524538E-3
1.702031523E1,9.999569654E-1,-2.467822880E-1,3.955236077E-2
1.702947971E1,1.256360054E0,-2.713688910E-1,1.006370857E-1
1.703863143E1,1.600725293E0,-3.524588645E-1,1.806580722E-1
1.704777039E1,2.012130976E0,-4.947862923E-1,2.741177082E-1
1.705693481E1,2.447512150E0,-6.239804626E-1,3.591781855E-1
1.706608653E1,2.844563007E0,-6.719319820E-1,4.138490260E-1
1.707522549E1,3.162203550E0,-6.375718117E-1,4.503471553E-1
1.708438992E1,3.355842113E0,-5.804576278E-1,4.625640810E-1
1.709354164E1,3.393256426E0,-4.908157587E-1,4.297310412E-1
1.710268060E1,3.314610004E0,-4.092676640E-1,3.571929336E-1
1.711184507E1,3.207406282E0,-3.466558158E-1,2.263189107E-1
1.712099674E1,3.106005669E0,-2.527380586E-1,9.422318637E-2
1.713013570E1,3.014073133E0,-1.995943487E-1,-2.290677279E-3
1.713930018E1,2.974368095E0,-2.913741469E-1,-3.252761811E-2
1.714845190E1,2.985363245E0,-5.517477989E-1,-3.161134571E-2
1.715759086E1,2.979102135E0,-8.486195803E-1,4.581354558E-3
1.716675528E1,2.978949308E0,-1.040272832E0,9.620844387E-3
1.717590700E1,3.068133116E0,-1.205354333E0,-2.321219631E-2
1.718504596E1,3.251539946E0,-1.442515850E0,-4.367557913E-2
1.719421044E1,3.449301720E0,-1.711593986E0,-5.314370990E-2
1.720336210E1,3.546121120E0,-1.981588483E0,-7.971556485E-2
1.721250106E1,3.529170036E0,-2.256164312E0,-1.475196183E-1
1.722166554E1,3.430518150E0,-2.372836113E0,-2.336490750E-1
1.723081721E1,3.283914804E0,-2.274489880E0,-2.809897363E-1
1.723995617E1,3.142809153E0,-2.068481445E0,-2.748812735E-1
1.724912065E1,3.041255713E0,-1.908897638E0,-2.377723008E-1
1.725827237E1,2.968259573E0,-1.756949425E0,-2.005106062E-1
1.726741132E1,2.919239044E0,-1.577360392E0,-1.797417998E-1
1.727657575E1,2.833567619E0,-1.506502032E0,-1.986780763E-1
1.728572747E1,2.642983437E0,-1.384790778E0,-2.782409191E-1
1.729486643E1,2.461256266E0,-1.093569279E0,-3.353551328E-1
1.730403086E1,2.354816198E0,-8.251019120E-1,-3.472666740E-1
1.731318257E1,2.288844585E0,-6.340594292E-1,-3.112266660E-1
1.732232153E1,2.204089642E0,-4.755446017E-1,-2.686200738E-1
1.733148601E1,2.093678951E0,-4.056025743E-1,-2.370087355E-1
1.734063773E1,1.987391591E0,-3.943018913E-1,-2.165453583E-1
1.734978940E1,1.860793471E0,-4.259132445E-1,-2.130329758E-1
1.735894112E1,1.724116445E0,-5.152496696E-1,-2.182251811E-1
1.736809283E1,1.576749444E0,-5.789304972E-1,-2.345653474E-1
1.737724455E1,1.433505774E0,-6.326850653E-1,-2.165453583E-1
1.738639622E1,1.288735032E0,-6.719319820E-1,-1.803526580E-1
1.739554794E1,1.161220670E0,-6.827745438E-1,-1.525591016E-1
1.740469966E1,1.036455035E0,-6.739172339E-1,-1.319430023E-1
1.741385132E1,9.265025854E-1,-6.415423155E-1,-1.078145429E-1
1.742300304E1,8.096780181E-1,-5.607577562E-1,-7.818844914E-2
1.743214200E1,6.884248853E-1,-4.427115619E-1,-4.306473210E-2
1.744130648E1,5.793886185E-1,-3.342861533E-1,-4.123218823E-3
1.745045820E1,4.972296655E-1,-2.764083743E-1,3.558185324E-2
1.745960987E1,4.080459774E-1,-2.373141646E-1,6.658235192E-2
1.746876158E1,3.139754832E-1,-1.957765520E-1,8.796200156E-2
1.747791330E1,2.284568697E-1,-1.566823274E-1,1.117850468E-1
1.748706497E1,1.415638477E-1,-1.120904684E-1,1.470614821E-1
1.749621669E1,5.909947306E-2,-7.223268598E-2,1.928750277E-1
1.750536841E1,-2.580829710E-2,-3.603998944E-2,2.295258641E-1
1.751452013E1,-1.123958975E-1,-9.620844387E-3,2.612899244E-1
1.752367179E1,-1.844758689E-1,-4.260659590E-2,3.016058207E-1
1.753282351E1,-2.454078794E-1,-1.294996142E-1,3.306210935E-1
1.754197523E1,-3.045073450E-1,-2.228065431E-1,3.686463237E-1
1.755112695E1,-3.115321100E-1,-3.545968235E-1,4.036173224E-1
1.756027867E1,-2.695363462E-1,-4.963133931E-1,3.709369898E-1
1.756941757E1,-2.890834510E-1,-5.580089688E-1,3.306210935E-1
1.757858205E1,-3.640649617E-1,-5.099047422E-1,3.196258247E-1
1.758773377E1,-5.088357925E-1,-3.961344361E-1,3.484883606E-1
1.759687273E1,-8.005153537E-1,-2.831276953E-1,4.282039404E-1
1.760603716E1,-1.125638843E0,-2.240282297E-1,5.363239050E-1
1.761518888E1,-1.446639061E0,-1.017060652E-1,6.708629727E-1
1.762432783E1,-1.832389116E0,1.740914732E-1,8.127322793E-1
1.763349226E1,-2.091846466E0,4.598152637E-1,9.119949341E-1
1.764264398E1,-1.935927629E0,5.228852630E-1,9.526162744E-1
1.765178294E1,-1.592631459E0,4.421007037E-1,9.655967951E-1
1.766094742E1,-6.430694461E-1,2.962609231E-1,8.916842937E-1
1.767009908E1,-3.170297146E-1,6.435275674E-1,9.213103652E-1
1.767923804E1,-1.367839694E0,6.847597957E-1,8.083036542E-1
1.768840252E1,-2.100245476E0,7.620319724E-1,5.331169367E-1
1.769755424E1,-2.057791710E0,2.277238607E0,4.369085133E-1
1.770669320E1,-1.841551781E0,2.407349110E0,4.756973088E-1
1.771585763E1,-2.011214495E0,2.331298590E0,6.662816405E-1
1.772500934E1,-2.455147743E0,2.611982822E0,9.927794933E-1
1.773414830E1,-2.822877884E0,2.877090693E0,1.134648800E0
1.774331273E1,-2.993151665E0,3.148306847E0,1.182752967E0
1.775246445E1,-2.866095304E0,2.551967144E0,1.229177356E0
1.776160341E1,-2.557312012E0,1.517191887E0,1.204132676E0
1.777076789E1,-2.288844585E0,6.163448691E-1,9.703308940E-1
1.777991955E1,-2.182557344E0,-1.792836636E-1,5.373928547E-1
1.778905851E1,-2.161177635E0,-6.875085831E-1,1.708845198E-1
1.779822299E1,-2.165911674E0,-9.141329527E-1,2.076880634E-2
1.780737471E1,-2.239213228E0,-9.023740888E-1,-4.199574888E-2
1.781651367E1,-2.305184841E0,-6.288672686E-1,-2.611372061E-2
1.782567810E1,-2.371309042E0,-2.075353563E-1,3.222219273E-2
1.783482981E1,-2.438960314E0,2.718270421E-1,1.456870735E-1
1.784396877E1,-2.501724958E0,6.971294284E-1,2.750339806E-1
1.785313320E1,-2.561435223E0,1.015991688E0,3.042019308E-1
1.786228492E1,-2.558075666E0,1.167481780E0,2.095206082E-1
1.787143664E1,-2.425063610E0,1.262315869E0,5.955760926E-2
1.788058836E1,-2.251277685E0,1.318666577E0,-6.933116168E-2
1.788974002E1,-2.059471607E0,1.336839199E0,-1.437018216E-1
1.789887898E1,-1.926154137E0,1.347681761E0,-1.982199401E-1
1.790804346E1,-1.868123651E0,1.286138892E0,-2.266243398E-1
1.791719518E1,-1.851019859E0,1.282626510E0,-1.995943487E-1
1.792634684E1,-1.846591234E0,1.537044406E0,-1.771457046E-1
1.793549856E1,-1.819561243E0,1.947075605E0,-1.327065676E-1
1.794465028E1,-1.781841397E0,2.277544022E0,-1.015533581E-1
1.795378924E1,-1.705790997E0,2.467823029E0,-9.162708884E-4
1.796295367E1,-1.641651988E0,2.506153584E0,6.108472496E-2
1.797210539E1,-1.593395114E0,2.360313892E0,4.810422286E-2
1.798124434E1,-1.533837438E0,2.119181871E0,6.566607859E-3
1.799040877E1,-1.437170863E0,1.816659689E0,-6.704048812E-2
1.799956049E1,-1.309809208E0,1.529103398E0,-1.146865711E-1
1.800871221E1,-1.185654521E0,1.294232607E0,-1.296523362E-1
1.801786393E1,-1.097081661E0,1.123806238E0,-1.476723254E-1
1.802701560E1,-1.034927964E0,1.000262380E0,-1.704263836E-1
1.803615455E1,-1.027750492E0,8.893936276E-1,-1.733279079E-1
1.804531903E1,-1.076923728E0,7.989882231E-1,-1.583621502E-1
1.805447075E1,-1.125180602E0,7.406523228E-1,-1.281252056E-1
1.806360971E1,-1.120904684E0,6.514685750E-1,-1.067455560E-1
1.807277414E1,-1.079519868E0,5.853443742E-1,-1.068982705E-1
1.808192586E1,-1.013242841E0,5.557183027E-1,-1.369825006E-1
1.809106481E1,-9.361234307E-1,5.893148780E-1,-2.206685692E-1
1.810022924E1,-8.499939442E-1,6.523848772E-1,-3.293993771E-1
1.810938096E1,-7.041541934E-1,7.298097610E-1,-4.431696832E-1
1.811851992E1,-5.218162537E-1,8.110524416E-1,-5.720584393E-1
1.812768440E1,-3.190149665E-1,8.620582223E-1,-6.879667044E-1
1.813683606E1,-6.719319522E-2,8.567132950E-1,-7.673768401E-1
1.814597502E1,2.362451702E-1,7.872294188E-1,-8.023478985E-1
1.815513950E1,6.105418205E-1,6.974348426E-1,-8.186880350E-1
1.816429122E1,1.189472318E0,7.579087615E-1,-8.073873520E-1
1.817343013E1,2.170493126E0,9.301676750E-1,-7.999044657E-1
1.818259461E1,3.279639006E0,1.001789451E0,-6.137487888E-1
1.819174632E1,3.845741749E0,7.499676943E-1,-2.560977042E-1
1.820088528E1,4.014488220E0,1.860029846E-1,4.718795046E-2
1.821004971E1,4.201713085E0,-7.214106321E-1,2.890834510E-1
1.821920143E1,4.536609650E0,-1.789476991E0,5.604523420E-1
1.822834039E1,4.611591339E0,-2.245779991E0,8.348754644E-1
1.823750487E1,4.232713223E0,-1.607139111E0,1.079061627E0
1.824665653E1,3.767705917E0,-1.991362125E-1,1.232231617E0
1.825579549E1,3.501681805E0,1.214364409E0,1.269035220E0
1.826495997E1,3.451592445E0,1.476265073E0,1.363716483E0
1.827411164E1,3.753350973E0,6.769714952E-1,1.352415800E0
1.828325060E1,4.248595238E0,2.254026383E-1,1.243226886E0
1.829241507E1,4.347552776E0,-7.479824424E-1,1.002858520E0
1.830156679E1,4.312887192E0,-2.080240250E0,7.244648337E-1
1.831070575E1,4.196825981E0,-2.644815922E0,6.642963886E-1
1.831987018E1,3.945004225E0,-2.585258245E0,7.314895988E-1
1.832902190E1,3.821460485E0,-2.493783951E0,7.598940134E-1
1.833816086E1,3.815504789E0,-2.416969776E0,6.681141853E-1
1.834732528E1,3.636220932E0,-2.026485682E0,5.682406425E-1
1.835647700E1,3.258106470E0,-1.422205091E0,5.425850749E-1
1.836561596E1,2.930539608E0,-1.022711039E0,5.215108395E-1
1.837478044E1,2.705900669E0,-9.756757617E-1,4.711159468E-1
1.838393210E1,2.471029758E0,-9.604045749E-1,4.419479966E-1
1.839307106E1,2.246237993E0,-9.286405444E-1,4.917320311E-1
1.840223554E1,2.063747406E0,-1.020420313E0,5.418215394E-1
1.841138721E1,1.880645990E0,-1.283542752E0,5.118899941E-1
1.842052617E1,1.678150177E0,-1.680135369E0,4.143071473E-1
1.842969065E1,1.449235082E0,-2.098565817E0,2.835858464E-1
1.843884237E1,1.232689738E0,-2.429186821E0,1.601946950E-1
1.844798132E1,1.024085402E0,-2.586327314E0,9.223793447E-2
1.845714575E1,7.724163532E-1,-2.518370628E0,2.199050039E-2
1.846629747E1,4.391991794E-1,-2.249139547E0,-2.764083818E-2
1.847543643E1,9.758284688E-2,-1.901109338E0,2.137965523E-3
1.848460086E1,-2.107423097E-1,-1.575375080E0,8.215895295E-2
1.849375257E1,-5.059342384E-1,-1.267508030E0,1.769929975E-1
1.850289153E1,-7.841751575E-1,-9.397885203E-1,2.907632887E-1
1.851205596E1,-1.042868972E0,-6.143596172E-1,4.095730782E-1
1.852120768E1,-1.271783948E0,-2.973299026E-1,5.219689608E-1
1.853034664E1,-1.487565756E0,1.801999472E-2,6.294780970E-1
1.853951112E1,-1.686702013E0,3.952181637E-1,7.261446714E-1
1.854866278E1,-1.822920918E0,7.140804529E-1,7.798992395E-1
1.855780174E1,-1.822615504E0,7.537854910E-1,7.744016051E-1
1.856696622E1,-1.731599212E0,5.146388412E-1,7.490514517E-1
1.857611794E1,-1.777870893E0,3.353551328E-1,8.428165317E-1
1.858525684E1,-1.783063173E0,3.515425920E-1,1.014922738E0
1.859442132E1,-2.226385593E0,7.884510756E-1,1.180615067E0
1.860357304E1,-3.219165087E0,1.141978979E0,1.242463350E0
1.861271200E1,-3.820391417E0,5.367820263E-1,9.662076235E-1
1.862187643E1,-3.633930445E0,1.292552829E0,5.920637250E-1
1.863102815E1,-2.748507261E0,1.089446068E0,5.184566379E-1
1.864016710E1,-2.447359562E0,-6.306997687E-2,6.571189165E-1
1.864933153E1,-2.939244270E0,-7.482878864E-3,7.218687534E-1
1.865848325E1,-3.147085190E0,5.543438792E-1,8.629744649E-1
1.866762221E1,-3.031787634E0,7.295043468E-1,9.197832346E-1
1.867678669E1,-3.014225721E0,6.642963886E-1,8.667922616E-1
1.868593836E1,-2.982614517E0,4.304946065E-1,7.127060294E-1
1.869509007E1,-2.968564987E0,2.854183912E-1,4.491254389E-1
1.870424179E1,-2.908091068E0,2.654131353E-1,2.089097649E-1
1.871339351E1,-2.765305519E0,8.582404256E-2,2.443389036E-2
1.872253247E1,-2.609386683E0,-5.115845799E-2,-1.020114943E-1
1.873169690E1,-2.444763422E0,4.046862945E-2,-1.869192570E-1
1.874084862E1,-2.257233381E0,1.881409585E-1,-2.241809368E-1
1.874998757E1,-2.113837004E0,3.571929336E-1,-2.305948436E-1
1.875915200E1,-2.067412615E0,6.587987542E-1,-1.780619770E-1
1.876830372E1,-2.064052820E0,1.090973258E0,-1.368297935E-1
1.877744268E1,-2.100245476E0,1.574611545E0,-1.649287529E-2
1.878660716E1,-2.168965816E0,2.079018593E0,1.499630064E-1
1.879575882E1,-2.238755226E0,2.586174488E0,2.932066917E-1
1.880489778E1,-2.264258146E0,2.991471767E0,3.860554695E-1
1.881406226E1,-2.246543407E0,3.211071253E0,4.123218954E-1
1.882321393E1,-2.233410358E0,3.222830057E0,3.642176688E-1
1.883235289E1,-2.232341290E0,3.019265175E0,2.275405973E-1
1.884151737E1,-2.210198164E0,2.633362532E0,2.657185495E-2
1.885066908E1,-2.146975517E0,2.113378763E0,-1.406475753E-1
1.885980804E1,-2.068939686E0,1.550330400E0,-2.336490750E-1
1.886897247E1,-1.982962966E0,1.082421303E0,-3.457395434E-1
1.887812419E1,-1.862167835E0,7.050704360E-1,-4.349232614E-1
1.888726315E1,-1.710983157E0,4.092676640E-1,-4.538595080E-1
1.889642757E1,-1.591409802E0,2.536543310E-1,-4.075878263E-1
1.890557929E1,-1.527118206E0,2.594573796E-1,-3.315373361E-1
1.891471825E1,-1.459161401E0,2.904578745E-1,-2.748812735E-1
1.892388268E1,-1.347834468E0,2.179197669E-1,-2.130329758E-1
1.893303440E1,-1.213448048E0,1.388150454E-1,-1.869192570E-1
1.894217336E1,-1.130372882E0,3.028275371E-1,-1.827960461E-1
1.895133783E1,-1.083490372E0,5.752654076E-1,-1.808107942E-1
1.896048950E1,-9.906415343E-1,8.020424247E-1,-1.864611208E-1
1.896962846E1,-8.539644480E-1,9.692618847E-1,-1.789782494E-1
1.897879294E1,-7.521057129E-1,1.059209108E0,-1.458397806E-1
1.898794466E1,-7.070556879E-1,1.035386086E0,-9.849911928E-2
1.899708356E1,-6.827745438E-1,8.477032781E-1,-5.299099907E-2
1.900624804E1,-6.189410090E-1,5.344913602E-1,-4.382828996E-2
1.901539976E1,-5.424323678E-1,1.962346882E-1,-1.004843712E-1
1.902455143E1,-4.262186885E-1,-8.215895295E-2,-1.592784226E-1
1.903370315E1,-3.136700690E-1,-2.490729690E-1,-1.979145110E-1
1.904285487E1,-2.619007528E-1,-3.649812341E-1,-2.519744933E-1
1.905199382E1,-2.376195788E-1,-4.428642690E-1,-3.121429384E-1
1.906115825E1,-2.141019702E-1,-4.153761268E-1,-3.687990308E-1
1.907030997E1,-1.684411317E-1,-2.779355049E-1,-3.941491842E-1
1.907944893E1,-5.665608495E-2,-4.382828996E-2,-3.691044450E-1
1.908861341E1,1.569877416E-1,2.405211031E-1,-3.049654961E-1
1.909776507E1,4.984513521E-1,5.053234100E-1,-2.539597452E-1
1.910690403E1,1.041189194E0,6.539120078E-1,-2.299840003E-1
1.911606851E1,1.965095639E0,6.769714952E-1,-2.528907657E-1
1.912522023E1,3.227258682E0,8.376243114E-1,-2.324273884E-1
1.913435914E1,4.221870899E0,1.221083641E0,-9.804098308E-2
1.914352362E1,4.648089409E0,1.548803210E0,1.282779220E-2
1.915267533E1,4.736204147E0,1.520246148E0,6.047387794E-2
1.916181429E1,4.723376274E0,9.210049510E-1,1.334701329E-1
1.917097872E1,4.731928349E0,-9.956810623E-2,2.454078794E-1
1.918013044E1,4.735745907E0,-1.104411840E0,4.433223903E-1
1.918926940E1,4.594335079E0,-1.744885206E0,6.780404449E-1
1.919843382E1,4.317315578E0,-1.812689185E0,8.788564801E-1
1.920758554E1,4.050986290E0,-1.322637081E0,1.021336675E0
1.921672450E1,3.874451399E0,-6.679614782E-1,1.172979474E0
1.922588898E1,3.755030870E0,-4.005630910E-1,1.165802002E0
1.923504065E1,3.690891743E0,-5.088357925E-1,9.694145918E-1
1.924417961E1,3.800997019E0,-4.427115619E-1,7.093463540E-1
1.925334408E1,3.880407095E0,-3.753656447E-1,4.569137394E-1
1.926249575E1,3.695167780E0,-6.030589342E-1,2.615953386E-1
1.927163471E1,3.509775639E0,-1.067608237E0,1.879882365E-1
1.928079919E1,3.366226435E0,-1.570335627E0,2.154763639E-1
1.928995091E1,3.187095642E0,-1.775732994E0,3.084778786E-1
1.929908987E1,3.035300016E0,-1.877591729E0,3.825430870E-1
1.930825429E1,2.907480240E0,-1.913326383E0,3.730749488E-1
1.931740601E1,2.787448645E0,-1.759392858E0,3.269560039E-1
1.932654497E1,2.659628868E0,-1.499019146E0,2.531961799E-1
1.933570940E1,2.533488989E0,-1.261552334E0,1.605001241E-1
1.934486112E1,2.412693977E0,-1.075396657E0,4.596625641E-2
1.935400007E1,2.257691383E0,-9.958337545E-1,-4.734066129E-2
1.936316450E1,2.080851078E0,-1.055849433E0,-9.071081877E-2
1.937231622E1,1.859419107E0,-1.172063231E0,-9.956810623E-2
1.938145518E1,1.615080118E0,-1.286291599E0,-9.452861547E-2
1.939061960E1,1.370283127E0,-1.412126184E0,-1.072036922E-1
1.939977132E1,1.165649295E0,-1.548039675E0,-1.102579311E-1
1.940892304E1,9.831586480E-1,-1.745496035E0,-1.291942000E-1
1.941807476E1,7.988355160E-1,-1.932109833E0,-1.724116355E-1
1.942722643E1,6.233696342E-1,-1.993347287E0,-2.341072112E-1
1.943636539E1,4.804313779E-1,-1.855754018E0,-2.589992285E-1
1.944552987E1,3.739912212E-1,-1.540709496E0,-2.264716178E-1
1.945468153E1,2.954973578E-1,-1.134343386E0,-1.594311297E-1
1.946382049E1,2.354816198E-1,-7.357655168E-1,-6.245913357E-2
1.947298497E1,1.760767251E-1,-4.147652984E-1,7.421794534E-2
1.948213669E1,1.018587798E-1,-2.451024652E-1,2.024958730E-1
1.949127565E1,1.664558798E-2,-2.075353563E-1,3.069507480E-1
1.950044007E1,-7.941014320E-2,-1.814216375E-1,3.794888556E-1
1.950959179E1,-1.721062213E-1,-1.676775664E-1,4.031592011E-1
1.951873075E1,-2.429644912E-1,-1.684411317E-1,3.917058110E-1
1.952789518E1,-3.370349705E-1,-1.192679256E-1,3.793361485E-1
1.953704690E1,-5.714476109E-1,-2.244863659E-2,3.917058110E-1
1.954619862E1,-1.028055906E0,1.343863904E-1,4.616478086E-1
1.955535033E1,-1.473516345E0,2.822114229E-1,5.468609929E-1
1.956450200E1,-1.400825500E0,3.492519259E-1,5.450284481E-1
1.957364096E1,-6.943806410E-1,2.941229641E-1,5.134171247E-1
1.958280544E1,-4.888305068E-1,1.841704547E-1,6.633801460E-1
1.959195711E1,-1.483289838E0,2.270824611E-1,7.882983685E-1
1.960109606E1,-2.394368649E0,4.915793240E-1,8.145648241E-1
1.961026054E1,-2.746369362E0,5.586197972E-1,8.638907075E-1
1.961941221E1,-2.777064323E0,8.793146014E-1,8.915315866E-1
1.962855117E1,-2.528449535E0,1.200162172E0,1.030499339E0
1.963771565E1,-2.624047041E0,9.747595191E-1,1.228413820E0
1.964686737E1,-2.819823742E0,8.212841153E-1,1.362800241E0
1.965600632E1,-3.101118803E0,1.072036982E0,1.321415305E0
1.966517075E1,-3.243598938E0,1.685480356E0,1.074633002E0
1.967432247E1,-3.192898512E0,1.461452127E0,9.297095537E-1
1.968346143E1,-3.118222475E0,9.559759498E-1,9.110786915E-1
1.969262586E1,-3.061413765E0,4.488200247E-1,7.982246280E-1
1.970177757E1,-2.981698275E0,-2.794626169E-2,5.871769190E-1
1.971091653E1,-2.892972708E0,-6.252021790E-1,3.744493723E-1
1.972008096E1,-2.829444408E0,-8.748859763E-1,1.663031727E-1
1.972923268E1,-2.753241301E0,-8.774821162E-1,-8.047912270E-2
1.973837164E1,-2.668180943E0,-7.667660117E-1,-3.034383655E-1
1.974753612E1,-2.605568886E0,-3.445178568E-1,-4.034646153E-1
1.975668778E1,-2.567849159E0,3.364241421E-1,-4.060607255E-1
1.976582674E1,-2.526769638E0,1.037065983E0,-3.538332880E-1
1.977499122E1,-2.516232491E0,1.674943209E0,-2.399102598E-1
1.978414289E1,-2.586479902E0,2.371309042E0,-1.139230132E-1
1.979328185E1,-2.679481506E0,2.955431700E0,-2.718270384E-2
1.980244632E1,-2.705595255E0,3.244973421E0,2.321219631E-2
1.981159804E1,-2.694752693E0,3.329881191E0,2.687728032E-2
1.982073700E1,-2.675816536E0,3.308654070E0,-1.328592747E-2
1.982990143E1,-2.659018040E0,3.206337214E0,-9.162708884E-4
1.983905315E1,-2.647106647E0,3.032245874E0,2.367033064E-2
1.984819211E1,-2.643899679E0,2.854183912E0,-6.704048812E-2
1.985735653E1,-2.616258860E0,2.702388287E0,-1.858502775E-1
1.986650825E1,-2.546469450E0,2.546622276E0,-2.927485406E-1
1.987565997E1,-2.383373260E0,2.330382347E0,-3.603998721E-1
1.988481164E1,-2.122694254E0,2.036717415E0,-3.437542915E-1
1.989396336E1,-1.801083088E0,1.589882731E0,-2.501419485E-1
1.990310231E1,-1.498408318E0,1.108076930E0,-1.456870735E-1
1.991226679E1,-1.263690233E0,6.091674566E-1,-7.895200700E-2
1.992141846E1,-1.139993668E0,1.829487532E-1,-8.704573847E-3
1.993057018E1,-1.137550354E0,-6.016845629E-2,7.696675509E-2
1.993972190E1,-1.177866220E0,-1.255291104E-1,1.499630064E-1
1.994887362E1,-1.162442327E0,-7.437065244E-2,1.525591016E-1
1.995801252E1,-1.070662498E0,5.803048983E-2,5.528167635E-2
1.996717700E1,-9.411629438E-1,1.866138428E-1,-6.963659078E-2
1.997632867E1,-8.255600929E-1,2.588465214E-1,-1.701209545E-1
1.998546763E1,-7.676823139E-1,2.977880239E-1,-2.345653474E-1
1.999463210E1,-7.800519466E-1,3.054236174E-1,-2.628170252E-1
2.000378382E1,-8.217422962E-1,2.993151546E-1,-2.802261710E-1
2.001292278E1,-8.179244995E-1,2.757975459E-1,-2.867927849E-1
2.002208721E1,-7.887565494E-1,2.661767006E-1,-2.933593988E-1
2.003123893E1,-7.375980616E-1,2.602209449E-1,-2.953446507E-1
2.004037789E1,-6.491779089E-1,2.350234836E-1,-2.916795611E-1
2.004954231E1,-5.619794726E-1,1.966928244E-1,-2.739650011E-1
2.005869403E1,-4.804313779E-1,1.733279079E-1,-2.825168669E-1
2.006783299E1,-3.516952991E-1,1.030804738E-1,-2.791571915E-1
2.007699747E1,-7.834116369E-2,-1.145338640E-2,-2.289150059E-1
2.008614914E1,3.946073353E-1,-1.195733473E-1,-1.998997629E-1
2.009528810E1,1.015991688E0,-1.814216375E-1,-2.301367074E-1
2.010445257E1,1.783521295E0,-1.724116355E-1,-2.602209449E-1
2.011360424E1,2.734763145E0,-1.353026628E-1,-2.400629669E-1
2.012274320E1,3.730444193E0,-1.310267299E-1,-1.572931707E-1
2.013190768E1,4.573871613E0,-2.415900975E-1,-1.238492802E-1
2.014105935E1,5.476398468E0,-5.120427012E-1,-1.698155403E-1
2.015021106E1,6.085871220E0,-3.848337829E-1,-9.956810623E-2
2.015936278E1,5.868103981E0,-5.787777901E-2,1.130067408E-1
2.016851450E1,5.316967487E0,-1.937913001E-1,4.126273096E-1
2.017765346E1,4.810421944E0,-5.996993184E-1,6.586460471E-1
2.018681789E1,4.621670246E0,-6.326850653E-1,9.332218766E-1
2.019596961E1,4.400543690E0,-4.308000207E-1,1.192373872E0
2.020510856E1,4.047626495E0,-1.193442822E0,1.241699815E0
2.021427299E1,4.036325932E0,-1.426786542E0,1.222305417E0
2.022342471E1,4.472776413E0,-4.982986450E-1,1.163663983E0
2.023256367E1,4.875629902E0,-7.803573459E-2,9.132166505E-1
2.024172810E1,5.179068565E0,-5.210527182E-1,6.207735538E-1
2.025087981E1,5.181053638E0,-1.204438090E0,4.332434237E-1
2.026001877E1,4.850890636E0,-1.258345366E0,3.454341292E-1
2.026918320E1,4.509121895E0,-1.271783948E0,2.843494117E-1
2.027833492E1,4.246915340E0,-1.652341843E0,2.834331393E-1
2.028747388E1,4.088095188E0,-2.021599054E0,2.538070381E-1
2.029663836E1,3.917821646E0,-2.120250940E0,2.069245130E-1
2.030579002E1,3.720059872E0,-1.927070379E0,2.255553454E-1
2.031492898E1,3.495878935E0,-1.645011663E0,3.092414141E-1
2.032409346E1,3.172282457E0,-1.460383058E0,3.550549746E-1
2.033324513E1,2.869149685E0,-1.449540496E0,3.352024257E-1
2.034238408E1,2.613357306E0,-1.552773714E0,2.223484069E-1
2.035154856E1,2.355885267E0,-1.636917949E0,1.015533581E-1
2.036070028E1,2.109408379E0,-1.740761995E0,3.054236295E-4
2.036983919E1,1.875606537E0,-1.891335845E0,-7.024743408E-2
2.037900367E1,1.633405566E0,-2.093831778E0,-1.065928489E-1
2.038815539E1,1.376544356E0,-2.323357582E0,-1.296523362E-1
2.039730705E1,1.084712029E0,-2.493173122E0,-1.377460510E-1
2.040645877E1,7.446228266E-1,-2.576248407E0,-1.302631795E-1
2.041561049E1,3.597890437E-1,-2.417733431E0,-1.336228400E-1
2.042474945E1,-4.489727318E-2,-1.974869132E0,-1.148392856E-1
2.043391388E1,-4.469874799E-1,-1.284611821E0,-5.344913527E-2
2.044306560E1,-7.922688723E-1,-5.627430081E-1,8.887827396E-2
2.045220455E1,-1.054475069E0,5.833591148E-2,3.234436214E-1
2.046136898E1,-1.265370131E0,5.551074743E-1,5.842754245E-1
2.047052070E1,-1.457023382E0,7.960866690E-1,8.099834919E-1
2.047965966E1,-1.675095916E0,7.687512636E-1,9.758284688E-1
2.048882414E1,-1.923252583E0,6.038225293E-1,1.131594539E0
2.049797580E1,-2.305032015E0,5.865660906E-1,1.367686987E0
2.050711476E1,-2.533183575E0,7.524111271E-1,1.645622492E0
2.051627924E1,-1.107771516E0,2.721324563E-1,1.683036923E0
2.052543091E1,-7.913526297E-1,4.414898455E-1,1.855448604E0
2.053456987E1,-3.604762316E0,1.581483603E0,1.597823739E0
2.054373434E1,-4.144904137E0,-7.788302377E-3,6.713211536E-1
2.055288606E1,-3.742050409E0,1.076618314E0,2.574721277E-1
2.056202502E1,-2.493936539E0,2.555326700E0,2.290677279E-1
2.057118945E1,-2.330229521E0,2.133384049E-1,5.329642296E-1
2.058034117E1,-3.083404303E0,7.084301114E-1,7.911999226E-1
2.058948013E1,-3.195647478E0,1.607444525E0,9.521581531E-1
2.059864455E1,-3.082488060E0,1.336075664E0,8.713735938E-1
2.060779627E1,-2.945658207E0,1.047755718E0,7.351546884E-1
2.061693523E1,-2.836316586E0,5.447230339E-1,5.610632300E-1
2.062609966E1,-2.865026474E0,4.117110670E-1,3.367295563E-1
2.063525138E1,-2.853420258E0,2.983988822E-1,3.222219273E-2
2.064439033E1,-2.765152931E0,1.330119967E-1,-2.588465214E-1
2.065355476E1,-2.725142241E0,2.125748396E-1,-4.193466306E-1
2.066270648E1,-2.728196621E0,2.932066917E-1,-4.413371384E-1
2.067184544E1,-2.735679388E0,5.036435723E-1,-4.257605374E-1
2.068100992E1,-2.721629858E0,8.383878469E-1,-3.617742956E-1
2.069016158E1,-2.693072796E0,1.260635972E0,-2.727433145E-1
2.069930054E1,-2.689865828E0,1.689450860E0,-1.698155403E-1
2.070846502E1,-2.680245161E0,2.110935450E0,-1.212531775E-1
2.071761669E1,-2.686506271E0,2.454384327E0,-8.429691941E-2
2.072675565E1,-2.702999115E0,2.724989653E0,-9.254335612E-2
2.073592013E1,-2.679023266E0,2.805621386E0,-1.180462316E-1
2.074507185E1,-2.610913992E0,2.703915358E0,-1.345391124E-1
2.075421075E1,-2.539902925E0,2.503862858E0,-1.571404636E-1
2.076337523E1,-2.427048922E0,2.239824295E0,-2.348707765E-1
2.077252695E1,-2.320303202E0,1.968149900E0,-2.443388999E-1
2.078167862E1,-2.246237993E0,1.741678238E0,-2.325800955E-1
2.079083033E1,-2.203478813E0,1.541320324E0,-1.852394342E-1
2.079998205E1,-2.158276081E0,1.379903913E0,-1.652341783E-1
2.080912101E1,-2.092762709E0,1.233605981E0,-1.823379099E-1
2.081828544E1,-2.021140814E0,1.134801507E0,-1.817270666E-1
2.082743716E1,-1.956696510E0,1.086849928E0,-1.464506239E-1
2.083658888E1,-1.828113079E0,1.016755223E0,-9.300149232E-2
2.084574054E1,-1.569724798E0,8.480086923E-1,-6.352811307E-2
2.085489226E1,-1.194664478E0,5.793886185E-1,-2.962609194E-2
2.086403122E1,-8.745805621E-1,2.852656841E-1,4.123218823E-3
2.087319565E1,-7.513421178E-1,8.246437646E-3,2.596100792E-3
2.088235291E1,-7.510367036E-1,-2.220429778E-1,-3.374931216E-2
2.089149187E1,-7.603521347E-1,-3.269560039E-1,-6.429167092E-2
2.090065635E1,-7.571451664E-1,-2.854183912E-1,-6.612421572E-2
2.090980802E1,-7.516475320E-1,-1.317902952E-1,-6.505523622E-2
2.091894698E1,-7.647807598E-1,2.779355086E-2,-7.498150319E-2
2.092811146E1,-8.005153537E-1,1.041494608E-1,-1.033858955E-1
2.093726312E1,-8.473978639E-1,1.250709742E-1,-1.403421611E-1
2.094640208E1,-8.150229454E-1,1.081199646E-1,-1.724116355E-1
2.095556656E1,-7.072083950E-1,1.322484314E-1,-2.127275616E-1
2.096471828E1,-6.206207871E-1,2.194468826E-1,-2.964136302E-1
2.097385718E1,-5.250232220E-1,3.187095523E-1,-3.825430870E-1
2.098302166E1,-3.574983478E-1,4.607315361E-1,-5.102101564E-1
2.099217338E1,-1.472141892E-1,6.992673874E-1,-6.183301210E-1
2.100131234E1,1.319430023E-1,9.429954290E-1,-6.671979427E-1
2.101047677E1,5.992411375E-1,9.973608851E-1,-6.699467301E-1
2.101962849E1,1.284153700E0,7.702783942E-1,-6.503996253E-1
2.102876744E1,1.930582762E0,4.188885093E-1,-5.862606764E-1
2.103793187E1,2.592893839E0,2.744231224E-1,-4.892886579E-1
2.104708359E1,3.335989475E0,3.672719002E-1,-3.405473530E-1
2.105623531E1,4.003187656E0,3.912476599E-1,-1.753131598E-1
2.106538698E1,4.707799911E0,-1.890572309E-1,-1.339282542E-1
2.107453870E1,5.260769367E0,-9.611681700E-1,-1.270562261E-1
2.108367765E1,5.250537395E0,-1.313321590E0,1.247655526E-1
2.109284208E1,4.875477314E0,-1.417165637E0,5.399889946E-1
2.110199380E1,4.437805176E0,-1.036760569E0,9.439117312E-1
2.111113276E1,3.903924942E0,-1.093416587E-1,1.174506545E0
2.112029719E1,3.493588209E0,4.880669713E-1,1.378224134E0
2.112944890E1,3.467321873E0,5.760289431E-1,1.399298310E0
2.113858786E1,3.853835344E0,8.449544907E-1,1.272394896E0
2.114775234E1,4.171934128E0,7.672241330E-1,1.161678791E0
2.115690401E1,4.298837662E0,-3.509317636E-1,1.027292371E0
2.116604297E1,4.446662426E0,-1.858350039E0,8.699992299E-1
2.117520744E1,4.457199574E0,-2.796458721E0,7.658497691E-1
2.118435916E1,4.230728149E0,-3.037285328E0,7.423321605E-1
2.119349807E1,3.933703661E0,-3.000329018E0,7.682931423E-1
2.120266255E1,3.888042688E0,-2.948865175E0,6.849125028E-1
2.121181427E1,3.960122824E0,-2.885337114E0,5.552601814E-1
2.122095317E1,3.800997019E0,-2.575026512E0,4.928010404E-1
2.123011765E1,3.471445084E0,-2.093373537E0,4.729484916E-1
2.123926937E1,3.134104490E0,-1.719687700E0,4.844018817E-1
2.124840833E1,2.808981180E0,-1.482220888E0,4.685198367E-1
2.125757276E1,2.577775478E0,-1.311030984E0,4.155288339E-1
2.126672448E1,2.404142141E0,-1.228566527E0,3.477247953E-1
2.127586344E1,2.242114782E0,-1.222305417E0,3.104631305E-1
2.128502786E1,2.047865391E0,-1.400520086E0,2.695363462E-1
2.129417958E1,1.818950415E0,-1.628213406E0,2.345653474E-1
2.130333130E1,1.557813168E0,-1.848729253E0,1.840177327E-1
2.131248297E1,1.288124204E0,-2.057333469E0,1.029277667E-1
2.132163469E1,1.010799527E0,-2.158886909E0,1.664558798E-2
2.133077364E1,7.049177289E-1,-2.095664263E0,-6.978929788E-2
2.133993807E1,3.300102353E-1,-1.898971438E0,-1.330119967E-1
2.134908979E1,-9.529217333E-2,-1.645927906E0,-1.221694499E-1
2.135822875E1,-4.566083252E-1,-1.458550572E0,-1.435491070E-2
2.136739317E1,-8.141067028E-1,-1.119377613E0,1.374406368E-1
2.137654489E1,-1.082268596E0,-7.230904698E-1,3.306210935E-1
2.138568385E1,-1.271478534E0,-2.617480457E-1,5.279247165E-1
2.139484833E1,-1.391051888E0,1.484358907E-1,6.862868667E-1
2.140400000E1,-1.450151443E0,3.813214004E-1,7.766922712E-1
2.141313896E1,-1.599198103E0,5.519005060E-1,8.444963098E-1
2.142230344E1,-2.072910070E0,7.916580439E-1,1.001025915E0
2.143145510E1,-2.215848446E0,8.683193922E-1,1.112352848E0
2.144059406E1,-7.240067124E-1,7.475243211E-1,1.192526579E0
2.144975854E1,-1.286291599E0,1.426481009E0,1.705790997E0
2.145891021E1,-3.755641699E0,1.277587056E0,1.608513594E0
2.146804916E1,-4.101075649E0,2.322746664E-1,9.028322697E-1
2.147721364E1,-3.414025307E0,2.344584465E0,4.792096615E-1
2.148636536E1,-2.375737667E0,1.541778445E0,4.975350797E-1
2.149551703E1,-2.423383713E0,1.114796288E-2,8.220477104E-1
2.150466875E1,-2.963220119E0,4.373666346E-1,1.231926203E0
2.151382047E1,-2.963678122E0,6.456655264E-1,1.329509020E0
2.152295942E1,-2.787754059E0,5.573981404E-1,1.016297102E0
2.153212385E1,-2.682383060E0,3.481829539E-2,6.552863717E-1
2.154127557E1,-2.725447655E0,-2.867927849E-1,4.121691883E-1
2.155041453E1,-2.825626612E0,3.359659761E-2,2.512109280E-1
2.155957896E1,-2.856168985E0,2.163926363E-1,1.348445266E-1
2.156873067E1,-2.787601471E0,1.630962193E-1,4.749337584E-2
2.157786963E1,-2.713841677E0,2.087570578E-1,3.970507067E-3
2.158703406E1,-2.643899679E0,2.516690791E-1,-1.267508045E-2
2.159618578E1,-2.580829620E0,3.124483824E-1,-4.169032723E-2
2.160532474E1,-2.545400620E0,4.802786708E-1,-2.916795574E-2
2.161448916E1,-2.532267332E0,7.285880446E-1,1.832541777E-3
2.162364088E1,-2.557312012E0,9.487984776E-1,7.162184268E-2
2.163277984E1,-2.606332541E0,1.183669329E0,8.032641560E-2
2.164194432E1,-2.609081268E0,1.427855492E0,8.567132801E-2
2.165109599E1,-2.543415308E0,1.732820988E0,8.765657991E-2
2.166023495E1,-2.431019306E0,2.050003290E0,1.023169160E-1
2.166939942E1,-2.309155464E0,2.274489880E0,1.108687744E-1
2.167855109E1,-2.150640488E0,2.361840963E0,5.650337040E-2
2.168770281E1,-1.966164589E0,2.319539785E0,-5.650337040E-2
2.169685453E1,-1.812383771E0,2.182099104E0,-1.365243644E-1
2.170600620E1,-1.683647752E0,2.020988226E0,-2.234173864E-1
2.171514515E1,-1.543000221E0,1.897596955E0,-2.576248348E-1
2.172430963E1,-1.426328301E0,1.782757759E0,-2.341072112E-1
2.173346135E1,-1.382347345E0,1.676928401E0,-1.922641695E-1
2.174261302E1,-1.364938259E0,1.585301399E0,-2.067717910E-1
2.175176474E1,-1.309809208E0,1.564990640E0,-1.971509457E-1
2.176091646E1,-1.246433854E0,1.486344099E0,-1.661504507E-1
2.177005541E1,-1.178935170E0,1.248419046E0,-1.374406368E-1
2.177921984E1,-1.092805743E0,9.110786915E-1,-1.426328421E-1
2.178837156E1,-9.894198179E-1,5.428904891E-1,-2.064663768E-1
2.179751052E1,-9.009997249E-1,2.725905776E-1,-2.983988822E-1
2.180667494E1,-8.993198872E-1,1.736333370E-1,-3.568875194E-1
2.181582666E1,-9.316948056E-1,1.343863904E-1,-3.472666740E-1
2.182496562E1,-9.362761378E-1,8.276980370E-2,-2.971771955E-1
2.183413005E1,-9.487984776E-1,1.007897966E-2,-2.368560284E-1
2.184328177E1,-9.582666159E-1,1.801999472E-2,-2.082989216E-1
2.185242073E1,-9.701781869E-1,1.281252056E-1,-2.296785712E-1
2.186158515E1,-9.197832346E-1,2.052446753E-1,-2.379250079E-1
2.187073687E1,-8.521319032E-1,2.612899244E-1,-3.029802442E-1
2.187987583E1,-7.704311013E-1,3.733803928E-1,-3.316900730E-1
2.188904026E1,-6.288672686E-1,6.013791561E-1,-3.388675153E-1
2.189819198E1,-3.929274976E-1,9.101623893E-1,-3.574983478E-1
2.190733094E1,-1.481304597E-2,1.105938911E0,-4.118637741E-1
2.191649536E1,4.935645759E-1,1.160151601E0,-4.596625566E-1
2.192564708E1,1.070662498E0,9.217684865E-1,-4.608842432E-1
2.193478604E1,1.739234805E0,4.445441067E-1,-4.269822240E-1
2.194395052E1,2.562656879E0,1.023169141E-2,-3.782671690E-1
2.195310219E1,3.478011608E0,3.558185324E-2,-2.910687327E-1
2.196224114E1,4.192397594E0,3.295520842E-1,-1.653869003E-1
2.197140562E1,4.413371563E0,5.123481154E-1,-4.184303805E-2
2.198055729E1,4.439790726E0,3.892624080E-1,9.391776472E-2
2.198969625E1,4.548521519E0,-1.937913001E-1,2.429644912E-1
2.199886073E1,4.689474583E0,-1.114032745E0,4.650074840E-1
2.200801245E1,4.609606266E0,-1.619814277E0,7.623373866E-1
2.201715135E1,4.201407433E0,-1.168856263E0,1.011257648E0
2.202631583E1,3.548411846E0,-1.672194302E-1,1.145185947E0
2.203546755E1,3.056526899E0,3.662029207E-1,1.218945742E0
2.204460646E1,2.971619129E0,5.105155706E-1,1.158929944E0
2.205377094E1,3.436015844E0,1.649287641E-1,1.059209108E0
2.206292265E1,3.876589298E0,-7.391251922E-1,8.231166601E-1
2.207206161E1,4.052513599E0,-1.197260618E0,5.517477989E-1
2.208122604E1,3.973866940E0,-1.443890214E0,4.150707126E-1
2.209037776E1,3.627211094E0,-1.664558768E0,3.516952991E-1
2.209951672E1,3.473277569E0,-2.223025799E0,2.991624475E-1
2.210868114E1,3.503514528E0,-2.899386406E0,2.510582209E-1
2.211783286E1,3.524283171E0,-3.003688574E0,2.041756958E-1
2.212697182E1,3.439375401E0,-2.719033957E0,1.808107942E-1
2.213613625E1,3.322703600E0,-2.471640825E0,1.351499557E-1
2.214528797E1,3.148459435E0,-2.256927967E0,9.529217333E-2
2.215442692E1,2.961693048E0,-2.028929234E0,6.276455522E-2
2.216359135E1,2.850060701E0,-1.873163104E0,2.397575416E-2
2.217274307E1,2.734763145E0,-1.763363361E0,-3.741439432E-2
2.218188203E1,2.535779715E0,-1.688381791E0,-6.810946763E-2
2.219104646E1,2.289608240E0,-1.670209169E0,-9.193251282E-2
2.220019817E1,2.039924383E0,-1.646691442E0,-1.204896197E-1
2.220934989E1,1.776038408E0,-1.609887958E0,-1.675248593E-1
2.221850156E1,1.485427856E0,-1.624548316E0,-2.338017821E-1
2.222765328E1,1.162136912E0,-1.692046881E0,-3.031329513E-1
2.223680500E1,8.261709213E-1,-1.736333370E0,-3.652866483E-1
2.224595666E1,4.602734149E-1,-1.607444525E0,-3.985778391E-1
2.225510838E1,6.551336497E-2,-1.301257372E0,-3.672719002E-1
2.226424734E1,-3.293993771E-1,-8.970292211E-1,-2.397575527E-1
2.227341182E1,-7.151494026E-1,-4.563029110E-1,-1.618745178E-2
2.228256349E1,-1.089598775E0,5.803049076E-3,2.689255178E-1
2.229170245E1,-1.439767003E0,4.191939235E-1,5.752654076E-1
2.230086687E1,-1.752978921E0,7.579087615E-1,8.970292211E-1
2.231001859E1,-1.909508586E0,8.898517489E-1,1.074785709E0
2.231915755E1,-1.904010892E0,6.629219651E-1,1.130525589E0
2.232832203E1,-1.448471546E0,1.771457046E-1,1.097997904E0
2.233747370E1,-5.659499764E-1,-1.701209545E-1,1.144880533E0
2.234661265E1,-7.316423059E-1,7.375980914E-2,1.345696568E0
2.235577713E1,-2.608928680E0,9.327637553E-1,1.414874911E0
2.236492880E1,-3.717616320E0,1.295912504E0,1.174048424E0
2.237406776E1,-3.850322962E0,3.423798978E-1,8.794673681E-1
2.238323224E1,-3.544135809E0,1.626838923E0,6.798729897E-1
2.239238390E1,-2.928554535E0,1.569419265E0,1.012632012E0
2.240152286E1,-2.673372984E0,-3.851391971E-1,1.437934399E0
2.241068734E1,-3.211987495E0,1.939440072E-1,1.529561520E0
2.241983901E1,-3.448080063E0,1.116781473E0,1.353179336E0
2.242897797E1,-3.102340460E0,8.426637650E-1,8.984035850E-1
2.243814244E1,-2.958333254E0,6.215370893E-1,5.422796607E-1
2.244729411E1,-3.013462305E0,5.625903010E-1,2.916795611E-1
2.245643307E1,-3.097148418E0,7.142331600E-1,7.773031294E-2
2.246559755E1,-3.112572193E0,9.106205702E-1,-4.092676565E-2
2.247474927E1,-3.106005669E0,8.948912621E-1,-8.231166750E-2
2.248388817E1,-3.078670263E0,9.413156509E-1,-8.887827396E-2
2.249305265E1,-3.033162117E0,9.504783154E-1,-8.368607610E-2
2.250220437E1,-3.017432690E0,8.993198872E-1,-5.909947306E-2
2.251134328E1,-3.022319555E0,9.332218766E-1,-1.221694518E-2
2.252050776E1,-2.976505995E0,1.046686769E0,2.840439789E-2
2.252965948E1,-2.912214279E0,1.198940516E0,7.391251624E-2
2.253879844E1,-2.849297047E0,1.396854997E0,1.186570823E-1
2.254796286E1,-2.781187534E0,1.604390383E0,1.678302884E-1
2.255711458E1,-2.696585178E0,1.878660798E0,1.499630064E-1
2.256625354E1,-2.583120346E0,2.254637241E0,9.743013978E-2
2.257541797E1,-2.473473310E0,2.648633718E0,1.908897609E-2
2.258456968E1,-2.351150990E0,2.947185278E0,-1.102579311E-1
2.259370864E1,-2.185306072E0,3.069813013E0,-2.411319613E-1
2.260287307E1,-2.006327868E0,3.015753031E0,-3.161134422E-1
2.261202479E1,-1.854837656E0,2.824863195E0,-3.203893900E-1
2.262116375E1,-1.762141585E0,2.550440073E0,-2.699944973E-1
2.263032817E1,-1.726559758E0,2.217986345E0,-2.305948436E-1
2.263947989E1,-1.655090690E0,1.796807170E0,-2.345653474E-1
2.264861885E1,-1.432284117E0,1.338060975E0,-2.211267054E-1
2.265778328E1,-1.081657767E0,8.554915786E-1,-1.852394342E-1
2.266693500E1,-8.144121170E-1,3.005368412E-1,-1.372879148E-1
2.267607396E1,-7.189671993E-1,-3.217637837E-1,-1.244601309E-1
2.268523838E1,-6.907155514E-1,-9.345963001E-1,-1.250709742E-1
2.269439010E1,-6.252021790E-1,-1.382805467E0,-1.194206402E-1
2.270352906E1,-5.497625470E-1,-1.559645772E0,-9.926267713E-2
2.271269349E1,-5.128062963E-1,-1.508792758E0,-5.253286287E-2
2.272184520E1,-4.767662883E-1,-1.289803982E0,1.603474095E-2
2.273098416E1,-4.165978432E-1,-8.887827396E-1,8.811471611E-2
2.274014859E1,-3.032856584E-1,-3.881934285E-1,1.282779276E-1
2.274930031E1,-2.029540092E-1,1.006370857E-1,1.408002973E-1
2.275843927E1,-1.870719790E-1,5.465555787E-1,1.259872466E-1
2.276760370E1,-1.221694499E-1,8.877137899E-1,9.254335612E-2
2.277675541E1,-5.238015205E-2,1.154195905E0,-5.360184610E-2
2.278589437E1,-5.635065958E-2,1.366618037E0,-1.435490996E-1
2.279505885E1,-6.566607859E-3,1.592478752E0,-1.714953631E-1
2.280421052E1,1.378987730E-1,1.861404300E0,-2.061609477E-1
2.281334948E1,4.078932703E-1,2.165911674E0,-2.484621257E-1
2.282251396E1,8.278507590E-1,2.374210596E0,-3.066453338E-1
2.283166562E1,1.552468300E0,2.222262383E0,-3.350497186E-1
2.284080458E1,2.241198540E0,1.800624967E0,-2.486148328E-1
2.284996906E1,2.824710369E0,1.663031697E0,-7.956285775E-2
2.285912073E1,3.400892019E0,2.031525373E0,6.536065787E-2
2.286825968E1,3.966383934E0,1.891641259E0,2.959555089E-1
2.287742416E1,4.309374809E0,5.173876286E-1,5.039489865E-1
2.288657583E1,4.407415867E0,-1.171452284E0,5.326588154E-1
2.289571479E1,4.591433525E0,-2.510429621E0,6.212316751E-1
2.290487927E1,4.592502594E0,-2.969328642E0,8.718317747E-1
2.291403094E1,3.772592783E0,-2.791877508E0,1.127929449E0
2.292316989E1,3.057290554E0,-2.588312626E0,1.233147860E0
2.293233437E1,2.925958395E0,-1.945701241E0,1.040731072E0
2.294148604E1,3.197327375E0,-1.067608237E0,7.727217674E-1
2.295062500E1,3.538180113E0,-6.339067221E-1,5.934380889E-1
2.295978948E1,3.822987556E0,-7.124006152E-1,4.549284875E-1
2.296894120E1,4.034340858E0,-1.435491085E0,3.721587062E-1
2.297808010E1,4.179417133E0,-2.195995808E0,3.071034551E-1
2.298724458E1,4.188579559E0,-2.346416950E0,2.205158621E-1
2.299639630E1,3.921486616E0,-2.170340300E0,1.637070626E-1
2.300553520E1,3.727848053E0,-2.144379377E0,1.281252056E-1
2.301469968E1,3.813519478E0,-2.392688751E0,8.857285231E-2
2.302385140E1,3.805578470E0,-2.464005232E0,7.024743408E-2
2.303299036E1,3.596821308E0,-2.225469351E0,7.528692484E-2
2.304215479E1,3.348664761E0,-1.902789235E0,9.651386738E-2
2.305130651E1,3.123261929E0,-1.597518325E0,1.368297935E-1
2.306045817E1,2.889307499E0,-1.288735032E0,1.563768983E-1
2.306960989E1,2.705900669E0,-1.055696726E0,1.951656938E-1
2.307876161E1,2.547233105E0,-9.827005267E-1,2.440334857E-1
2.308790057E1,2.353136301E0,-1.127165914E0,2.422009408E-1
2.309706500E1,2.117349386E0,-1.495201349E0,1.950129867E-1
2.310621672E1,1.852394342E0,-1.944937706E0,1.116323397E-1
2.311535562E1,1.560562015E0,-2.290524483E0,2.611372061E-2
2.312452010E1,1.231315374E0,-2.393146753E0,-3.649812192E-2
2.313367182E1,8.127322793E-1,-2.173241854E0,-5.741964281E-2
2.314281078E1,3.103103936E-1,-1.864916682E0,-7.696675509E-2
2.315197521E1,-2.163926363E-1,-1.635543585E0,-5.100574717E-2
2.316112692E1,-6.697940230E-1,-1.376086116E0,8.796200156E-2
2.317026588E1,-1.015075445E0,-9.817842841E-1,2.898470163E-1
2.317943031E1,-1.301410079E0,-5.697677732E-1,5.225798488E-1
2.318858203E1,-1.588202834E0,-2.281514555E-1,7.463026643E-1
2.319772099E1,-1.853310585E0,-2.015795931E-2,8.968765140E-1
2.320688541E1,-2.139797926E0,1.440072358E-1,1.109756708E0
2.321603713E1,-2.549829245E0,4.159869850E-1,1.309961915E0
2.322517609E1,-2.696432590E0,6.355865598E-1,1.418081880E0
2.323434052E1,-1.851936221E0,5.341859460E-1,1.477792263E0
2.324349224E1,-2.044505835E0,8.590039611E-1,1.746717691E0
2.325263120E1,-3.761902809E0,1.170230627E0,1.731904745E0
2.326179562E1,-4.352591991E0,5.199837089E-1,1.353942990E0
2.327094734E1,-3.842381954E0,1.147018433E0,1.087155461E0
2.328008630E1,-2.670013428E0,1.259414315E0,1.131441832E0
2.328925073E1,-2.351303816E0,-3.620797098E-1,8.961129189E-1
2.329840244E1,-2.723004341E0,5.619794875E-2,5.761816502E-1
2.330754140E1,-2.793709993E0,5.042544007E-1,5.076140761E-1
2.331670583E1,-2.540360928E0,2.809897363E-1,3.800997138E-1
2.332585755E1,-2.470571756E0,4.619532526E-1,2.327328026E-1
2.333499651E1,-2.416664362E0,6.184828281E-1,1.418692768E-1
2.334416094E1,-2.458049297E0,8.131904006E-1,3.405473381E-2
2.335331265E1,-2.547080278E0,1.299730301E0,-5.176930502E-2
2.336245161E1,-2.575331926E0,1.528492570E0,-7.421794534E-2
2.337161604E1,-2.538681269E0,1.542542100E0,-3.970507160E-2
2.338076776E1,-2.454231501E0,1.499629974E0,4.275930673E-2
2.338990672E1,-2.405058384E0,1.424648523E0,1.010952219E-1
2.339907114E1,-2.394215822E0,1.359745979E0,1.464506239E-1
2.340822286E1,-2.423689127E0,1.390593767E0,2.023431510E-1
2.341736182E1,-2.473473310E0,1.519940734E0,3.106158376E-1
2.342652625E1,-2.484010458E0,1.697391868E0,3.923166394E-1
2.343567797E1,-2.412999392E0,1.886143565E0,4.060607255E-1
2.344481692E1,-2.271893740E0,2.057333469E0,3.562766612E-1
2.345398135E1,-2.075353622E0,2.150335073E0,1.864611208E-1
2.346313307E1,-1.903247356E0,2.145753622E0,-7.024743594E-3
2.347227203E1,-1.795432806E0,2.092304468E0,-1.521009654E-1
2.348143646E1,-1.735264301E0,2.023278952E0,-2.469350100E-1
2.349058817E1,-1.687160134E0,1.955169320E0,-2.557922900E-1
2.349972713E1,-1.616454601E0,1.836665034E0,-2.619007528E-1
2.350889156E1,-1.488176584E0,1.622257590E0,-2.716743052E-1
2.351804328E1,-1.353790283E0,1.455038190E0,-2.396048307E-1
2.352718224E1,-1.278808713E0,1.319124699E0,-1.907370538E-1
2.353634666E1,-1.205965161E0,1.023016453E0,-1.557660550E-1
2.354549838E1,-1.077381849E0,5.616740584E-1,-1.514901221E-1
2.355463734E1,-9.156600237E-1,1.157555580E-1,-1.615691036E-1
2.356380177E1,-7.919634581E-1,-1.823379099E-1,-1.782146841E-1
2.357295349E1,-7.192726731E-1,-3.263451457E-1,-1.989834905E-1
2.358209244E1,-6.696413159E-1,-4.051444530E-1,-2.247917950E-1
2.359125687E1,-6.549809575E-1,-4.642439187E-1,-2.289150059E-1
2.360040859E1,-6.795675755E-1,-4.810422063E-1,-2.034121305E-1
2.360954755E1,-6.830799580E-1,-4.459185004E-1,-1.626380831E-1
2.361871198E1,-6.945333481E-1,-3.310792148E-1,-1.872246861E-1
2.362786370E1,-6.507050395E-1,-2.020377368E-1,-1.899735034E-1
2.363700265E1,-5.489989519E-1,-5.482354015E-2,-1.844758689E-1
2.364616708E1,-4.532486796E-1,1.261399537E-1,-1.864611208E-1
2.365531880E1,-3.703261614E-1,3.594835997E-1,-1.811162084E-1
2.366445776E1,-2.273878902E-1,6.375718117E-1,-1.699682474E-1
2.367362219E1,6.978929788E-2,9.135220647E-1,-1.771457046E-1
2.368277390E1,5.150969625E-1,1.120141149E0,-2.249445021E-1
2.369191286E1,9.915578365E-1,1.236202121E0,-3.242071867E-1
2.370107729E1,1.466644287E0,1.208255887E0,-4.002576768E-1
2.371022901E1,2.044963837E0,1.122431874E0,-3.910949528E-1
2.371936797E1,2.860597610E0,1.189930439E0,-2.762556672E-1
2.372853239E1,3.782977104E0,1.380514860E0,-1.653869003E-1
2.373768411E1,4.173766613E0,1.500699043E0,-8.154810965E-2
2.374682307E1,4.194840908E0,1.544221878E0,7.620319724E-2
2.375598750E1,4.353813648E0,1.184127450E0,2.521272004E-1
2.376513922E1,4.837146759E0,2.144073844E-1,5.054761171E-1
2.377427817E1,4.772397041E0,-9.530744553E-1,7.886037827E-1
2.378344260E1,4.065952301E0,-1.885532737E0,9.930849075E-1
2.379259432E1,3.526268482E0,-2.138881683E0,1.025001645E0
2.380173328E1,3.553451300E0,-1.361578584E0,9.964445829E-1
2.381089771E1,3.835815430E0,-4.711159468E-1,9.831586480E-1
2.382004942E1,4.139253616E0,6.169557199E-2,8.670976758E-1
2.382918838E1,4.333197594E0,-9.605573118E-2,6.914790869E-1
2.383835281E1,4.344040394E0,-6.461237073E-1,5.526640415E-1
2.384750453E1,4.298074245E0,-1.004232883E0,5.215108395E-1
2.385664349E1,4.230422497E0,-1.431062460E0,5.060869455E-1
2.386580791E1,4.082292080E0,-1.940050840E0,4.430169761E-1
2.387495963E1,3.969285488E0,-2.258760452E0,4.028537571E-1
2.388409859E1,3.895220280E0,-2.431782961E0,3.718532622E-1
2.389326302E1,3.786031246E0,-2.495921850E0,3.588727713E-1
2.390241474E1,3.598042965E0,-2.335421801E0,3.471139669E-1
2.391155370E1,3.356300354E0,-2.032747030E0,3.139754832E-1
2.392071812E1,3.067980289E0,-1.697544575E0,2.990097404E-1
2.392986984E1,2.801345587E0,-1.387081385E0,3.060344756E-1
2.393900880E1,2.581287861E0,-1.154806733E0,3.017585576E-1
2.394817323E1,2.349471331E0,-1.022100210E0,2.964136302E-1
2.395732494E1,2.098260403E0,-9.773555994E-1,2.964136302E-1
2.396646390E1,1.844300628E0,-1.037371397E0,2.849602401E-1
2.397562833E1,1.599808931E0,-1.254222155E0,2.583884001E-1
2.398478005E1,1.382652760E0,-1.647607803E0,2.076880634E-1
2.399393172E1,1.174048424E0,-2.178128719E0,9.972081333E-2
2.400308344E1,9.124531150E-1,-2.570292473E0,-5.207473040E-2
2.401223515E1,6.036698222E-1,-2.810355425E0,-1.530172378E-1
2.402137411E1,2.318165302E-1,-2.716437817E0,-1.667613089E-1
2.403053854E1,-2.057028115E-1,-2.188360214E0,-1.096470803E-1
2.403969026E1,-6.358919740E-1,-1.489551067E0,7.635590620E-3
2.404882922E1,-9.898779988E-1,-7.849387527E-1,1.902789176E-1
2.405799364E1,-1.237118363E0,-4.871506989E-2,4.219427407E-1
2.406714536E1,-1.376238823E0,5.154023767E-1,6.470399499E-1
2.407629703E1,-1.457787037E0,5.948125124E-1,8.095253110E-1
2.408544875E1,-1.620883226E0,3.122956753E-1,9.281824231E-1
2.409460047E1,-2.128191948E0,1.656923145E-1,1.088377118E0
2.410373937E1,-2.912977934E0,4.323271513E-1,1.315917730E0
2.411290385E1,-2.846700907E0,7.337802649E-1,1.465117097E0
2.412205557E1,-1.059514523E0,5.291464329E-1,1.553689957E0
2.413119453E1,-1.742899895E0,9.148964882E-1,1.867818236E0
2.414035896E1,-3.898274422E0,9.819369912E-1,1.389830232E0
2.414951067E1,-4.057247639E0,-9.483403713E-2,7.110261917E-1
2.415864958E1,-3.268338203E0,1.646844268E0,5.871769190E-1
2.416781406E1,-2.375432253E0,7.403468490E-1,7.797465324E-1
2.417696578E1,-2.479581833E0,-3.587200642E-1,8.842014074E-1
2.418610474E1,-3.077601194E0,7.470661998E-1,9.457442760E-1
2.419526916E1,-3.046753407E0,1.033859015E0,9.225320816E-1
2.420442088E1,-2.854336500E0,1.101510286E0,7.467607856E-1
2.421355979E1,-2.737053871E0,1.016144395E0,5.882459283E-1
2.422272427E1,-2.667111874E0,8.565605879E-1,4.459185004E-1
2.423187599E1,-2.767443419E0,1.187792540E0,2.641914487E-1
2.424101489E1,-2.854336500E0,1.277281642E0,6.994201243E-2
2.425017937E1,-2.869455099E0,1.195886254E0,-9.132166207E-2
2.425933104E1,-2.839370728E0,1.227650285E0,-1.705790907E-1
2.426847000E1,-2.796153307E0,1.152363300E0,-1.627907902E-1
2.427763448E1,-2.758128166E0,9.530744553E-1,-1.385096163E-1
2.428678614E1,-2.749118090E0,8.098307252E-1,-7.437065244E-2
2.429592510E1,-2.777827978E0,8.771766424E-1,2.305948362E-2
2.430508958E1,-2.793862581E0,1.002553105E0,7.421794534E-2
2.431424130E1,-2.780576706E0,1.151599765E0,1.010952219E-1
2.432338021E1,-2.728807449E0,1.363258362E0,1.159082651E-1
2.433254469E1,-2.718423128E0,1.625006437E0,1.493521482E-1
2.434169640E1,-2.702846527E0,1.894848228E0,1.353026628E-1
2.435083531E1,-2.603889227E0,2.114600420E0,4.550812021E-2
2.435999979E1,-2.471487999E0,2.187291384E0,-6.291726977E-2
2.436915146E1,-2.353747129E0,2.088181257E0,-1.847812980E-1
2.437830317E1,-2.239060640E0,1.949213624E0,-3.377985358E-1
2.438745489E1,-2.113989592E0,1.877286315E0,-4.535540938E-1
2.439660656E1,-2.036870241E0,1.864763975E0,-4.553866386E-1
2.440574552E1,-2.026943922E0,1.969218850E0,-3.967452943E-1
2.441491000E1,-2.007854939E0,2.159192324E0,-3.564293683E-1
2.442406166E1,-1.946922898E0,2.267617702E0,-2.706053257E-1
2.443320062E1,-1.813758254E0,2.206685781E0,-1.640124917E-1
2.444236510E1,-1.615996480E0,1.978839636E0,-9.712471068E-2
2.445151677E1,-1.426481009E0,1.592478752E0,-7.528692484E-2
2.446065573E1,-1.252847672E0,1.077839971E0,-1.224748790E-1
2.446982020E1,-1.064095974E0,5.416688323E-1,-1.837123185E-1
2.447897187E1,-8.782456517E-1,1.156028435E-1,-2.302894145E-1
2.448811083E1,-7.699729800E-1,-7.773031294E-2,-2.489202619E-1
2.449727531E1,-7.403468490E-1,-7.818844914E-2,-2.475458533E-1
2.450642698E1,-7.360709310E-1,-6.245913357E-2,-2.475458533E-1
2.451556594E1,-7.110261917E-1,-1.250709742E-1,-2.376195788E-1
2.452473041E1,-6.581879258E-1,-2.371614426E-1,-2.339545041E-1
2.453388208E1,-5.829010010E-1,-3.877353072E-1,-2.412846684E-1
2.454302104E1,-5.179984570E-1,-5.485408306E-1,-2.473931462E-1
2.455218552E1,-4.645493329E-1,-6.731536984E-1,-2.444916219E-1
2.456133719E1,-3.710896969E-1,-7.102626562E-1,-2.267770469E-1
2.457047614E1,-3.257342875E-1,-6.574243903E-1,-2.869454920E-1
2.457964057E1,-2.176143378E-1,-5.445703268E-1,-2.875563502E-1
2.458879229E1,-5.879404768E-2,-3.828485310E-1,-2.944283783E-1
2.459793125E1,1.750077456E-1,-1.317902952E-1,-2.935121059E-1
2.460709567E1,4.624113739E-1,1.356080920E-1,-2.812951505E-1
2.461624739E1,8.643488884E-1,2.681619525E-1,-2.939702570E-1
2.462538635E1,1.457176089E0,2.017323077E-1,-2.970244884E-1
2.463455078E1,2.358023167E0,3.329117596E-2,-2.910687327E-1
2.464370250E1,3.649507046E0,8.002099395E-2,-2.612899244E-1
2.465284146E1,5.074766159E0,1.502684206E-1,-2.921377122E-1
2.466200588E1,5.547103882E0,7.285880446E-1,-2.354816198E-1
2.467115760E1,5.173570633E0,1.388608575E0,-2.611372061E-2
2.468029656E1,4.703981876E0,1.201994658E0,2.070772201E-1
2.468946099E1,4.487131119E0,9.727742523E-2,4.468347728E-1
2.469861271E1,4.433071136E0,-1.150378108E0,6.991146803E-1
2.470775166E1,4.434903622E0,-1.572778940E0,9.863656163E-1
2.471691609E1,4.137421131E0,-1.166260123E0,1.227039456E0
2.472606781E1,3.806036472E0,-8.622109294E-1,1.285528064E0
2.473520677E1,3.823903799E0,-8.593093753E-1,1.132358074E0
2.474437120E1,4.147194862E0,-3.510844707E-1,8.638907075E-1
2.475352291E1,4.511870384E0,6.688777357E-2,6.578825116E-1
2.476266187E1,4.492934227E0,-2.386885732E-1,5.008947253E-1
2.477182630E1,4.306015015E0,-9.862129092E-1,3.553603888E-1
2.478097802E1,4.118637562E0,-1.364632726E0,2.548760176E-1
2.479011698E1,4.030064583E0,-1.292705536E0,2.003578991E-1
2.479928140E1,4.008532524E0,-1.350736022E0,1.844758689E-1
2.480843312E1,4.039074898E0,-1.621646762E0,2.263189107E-1
2.481757203E1,4.088400841E0,-1.736333370E0,3.129065037E-1
2.482673651E1,3.990359783E0,-1.668376565E0,3.377985358E-1
2.483588823E1,3.744188309E0,-1.548955917E0,2.724378705E-1
2.484502713E1,3.488548756E0,-1.592020631E0,1.809635013E-1
2.485419161E1,3.299491405E0,-1.704111099E0,8.628217876E-2
2.486334333E1,3.171671629E0,-1.767333865E0,-4.428642802E-3
2.487248224E1,3.044920921E0,-1.753895164E0,-8.903098851E-2
2.488164672E1,2.890071154E0,-1.769624472E0,-1.644706279E-1
2.489079838E1,2.709107637E0,-1.843689680E0,-2.396048307E-1
2.489993734E1,2.488591671E0,-1.953489542E0,-3.187095523E-1
2.490910182E1,2.219360828E0,-2.075200796E0,-3.894151151E-1
2.491825349E1,1.913173556E0,-2.155527353E0,-4.306473136E-1
2.492739245E1,1.594616771E0,-2.213252306E0,-4.561502039E-1
2.493655692E1,1.269646049E0,-2.253720999E0,-4.979932308E-1
2.494570859E1,9.469659925E-1,-2.199661016E0,-5.412106514E-1
2.495484755E1,6.424586177E-1,-1.995790720E0,-5.386145711E-1
2.496401203E1,3.188622594E-1,-1.605612040E0,-4.807367921E-1
2.497316370E1,-1.099525020E-2,-1.081505060E0,-3.735330999E-1
2.498230265E1,-2.918322682E-1,-5.696150661E-1,-1.835595965E-1
2.499146708E1,-4.964661002E-1,-1.899735034E-1,6.749862432E-2
2.500061880E1,-6.342121959E-1,6.749862432E-2,3.038965166E-1
2.500975776E1,-7.343910933E-1,2.115058601E-1,5.204418898E-1
2.501892218E1,-8.606837988E-1,2.644968629E-1,6.868977547E-1
2.502807390E1,-1.049130201E0,3.362714052E-1,8.125795722E-1
2.503721286E1,-1.257123709E0,4.395045936E-1,9.190196991E-1
2.504637729E1,-1.496270418E0,4.605788291E-1,1.013853788E0
2.505552901E1,-1.686702013E0,4.237752855E-1,1.091431379E0
2.506466797E1,-1.687923670E0,3.539859951E-1,1.122584581E0
2.507383239E1,-1.377613306E0,2.735068500E-1,1.066844702E0
2.508298411E1,-7.857022882E-1,1.835595965E-1,9.469659925E-1
2.509212307E1,-3.619270027E-2,-3.206948191E-2,8.046385646E-1
2.510128750E1,8.837432861E-1,-7.131641507E-1,6.858287454E-1
2.511043922E1,9.442171454E-1,-1.675095916E0,6.284091473E-1
2.511957817E1,-8.370134830E-1,-1.877439022E0,4.450022280E-1
2.512874260E1,-2.717506647E0,-7.322531343E-1,5.100574717E-2
2.513789432E1,-3.102035046E0,5.236487985E-1,-2.542651594E-1
2.514703328E1,-2.638554811E0,5.888567567E-1,-2.480039895E-1
2.515619770E1,-1.971051335E0,1.012784719E0,-1.207950488E-1
2.516534942E1,-1.139688253E0,1.268118858E0,5.774033666E-1
2.517448838E1,-9.729269743E-1,-3.410054743E-1,1.865069389E0
2.518365281E1,-1.186418056E0,-2.118112803E0,2.115822077E0
2.519280453E1,-1.984948158E0,-1.163816690E0,2.071077585E0
2.520194344E1,-2.862888336E0,1.293774486E0,1.825517058E0
2.521110791E1,-2.392994165E0,1.556591511E0,1.032331824E0
2.522025958E1,-1.687312841E0,9.921686649E-1,4.845545888E-1
2.522939854E1,-1.616607308E0,7.188144922E-1,5.108210444E-1
2.523856302E1,-1.826280594E0,6.277982593E-1,7.434011102E-1
2.524771469E1,-2.130482435E0,7.684458494E-1,9.437590241E-1
2.525686640E1,-2.333589315E0,1.137092113E0,9.952229261E-1
2.526601812E1,-2.359550238E0,1.404796004E0,8.806890249E-1
2.527516979E1,-2.345348120E0,1.493216157E0,6.908682585E-1
2.528430875E1,-2.333436489E0,1.487107635E0,5.094466209E-1
2.529347317E1,-2.319234371E0,1.435338378E0,3.440597057E-1
2.530262489E1,-2.296938419E0,1.413653255E0,1.898207814E-1
2.531177661E1,-2.278918505E0,1.392731786E0,6.169557199E-2
2.532092828E1,-2.279834747E0,1.393037200E0,-2.993151546E-2
2.533008000E1,-2.293578863E0,1.442668557E0,-1.038440317E-1
2.533921896E1,-2.295105934E0,1.507418275E0,-1.575985998E-1
2.534838338E1,-2.278307676E0,1.563463569E0,-1.765348613E-1
2.535753510E1,-2.261356592E0,1.596143842E0,-1.513374150E-1
2.536667406E1,-2.269908428E0,1.553079128E0,-8.918370306E-2
2.537583849E1,-2.309766293E0,1.499629974E0,-6.413896102E-3
2.538499020E1,-2.330382347E0,1.424495816E0,5.650337040E-2
2.539414192E1,-2.311445951E0,1.295148849E0,9.697200358E-2
2.540329359E1,-2.280903578E0,1.174659252E0,1.070509851E-1
2.541244531E1,-2.238602400E0,1.083032131E0,5.803048983E-2
2.542159698E1,-2.174005508E0,1.000873208E0,-2.886253223E-2
2.543074870E1,-2.061762094E0,9.573503733E-1,-1.183516532E-1
2.543990041E1,-1.886296391E0,9.571976662E-1,-1.977618039E-1
2.544903937E1,-1.655396104E0,9.446752667E-1,-2.816005945E-1
2.545820380E1,-1.362800241E0,8.593093753E-1,-3.454341292E-1
2.546735547E1,-1.028208613E0,7.000309825E-1,-3.820849657E-1
2.547649442E1,-7.224795818E-1,5.415160656E-1,-3.736858070E-1
2.548565890E1,-5.228852630E-1,4.607315361E-1,-3.067980409E-1
2.549481057E1,-4.347705245E-1,4.847072959E-1,-2.037175596E-1
2.550396229E1,-4.190412164E-1,5.929799676E-1,-8.948912472E-2
2.551311401E1,-4.278984964E-1,7.731798887E-1,3.619270027E-2
2.552226567E1,-4.564556181E-1,9.005415440E-1,1.079672500E-1
2.553140463E1,-5.242596865E-1,9.594883323E-1,1.354553849E-1
2.554056911E1,-6.226060390E-1,9.370396733E-1,1.159082651E-1
2.554972078E1,-6.792621613E-1,8.305995464E-1,5.512896553E-2
2.555885974E1,-6.604785919E-1,6.928535104E-1,-2.947338112E-2
2.556802416E1,-5.919110179E-1,5.621321797E-1,-8.261708915E-2
2.557717588E1,-5.225798488E-1,4.071297050E-1,-1.162136942E-1
2.558631484E1,-5.053234100E-1,1.979145110E-1,-1.507265568E-1
2.559547927E1,-5.554128885E-1,3.558185324E-2,-1.956238300E-1
2.560463099E1,-6.287145615E-1,-6.658235192E-2,-2.553341687E-1
2.561378271E1,-7.099572420E-1,-1.429382563E-1,-3.058817685E-1
2.562293437E1,-8.069292307E-1,-1.690519750E-1,-3.321481943E-1
2.563208609E1,-9.184088707E-1,-1.240019947E-1,-3.269560039E-1
2.564122505E1,-1.007439852E0,-2.641914412E-2,-3.049654961E-1
2.565038948E1,-1.015075445E0,5.803048983E-2,-2.782409191E-1
2.565954120E1,-9.394831061E-1,1.336228400E-1,-2.435753495E-1
2.566869286E1,-8.310576677E-1,2.061609477E-1,-2.136438340E-1
2.567784458E1,-7.337802649E-1,2.738122940E-1,-1.994416267E-1
2.568699630E1,-6.702521443E-1,3.275668323E-1,-1.960819662E-1
2.569614797E1,-6.229115129E-1,3.626905680E-1,-1.988307834E-1
2.570529968E1,-5.815265775E-1,3.494046330E-1,-2.131856978E-1
2.571445140E1,-5.297572613E-1,2.933593988E-1,-2.426590770E-1
2.572360307E1,-4.567610323E-1,2.341072112E-1,-3.006895781E-1
2.573275479E1,-3.339807391E-1,1.834068894E-1,-3.791834414E-1
2.574190646E1,-1.371352077E-1,1.140757278E-1,-4.497362971E-1
2.575104541E1,1.392731816E-1,2.825168520E-2,-4.880669713E-1
2.576020989E1,4.020902216E-1,-6.642963737E-2,-4.679090083E-1
2.576936156E1,6.229115129E-1,-1.620272398E-1,-3.397837877E-1
2.577851328E1,7.936432958E-1,-2.327328026E-1,-1.652341783E-1
2.578766500E1,9.388722181E-1,-2.777827978E-1,-1.878355257E-2
2.579681666E1,1.094638348E0,-3.681881726E-1,6.001574174E-2
2.580595562E1,1.313016176E0,-5.315898061E-1,9.575030953E-2
2.581512005E1,1.607902646E0,-7.811209559E-1,9.743013978E-2
2.582427177E1,1.938829184E0,-1.145491362E0,3.283303976E-2
2.583341073E1,2.016559601E0,-1.238645554E0,-8.979454637E-2
2.584257515E1,1.789018869E0,-8.869501948E-1,-2.186833173E-1
2.585172687E1,1.508945465E0,-3.507790267E-1,-2.822114229E-1
2.586087854E1,1.309351087E0,3.095468581E-1,-2.455606014E-1
2.587003026E1,1.119683027E0,1.066081166E0,-1.137702987E-1
2.587918198E1,7.887565494E-1,1.745190620E0,3.848337755E-2
2.588832094E1,3.597890437E-1,2.057028055E0,1.287360638E-1
2.589748536E1,-0.000000000E0,1.898055196E0,1.427855492E-1
2.590663708E1,-2.360924631E-1,1.446028233E0,7.482878864E-2
2.591577599E1,-4.065188468E-1,8.874083757E-1,-2.000524849E-2
2.592494047E1,-5.664080977E-1,3.973561525E-1,-1.093416587E-1
2.593409213E1,-7.343910933E-1,7.009471953E-2,-2.012741715E-1
2.594323109E1,-8.842014074E-1,-1.882936656E-1,-2.686200738E-1
2.595239557E1,-9.975135922E-1,-4.625640810E-1,-2.777827978E-1
2.596154724E1,-1.065623045E0,-7.843278646E-1,-2.516690791E-1
2.597068620E1,-1.066386580E0,-1.072953224E0,-2.038702667E-1
2.597985067E1,-9.990406632E-1,-1.247350097E0,-1.531699449E-1
2.598900234E1,-8.948912621E-1,-1.276518106E0,-1.207950488E-1
2.599814130E1,-7.650861740E-1,-1.173284888E0,-1.186570823E-1
2.600730573E1,-6.029062271E-1,-9.788827300E-1,-9.636115283E-2
2.601645744E1,-3.640649617E-1,-7.421793938E-1,-7.101099193E-2
2.602559640E1,-1.359135192E-2,-4.763081372E-1,-5.192201585E-3
2.603476083E1,3.570402265E-1,-1.275143623E-1,1.058292910E-1
2.604391255E1,5.654918551E-1,3.613161445E-1,2.284568697E-1
2.605305151E1,5.375455618E-1,9.805625677E-1,3.103103936E-1
2.606221594E1,2.185306102E-1,1.671430826E0,3.814741075E-1
2.607136765E1,-3.443651497E-1,2.348707676E0,4.501944184E-1
2.608050661E1,-9.518527389E-1,2.883504391E0,4.650074840E-1
2.608967104E1,-1.286749721E0,3.071340084E0,4.033119082E-1
2.609882276E1,-1.224901438E0,2.818601847E0,2.744231224E-1
2.610796166E1,-8.574768305E-1,2.198439360E0,1.133121699E-1
2.611712614E1,-4.324798584E-1,1.419761777E0,-8.338065445E-2
2.612627781E1,-1.620272398E-1,7.482879162E-1,-2.470877171E-1
2.613541677E1,-6.597150117E-2,2.903051674E-1,-2.851129472E-1
2.614458125E1,-5.299099907E-2,4.779879749E-2,-2.153236568E-1
2.615373291E1,-7.101099193E-2,-7.345438004E-2,-8.353336155E-2
2.616287187E1,-1.311794519E-1,-1.110214889E-1,5.787777901E-2
2.617203635E1,-1.957765520E-1,-8.903098851E-2,1.537808031E-1
2.618118802E1,-1.959292591E-1,-8.108997345E-2,1.739387512E-1
2.619033974E1,-1.554606259E-1,-1.076618284E-1,1.455343664E-1
2.619949140E1,-9.865183383E-2,-1.771457046E-1,9.895725548E-2
2.620864312E1,-4.474456236E-2,-2.531961799E-1,4.749337584E-2
2.621779484E1,-7.941014133E-3,-2.899997234E-1,1.053711493E-2
2.622694651E1,-4.581354442E-4,-2.845021188E-1,-3.054236295E-4
2.623609823E1,-1.496575773E-2,-2.496838123E-1,1.374406274E-3
2.624524989E1,-2.702999115E-2,-2.093679011E-1,1.221694518E-3
2.625440161E1,-4.902049154E-2,-1.582094431E-1,-1.236965694E-2
2.626355333E1,-9.880454093E-2,-8.964183182E-2,-3.237490356E-2
2.627270500E1,-1.522536725E-1,-3.374931216E-2,-5.054761097E-2
2.628185672E1,-1.873773932E-1,-3.191677108E-2,-5.436540768E-2
2.629100844E1,-2.052446753E-1,-5.360184610E-2,-3.802524135E-2
2.630016010E1,-1.989834905E-1,-7.040014863E-2,-8.093725890E-3
2.630931182E1,-1.675248593E-1,-8.108997345E-2,1.664558798E-2
2.631846349E1,-1.293469071E-1,-8.582404256E-2,3.161134571E-2
2.632761520E1,-1.102579311E-1,-8.704573661E-2,3.481829539E-2
2.633676692E1,-1.003316641E-1,-9.300149232E-2,4.153761268E-2
2.634591859E1,-9.712471068E-2,-1.079672500E-1,5.497625470E-2
2.635507031E1,-9.132166207E-2,-1.597365588E-1,6.123743951E-2
2.636422198E1,-9.865183383E-2,-2.128802687E-1,4.535540938E-2
2.637337370E1,-1.076618284E-1,-2.316638231E-1,1.298050396E-2
2.638252541E1,-1.137702987E-1,-2.179197669E-1,-1.343864016E-2
2.639167708E1,-1.183516532E-1,-1.806580722E-1,-2.687728032E-2
2.640082880E1,-1.206423342E-1,-1.391204596E-1,-2.932066843E-2
2.640998047E1,-1.212531775E-1,-1.378987730E-1,-3.359659761E-2
2.641913219E1,-1.207950488E-1,-1.831014603E-1,-4.459185153E-2
2.642828390E1,-1.085781008E-1,-2.356343269E-1,-5.421269313E-2
2.643743557E1,-9.284878522E-2,-2.722851634E-1,-4.795150831E-2
2.644658729E1,-7.727217674E-2,-3.029802442E-1,-2.962609194E-2
2.645573896E1,-7.284353673E-2,-3.335226178E-1,-6.872031838E-3
2.646489067E1,-8.200624585E-2,-3.370349705E-1,7.635590620E-3
2.647404239E1,-8.918370306E-2,-2.973299026E-1,1.985253580E-2
2.648319406E1,-9.009996802E-2,-2.032594234E-1,3.069507517E-2
2.649234578E1,-8.063183725E-2,-8.093725890E-2,3.741439432E-2
2.650149750E1,-5.925218388E-2,7.635590620E-3,4.001049697E-2
2.651064916E1,-3.359659761E-2,3.603998944E-2,3.695625812E-2
2.651980088E1,-8.857285604E-3,1.496575773E-2,2.565558441E-2
2.652895255E1,4.581354442E-4,-4.535540938E-2,1.603474095E-2
2.653810427E1,-1.527118147E-4,-1.175880954E-1,3.817795310E-3
2.654725594E1,-9.162708884E-4,-1.646233350E-1,-4.734066315E-3
2.655640765E1,-9.468132630E-3,-1.803526580E-1,-6.566607859E-3
2.656555937E1,-2.351761982E-2,-1.846285909E-1,-1.832541777E-3
2.657471104E1,-4.077405483E-2,-1.901262105E-1,-3.206948051E-3
2.658386276E1,-5.680879578E-2,-1.803526580E-1,-3.206948051E-3
2.659301442E1,-7.421794534E-2,-1.641651988E-1,-9.162708884E-4
2.660216614E1,-8.857285231E-2,-1.594311297E-1,1.985253533E-3
2.661131786E1,-1.032331884E-1,-1.630962193E-1,2.443389036E-3
2.662046953E1,-1.192679256E-1,-1.569877416E-1,-5.497625098E-3
2.662962125E1,-1.330119967E-1,-1.401894391E-1,-1.725643501E-2
2.663877291E1,-1.386623234E-1,-1.246128380E-1,-2.947338112E-2
2.664792463E1,-1.307213157E-1,-1.113269106E-1,-4.107947648E-2
2.665707635E1,-1.185043678E-1,-9.819369763E-2,-4.764608666E-2
2.666622802E1,-1.020114943E-1,-8.185353130E-2,-4.764608666E-2
2.667537974E1,-8.047912270E-2,-6.795676053E-2,-4.138490185E-2
2.668453140E1,-5.711421743E-2,-6.490252167E-2,-3.145863488E-2
2.669368312E1,-4.245388508E-2,-6.306997687E-2,-1.908897609E-2
2.670283484E1,-2.580829710E-2,-6.062658876E-2,-1.114796288E-2
2.671198651E1,-8.093725890E-3,-5.085303262E-2,-2.443389036E-3
2.672113823E1,1.527118147E-3,-3.817795217E-2,8.704573847E-3
2.673028995E1,7.024743594E-3,-2.596100792E-2,1.481304597E-2
2.673944161E1,1.801999472E-2,-1.634016447E-2,1.603474095E-2
2.674859333E1,2.275406010E-2,-6.108472589E-4,1.374406368E-2
2.675774500E1,3.130592033E-2,1.618745178E-2,7.635590620E-3
2.676689672E1,3.558185324E-2,2.031067200E-2,2.748812549E-3
2.677604838E1,3.451287001E-2,1.007897966E-2,-9.468132630E-3
2.678520010E1,3.542914242E-2,-1.221694518E-2,-2.290677279E-2
2.679435182E1,2.076880634E-2,-3.038965166E-2,-3.206948191E-2
2.680350349E1,-7.635590737E-4,-3.405473381E-2,-3.771981969E-2
2.681265521E1,-1.985253580E-2,-3.176405653E-2,-3.726168349E-2
2.682180687E1,-3.634541109E-2,-4.489727318E-2,-3.130592033E-2
2.683095859E1,-5.161659420E-2,-6.306997687E-2,-2.779355086E-2
2.684011031E1,-6.642963737E-2,-6.856760383E-2,-2.657185495E-2
2.684926198E1,-7.452336699E-2,-6.368082762E-2,-2.305948362E-2
2.685841370E1,-7.085828483E-2,-5.818320066E-2,-2.107422985E-2
2.686756536E1,-5.925218388E-2,-3.710897267E-2,-2.290677279E-2
2.687671708E1,-4.779879749E-2,-1.481304597E-2,-2.901524492E-2
2.688586875E1,-3.619270027E-2,3.206948051E-3,-3.374931216E-2
2.689502047E1,-2.519745007E-2,1.588202827E-2,-3.191677108E-2
2.690417218E1,-2.046338283E-2,2.504473738E-2,-2.932066843E-2
2.691332385E1,-2.290677279E-2,3.771981969E-2,-3.069507517E-2
2.692247557E1,-2.932066843E-2,5.451811850E-2,-2.336490713E-2
2.693162724E1,-2.870982140E-2,5.940489471E-2,-1.298050396E-2
2.694077896E1,-2.932066843E-2,4.611896724E-2,-2.596100792E-3
2.694993067E1,-2.916795574E-2,2.687728032E-2,4.123218823E-3
2.695908234E1,-2.031067200E-2,1.130067464E-2,5.955760833E-3
2.696823406E1,-8.551862091E-3,2.137965523E-3,3.054236295E-3
2.697738573E1,-6.108472589E-4,3.359660041E-3,-3.665083554E-3
2.698653745E1,1.053711493E-2,9.468132630E-3,-1.206423342E-2
2.699568916E1,2.031067200E-2,1.786728203E-2,-1.878355257E-2
2.700484083E1,2.580829710E-2,2.260134928E-2,-2.290677279E-2
2.701399255E1,2.580829710E-2,2.137965336E-2,-2.412846684E-2
2.702314422E1,2.397575416E-2,1.786728203E-2,-2.229592577E-2
2.703229594E1,2.412846684E-2,1.313321572E-2,-1.679829881E-2
2.704144765E1,1.985253580E-2,2.290677279E-3,-1.023169141E-2
2.705059932E1,1.435491070E-2,-5.650337320E-3,-4.123218823E-3