"Time (s)","Gyroscope x (rad/s)","Gyroscope y (rad/s)","Gyroscope z (rad/s)"
1.034282308E1,-2.626643144E-2,-5.650337320E-3,-4.123219103E-2
1.035197469E1,-1.328592747E-2,-1.099525020E-2,-3.451287001E-2
1.036112631E1,6.872031838E-3,3.512371797E-3,-2.641914412E-2
1.037027787E1,1.527118124E-2,2.519745007E-2,-2.382304333E-2
1.037942948E1,1.221694518E-2,2.458660305E-2,-2.764083818E-2
1.038858110E1,6.872031838E-3,1.191152167E-2,-3.008422814E-2
1.039773266E1,6.261184346E-3,-1.527118147E-4,-3.008422814E-2
1.040688427E1,3.206948051E-3,5.955760833E-3,-3.130592033E-2
1.041603589E1,-5.650337320E-3,3.298575059E-2,-3.145863488E-2
1.042518750E1,-1.374406368E-2,4.978405312E-2,-2.840439789E-2
1.043433907E1,-1.313321572E-2,4.810422286E-2,-2.657185495E-2
1.044349068E1,-3.817795310E-3,3.726168349E-2,-2.412846684E-2
1.045264224E1,5.497625098E-3,3.237490356E-2,-2.275406010E-2
1.046179386E1,9.773556143E-3,2.397575416E-2,-2.519745007E-2
1.047094547E1,8.704573847E-3,1.435491070E-2,-2.702999115E-2
1.048009709E1,4.886778072E-3,1.679829881E-2,-2.336490713E-2
1.048924865E1,5.497625098E-3,2.580829710E-2,-1.236965694E-2
1.049840026E1,1.068982668E-2,4.825693369E-2,-5.650337320E-3
1.050755188E1,1.389677543E-2,4.520269856E-2,-7.482878864E-3
1.051670344E1,1.420219894E-2,1.435491070E-2,-1.359135192E-2
1.052585506E1,1.084253844E-2,-1.817270555E-2,-1.786728203E-2
1.053500667E1,4.734066315E-3,-3.084778599E-2,-1.725643501E-2
1.054415823E1,-2.137965523E-3,-1.695101149E-2,-1.542389300E-2
1.055330985E1,-5.497625098E-3,1.252236869E-2,-1.481304597E-2
1.056246146E1,4.581354442E-4,2.641914412E-2,-1.542389300E-2
1.057161302E1,9.315420873E-3,9.009997360E-3,-1.725643501E-2
1.058076464E1,1.084253844E-2,-1.634016447E-2,-1.908897609E-2
1.058991625E1,8.399149403E-3,-2.596100792E-2,-1.908897609E-2
1.059906782E1,4.581354558E-3,-1.878355257E-2,-1.603474095E-2
1.060821943E1,7.635590737E-4,-1.832541777E-3,-1.053711493E-2
1.061737104E1,3.206948051E-3,2.901524538E-3,-8.093725890E-3
1.062652266E1,4.428642802E-3,-1.023169141E-2,-7.482878864E-3
1.063567422E1,2.748812549E-3,-2.107422985E-2,-6.872031838E-3
1.064482584E1,-2.748812549E-3,-3.497100621E-2,-5.650337320E-3
1.065397745E1,-5.039489828E-3,-4.169032723E-2,-6.872031838E-3
1.066312901E1,-6.413896102E-3,-3.084778599E-2,-7.482878864E-3
1.067228063E1,-5.344913341E-3,-1.145338640E-2,-8.704573847E-3
1.068143224E1,-7.330167107E-3,2.901524538E-3,-9.926267900E-3
1.069058381E1,-7.330167107E-3,2.290677279E-3,-1.359135192E-2
1.069973542E1,-7.177455351E-3,-9.773556143E-3,-1.725643501E-2
1.070888704E1,-5.192201585E-3,-2.412846684E-2,-1.725643501E-2
1.071803865E1,-6.413896102E-3,-3.329117596E-2,-1.420219894E-2
1.072719021E1,-8.246437646E-3,-2.779355086E-2,-7.482878864E-3
1.073634183E1,-4.734066315E-3,-6.719320081E-3,-3.206948051E-3
1.074549344E1,6.108472589E-4,7.788302377E-3,-2.596100792E-3
1.075464500E1,1.175880991E-2,9.620844387E-3,-5.039489828E-3
1.076379662E1,2.229592577E-2,-4.123218823E-3,-7.941014133E-3
1.077294823E1,2.061609551E-2,-2.107422985E-2,-7.330167107E-3
1.078209980E1,9.620844387E-3,-2.596100792E-2,-4.428642802E-3
1.079125141E1,5.192201585E-3,-2.412846684E-2,-3.206948051E-3
1.080040302E1,3.359660041E-3,-1.328592747E-2,-4.428642802E-3
1.080955464E1,-4.581354442E-4,1.221694518E-3,-3.206948051E-3
1.081870620E1,-1.985253533E-3,1.924168877E-2,-1.527118147E-4
1.082785782E1,-5.803049076E-3,3.313846514E-2,4.581354558E-3
1.083700943E1,-1.572931744E-2,4.092676565E-2,5.803049076E-3
1.084616099E1,-2.977880463E-2,3.130592033E-2,5.650337320E-3
1.085531261E1,-3.268032894E-2,9.620844387E-3,4.428642802E-3
1.086446422E1,-2.137965336E-2,-1.023169141E-2,9.162708884E-4
1.087361584E1,-9.009997360E-3,-1.695101149E-2,-3.970507067E-3
1.088276740E1,-7.177455351E-3,-9.162709117E-3,-5.039489828E-3
1.089191901E1,-1.343864016E-2,6.566607859E-3,-5.192201585E-3
1.090107063E1,-1.801999472E-2,2.764083818E-2,-4.581354558E-3
1.091022219E1,-1.206423342E-2,4.031591862E-2,-2.137965523E-3
1.091937381E1,1.527118147E-3,3.909422457E-2,1.679830020E-3
1.092852542E1,1.343864016E-2,2.718270384E-2,7.788302377E-3
1.093767698E1,1.649287529E-2,1.389677543E-2,1.206423342E-2
1.094682860E1,7.482878864E-3,-6.566607859E-3,7.177455351E-3
1.095598021E1,-1.527118147E-3,-2.779355086E-2,4.581354442E-4
1.096513183E1,-3.970507067E-3,-3.191677108E-2,-3.817795310E-3
1.097428339E1,-5.192201585E-3,-2.657185495E-2,-6.872031838E-3
1.098343500E1,-1.007897966E-2,-2.657185495E-2,-1.236965694E-2
1.099258662E1,-1.007897966E-2,-3.023693897E-2,-1.298050396E-2
1.100173823E1,-9.468132630E-3,-2.122694254E-2,-1.481304597E-2
1.101088980E1,-5.955760833E-3,-9.162709117E-3,-1.298050396E-2
1.102004141E1,-4.123218823E-3,-9.773556143E-3,-9.926267900E-3
1.102919302E1,-4.581354558E-3,-2.535016090E-2,-1.114796288E-2
1.103834459E1,-1.236965694E-2,-5.436540768E-2,-1.053711493E-2
1.104749620E1,-2.275406010E-2,-7.177454978E-2,-1.252236869E-2
1.105664782E1,-3.573456407E-2,-6.276455522E-2,-1.023169141E-2
1.106579943E1,-4.657710344E-2,-2.305948362E-2,-7.177455351E-3
1.107495099E1,-4.566083103E-2,9.468132630E-3,-7.177455351E-3
1.108410261E1,-2.764083818E-2,7.177455351E-3,-1.328592747E-2
1.109325422E1,-8.399149403E-3,-1.832541777E-3,-1.679829881E-2
1.110240578E1,2.137965523E-3,-1.389677543E-2,-1.786728203E-2
1.111155740E1,-1.527118147E-3,-1.756185852E-2,-1.420219894E-2
1.112070901E1,-1.267508045E-2,-1.099525020E-2,-8.857285604E-3
1.112986063E1,-2.153236605E-2,-6.108472589E-3,-2.137965523E-3
1.113901219E1,-2.031067200E-2,-4.886778072E-3,-2.137965523E-3
1.114816381E1,-1.038440317E-2,-3.054236295E-3,-5.803049076E-3
1.115731542E1,-6.719320081E-3,-1.832541777E-3,-9.926267900E-3
1.116646704E1,-1.527118124E-2,-1.374406274E-3,-1.252236869E-2
1.117561860E1,-2.764083818E-2,-1.527118147E-4,-1.679829881E-2
1.118477021E1,-3.817795217E-2,3.970507067E-3,-1.695101149E-2
1.119392183E1,-4.489727318E-2,1.007897966E-2,-1.634016447E-2
1.120307339E1,-4.627167806E-2,2.580829710E-2,-1.206423342E-2
1.121222500E1,-4.092676565E-2,4.321744293E-2,-8.399149403E-3
1.122137662E1,-3.038965166E-2,3.374931216E-2,-7.788302377E-3
1.123052823E1,-2.092151903E-2,1.374406368E-2,-5.803049076E-3
1.123967980E1,-1.527118124E-2,-0.000000000E0,-3.359660041E-3
1.124883141E1,-1.038440317E-2,-6.108472589E-4,-9.162708884E-4
1.125798302E1,-8.704573847E-3,1.084253844E-2,9.162708884E-4
1.126713459E1,-5.039489828E-3,1.374406368E-2,-1.374406274E-3
1.127628620E1,-1.221694518E-3,5.344913341E-3,-1.985253533E-3
1.128543782E1,3.817795310E-3,-6.108472589E-3,-3.817795310E-3
1.129458943E1,6.261184346E-3,-4.275931045E-3,-3.817795310E-3
1.130374099E1,5.650337320E-3,1.221694518E-3,-1.527118147E-4
1.131289261E1,4.886778072E-3,5.955760833E-3,1.068982761E-3
1.132204422E1,2.443389036E-3,1.267508045E-2,4.581354442E-4
1.133119584E1,-6.108472589E-4,4.123218823E-3,-1.374406274E-3
1.134034740E1,-2.443389036E-3,6.108472589E-4,-2.596100792E-3
1.134949901E1,-4.275931045E-3,7.177455351E-3,1.068982761E-3
1.135865063E1,-6.261184346E-3,1.511846948E-2,4.581354558E-3
1.136780224E1,-1.053711493E-2,1.450762246E-2,3.970507067E-3
1.137695381E1,-1.175880991E-2,4.734066315E-3,1.527118147E-3
1.138610542E1,-6.719320081E-3,1.679830020E-3,9.162708884E-4
1.139525704E1,-3.665083554E-3,3.512371797E-3,-7.635590737E-4
1.140440865E1,-2.443389036E-3,1.221694518E-3,-1.527118147E-4
1.141356021E1,-2.901524538E-3,-5.497625098E-3,4.581354442E-4
1.142271183E1,-1.679830020E-3,-6.108472589E-3,4.123218823E-3
1.143186344E1,-6.108472589E-4,2.443389036E-3,6.566607859E-3
1.144101506E1,-1.832541777E-3,-2.443389036E-3,6.566607859E-3
1.145016662E1,-4.581354442E-4,-9.009997360E-3,4.123218823E-3
1.145931823E1,7.635590737E-4,-7.330167107E-3,3.512371797E-3
1.146846985E1,0.000000000E0,1.221694518E-3,3.512371797E-3
1.147762141E1,-4.428642802E-3,1.496575773E-2,3.512371797E-3
1.148677302E1,-4.428642802E-3,2.412846684E-2,8.246437646E-3
1.149592464E1,-4.734066315E-3,4.291202128E-2,1.313321572E-2
1.150507625E1,7.635590737E-4,5.238015205E-2,1.496575773E-2
1.151422782E1,8.399149403E-3,3.145863488E-2,1.145338640E-2
1.152337943E1,1.175880991E-2,3.665083554E-3,8.399149403E-3
1.153253104E1,1.175880991E-2,-7.788302377E-3,1.023169141E-2
1.154168266E1,4.428642802E-3,-6.566607859E-3,1.389677543E-2
1.155083422E1,2.443389036E-3,1.832541777E-3,1.206423342E-2
1.155998584E1,8.551862091E-3,1.511846948E-2,1.267508045E-2
1.156913745E1,1.588202827E-2,2.412846684E-2,8.399149403E-3
1.157828907E1,2.076880634E-2,2.290677279E-2,4.275931045E-3
1.158744063E1,1.893626526E-2,2.290677279E-2,5.497625098E-3
1.159659224E1,1.343864016E-2,1.985253580E-2,1.145338640E-2
1.160574386E1,4.734066315E-3,1.756185852E-2,1.695101149E-2
1.161489547E1,-9.162708884E-4,2.535016090E-2,2.061609551E-2
1.162404704E1,-3.054236295E-4,3.252761811E-2,2.428117767E-2
1.163319865E1,1.282779220E-2,1.267508045E-2,2.550287358E-2
1.164235026E1,2.672456764E-2,-2.641914412E-2,2.076880634E-2
1.165150188E1,3.374931216E-2,-4.810422286E-2,1.053711493E-2
1.166065344E1,3.130592033E-2,-5.054761097E-2,4.275931045E-3
1.166980506E1,2.382304333E-2,-4.031591862E-2,4.275931045E-3
1.167895667E1,2.367033064E-2,-1.496575773E-2,4.886778072E-3
1.168810828E1,3.512371704E-2,1.038440317E-2,5.497625098E-3
1.169725985E1,4.367557913E-2,1.756185852E-2,6.872031838E-3
1.170641146E1,4.306473210E-2,6.719320081E-3,1.236965694E-2
1.171556308E1,3.634541109E-2,-1.679830020E-3,1.710372418E-2
1.172471469E1,2.596100792E-2,-2.290677279E-3,1.832541823E-2
1.173386625E1,1.618745178E-2,-1.863084175E-2,1.466033421E-2
1.174301787E1,1.145338640E-2,-3.970507160E-2,7.330167107E-3
1.175216948E1,6.566607859E-3,-4.764608666E-2,-1.527118147E-4
1.176132110E1,4.734066315E-3,-4.337015375E-2,-5.650337320E-3
1.177047266E1,2.290677279E-3,-3.252761811E-2,-4.428642802E-3
1.177962427E1,-3.512371797E-3,-1.634016447E-2,-4.428642802E-3
1.178877589E1,-4.123218823E-3,-7.941014133E-3,-4.428642802E-3
1.179792750E1,5.803049076E-3,-2.168507688E-2,-5.650337320E-3
1.180707912E1,1.786728203E-2,-5.115845799E-2,-4.886778072E-3
1.181623068E1,2.229592577E-2,-7.467607409E-2,-6.108472589E-3
1.182538230E1,1.679829881E-2,-8.444963396E-2,-3.665083554E-3
1.183453391E1,7.330167107E-3,-5.971032009E-2,4.581354442E-4
1.184368552E1,3.970507067E-3,-1.801999472E-2,3.512371797E-3
1.185283709E1,5.650337320E-3,-6.566607859E-3,3.512371797E-3
1.186198870E1,7.024743594E-3,-1.634016447E-2,1.679830020E-3
1.187114032E1,1.007897966E-2,-1.985253580E-2,2.290677279E-3
1.188029193E1,1.252236869E-2,-1.695101149E-2,4.123218823E-3
1.188944349E1,5.955760833E-3,-3.130592033E-2,1.068982761E-3
1.189859511E1,8.704573847E-3,-6.383354217E-2,-3.206948051E-3
1.190774672E1,2.061609551E-2,-8.261708915E-2,-3.665083554E-3
1.191689834E1,3.283303976E-2,-8.078455180E-2,-2.290677279E-3
1.192604990E1,3.206948191E-2,-6.444438547E-2,-2.290677279E-3
1.193520151E1,2.214321308E-2,-4.993676394E-2,-4.275931045E-3
1.194435313E1,1.343864016E-2,-4.337015375E-2,-4.886778072E-3
1.195350474E1,1.099525020E-2,-4.459185153E-2,-2.443389036E-3
1.196265631E1,4.123218823E-3,-3.802524135E-2,-1.985253533E-3
1.197180792E1,-5.803049076E-3,-2.718270384E-2,-5.039489828E-3
1.198095954E1,-1.695101149E-2,-3.023693897E-2,-4.581354558E-3
1.199011115E1,-2.672456764E-2,-3.863608837E-2,-5.803049076E-3
1.199926276E1,-3.481829539E-2,-3.268032894E-2,-4.123218823E-3
1.200841433E1,-3.603998944E-2,-2.489202656E-2,-5.955760833E-3
1.201756594E1,-3.176405653E-2,-2.550287358E-2,-9.009997360E-3
1.202671756E1,-2.489202656E-2,-3.451287001E-2,-1.007897966E-2
1.203586917E1,-2.473931387E-2,-4.596625641E-2,-1.130067464E-2
1.204502073E1,-1.863084175E-2,-4.046862945E-2,-1.068982668E-2
1.205417235E1,-1.511846948E-2,-2.290677279E-2,-9.468132630E-3
1.206332396E1,-2.137965336E-2,-1.511846948E-2,-7.024743594E-3
1.207247558E1,-3.374931216E-2,-1.572931744E-2,-2.901524538E-3
1.208162719E1,-4.001049697E-2,-3.054236295E-3,1.527118147E-4
1.209077875E1,-3.894151375E-2,1.374406368E-2,3.206948051E-3
1.209993037E1,-4.321744293E-2,1.679829881E-2,4.428642802E-3
1.210908198E1,-4.688252881E-2,1.252236869E-2,2.596100792E-3
1.211823360E1,-4.810422286E-2,1.374406368E-2,-6.108472589E-4
1.212738516E1,-5.558710173E-2,2.458660305E-2,-1.221694518E-3
1.213653677E1,-6.429167092E-2,3.115320951E-2,-2.443389036E-3
1.214568839E1,-6.612421572E-2,2.214321308E-2,-1.832541777E-3
1.215484000E1,-5.665608495E-2,7.635590620E-3,-1.832541777E-3
1.216399162E1,-5.115845799E-2,1.374406368E-2,-6.108472589E-4
1.217314318E1,-5.497625470E-2,2.580829710E-2,1.221694518E-3
1.218229480E1,-6.917845458E-2,2.825168520E-2,3.512371797E-3
1.219144641E1,-8.154810965E-2,2.993151546E-2,5.344913341E-3
1.220059802E1,-8.292251825E-2,4.153761268E-2,7.788302377E-3
1.220974964E1,-8.124268800E-2,5.833591148E-2,9.009997360E-3
1.221890120E1,-8.124268800E-2,6.139015034E-2,7.788302377E-3
1.222805282E1,-8.124268800E-2,5.894676223E-2,9.009997360E-3
1.223720443E1,-6.963659078E-2,6.673506647E-2,1.023169141E-2
1.224635604E1,-4.795150831E-2,5.955760926E-2,1.099525020E-2
1.225550761E1,-3.237490356E-2,4.703523964E-2,1.420219894E-2
1.226465922E1,-2.748812735E-2,4.398100078E-2,1.603474095E-2
1.227381084E1,-2.244863659E-2,3.619270027E-2,1.557660475E-2
1.228296245E1,-1.939439960E-2,2.641914412E-2,1.374406368E-2
1.229211407E1,-1.878355257E-2,3.313846514E-2,1.496575773E-2
1.230126563E1,-2.260134928E-2,4.825693369E-2,1.664558798E-2
1.231041724E1,-2.702999115E-2,6.444438547E-2,1.725643501E-2
1.231956886E1,-3.512371704E-2,7.284353673E-2,1.847812906E-2
1.232872047E1,-3.817795217E-2,7.162184268E-2,1.664558798E-2
1.233787209E1,-3.313846514E-2,6.139015034E-2,1.359135192E-2
1.234702370E1,-2.504473738E-2,4.581354558E-2,1.053711493E-2
1.235617526E1,-1.756185852E-2,3.558185324E-2,9.468132630E-3
1.236532688E1,-1.007897966E-2,2.947338112E-2,8.246437646E-3
1.237447849E1,-7.024743594E-3,2.886253223E-2,7.024743594E-3
1.238363011E1,-6.413896102E-3,3.069507517E-2,8.857285604E-3
1.239278167E1,-6.413896102E-3,2.535016090E-2,9.468132630E-3
1.240193328E1,-6.261184346E-3,1.206423342E-2,8.246437646E-3
1.241108490E1,-9.315420873E-3,1.832541777E-3,9.468132630E-3
1.242023651E1,-9.315420873E-3,0.000000000E0,1.191152167E-2
1.242938813E1,-6.261184346E-3,5.497625098E-3,1.435491070E-2
1.243853969E1,-3.206948051E-3,1.985253580E-2,1.572931744E-2
1.244769131E1,-3.359660041E-3,2.886253223E-2,1.389677543E-2
1.245684292E1,-5.803049076E-3,3.008422814E-2,1.252236869E-2
1.246599454E1,-1.007897966E-2,2.947338112E-2,1.007897966E-2
1.247514615E1,-1.007897966E-2,2.535016090E-2,8.246437646E-3
1.248429771E1,-8.093725890E-3,1.634016447E-2,1.191152167E-2
1.249344933E1,-6.261184346E-3,1.634016447E-2,1.618745178E-2
1.250260094E1,-1.374406274E-3,1.801999472E-2,1.572931744E-2
1.251175256E1,-0.000000000E0,7.941014133E-3,1.084253844E-2
1.252090417E1,0.000000000E0,-3.665083554E-3,9.620844387E-3
1.253005573E1,-3.665083554E-3,1.832541777E-3,1.084253844E-2
1.253920735E1,-9.926267900E-3,4.123218823E-3,1.130067464E-2
1.254835896E1,-1.542389300E-2,6.566607859E-3,1.130067464E-2
1.255751058E1,-1.725643501E-2,6.566607859E-3,7.635590620E-3
1.256666219E1,-1.664558798E-2,9.620844387E-3,5.803049076E-3
1.257581375E1,-1.618745178E-2,1.679829881E-2,5.803049076E-3
1.258496537E1,-1.740914769E-2,1.924168877E-2,4.581354558E-3
1.259411698E1,-1.481304597E-2,1.206423342E-2,2.137965523E-3
1.260326860E1,-1.099525020E-2,4.123218823E-3,9.162708884E-4
1.261242021E1,-2.901524538E-3,-7.788302377E-3,4.581354442E-4
1.262157177E1,-1.679830020E-3,-1.023169141E-2,4.581354442E-4
1.263072339E1,-9.162709117E-3,-5.497625098E-3,3.359660041E-3
1.263987500E1,-1.725643501E-2,0.000000000E0,7.024743594E-3
1.264902662E1,-1.786728203E-2,0.000000000E0,1.007897966E-2
1.265817823E1,-1.221694518E-2,-6.108472589E-4,9.468132630E-3
1.266732985E1,-1.282779220E-2,-1.450762246E-2,3.359660041E-3
1.267648141E1,-1.511846948E-2,-2.718270384E-2,-3.359660041E-3
1.268563302E1,-6.413896102E-3,-2.473931387E-2,-8.093725890E-3
1.269478464E1,3.970507067E-3,-8.551862091E-3,-1.542389300E-2
1.270393625E1,-1.175880991E-2,2.641914412E-2,-2.290677279E-2
1.271308787E1,-3.741439432E-2,7.040014863E-2,-2.305948362E-2
1.272223943E1,-5.360184610E-2,8.414421231E-2,-1.710372418E-2
1.273139104E1,-5.589252338E-2,6.139015034E-2,-1.038440317E-2
1.274054266E1,-5.390727147E-2,4.092676565E-2,-7.330167107E-3
1.274969427E1,-3.588727489E-2,2.580829710E-2,-9.009997360E-3
1.275884589E1,-9.162709117E-3,7.177455351E-3,-1.068982668E-2
1.276799750E1,5.803049076E-3,-7.941014133E-3,-1.359135192E-2
1.277714907E1,9.162708884E-4,-1.572931744E-2,-1.420219894E-2
1.278630068E1,-1.679830020E-3,-2.443389036E-3,-1.481304597E-2
1.279545230E1,4.886778072E-3,1.985253580E-2,-1.664558798E-2
1.280460391E1,1.710372418E-2,3.298575059E-2,-1.969982497E-2
1.281375552E1,2.137965336E-2,3.481829539E-2,-1.588202827E-2
1.282290709E1,2.504473738E-2,3.252761811E-2,-6.719320081E-3
1.283205870E1,2.870982140E-2,3.497100621E-2,4.275931045E-3
1.284121032E1,2.687728032E-2,3.497100621E-2,9.773556143E-3
1.285036193E1,2.183778957E-2,3.924693540E-2,1.404948719E-2
1.285951354E1,2.351761982E-2,5.741964281E-2,1.527118124E-2
1.286866516E1,2.641914412E-2,7.482878864E-2,1.343864016E-2
1.287781672E1,2.336490713E-2,8.322793990E-2,1.023169141E-2
1.288696834E1,1.954711229E-2,9.345962852E-2,8.399149403E-3
1.289611995E1,2.397575416E-2,9.345962852E-2,4.123218823E-3
1.290527157E1,3.161134571E-2,6.383354217E-2,-5.497625098E-3
1.291442318E1,3.756710514E-2,2.947338112E-2,-1.160609815E-2
1.292357480E1,3.817795217E-2,7.788302377E-3,-1.145338640E-2
1.293272636E1,2.535016090E-2,3.665083554E-3,-1.038440317E-2
1.294187797E1,4.886778072E-3,2.229592577E-2,-1.053711493E-2
1.295102959E1,-6.413896102E-3,3.787253052E-2,-1.130067464E-2
1.296018120E1,-3.970507067E-3,3.848337755E-2,-1.679829881E-2
1.296933282E1,1.068982761E-3,3.603998944E-2,-2.519745007E-2
1.297848443E1,1.832541777E-3,2.932066843E-2,-3.680354729E-2
1.298763599E1,1.832541777E-3,2.382304333E-2,-4.535540938E-2
1.299678761E1,4.275931045E-3,2.321219631E-2,-4.779879749E-2
1.300593922E1,5.497625098E-3,3.054236248E-2,-4.474456236E-2
1.301509084E1,1.084253844E-2,5.161659420E-2,-3.802524135E-2
1.302424245E1,2.000524849E-2,6.184828654E-2,-3.313846514E-2
1.303339407E1,2.443389036E-2,5.115845799E-2,-3.298575059E-2
1.304254563E1,2.153236605E-2,3.008422814E-2,-3.481829539E-2
1.305169724E1,2.092151903E-2,1.908897609E-2,-3.603998944E-2
1.306084886E1,2.519745007E-2,3.542914242E-2,-3.726168349E-2
1.307000047E1,2.932066843E-2,5.833591148E-2,-3.787253052E-2
1.307915209E1,2.672456764E-2,6.978929788E-2,-3.970507160E-2
1.308830370E1,1.939439960E-2,6.673506647E-2,-4.642439261E-2
1.309745526E1,1.572931744E-2,6.001574174E-2,-5.329642445E-2
1.310660688E1,1.832541823E-2,5.757235363E-2,-5.925218388E-2
1.311575849E1,2.489202656E-2,7.330167294E-2,-5.619794875E-2
1.312491011E1,2.901524492E-2,9.086353332E-2,-5.008947477E-2
1.313406172E1,3.161134571E-2,8.063183725E-2,-4.764608666E-2
1.314321334E1,2.886253223E-2,5.115845799E-2,-4.947862774E-2
1.315236490E1,2.153236605E-2,3.894151375E-2,-5.131116882E-2
1.316151651E1,1.649287529E-2,5.222744122E-2,-5.268557742E-2
1.317066813E1,1.695101149E-2,6.490252167E-2,-5.573981255E-2
1.317981974E1,2.550287358E-2,7.146912813E-2,-5.925218388E-2
1.318897136E1,3.481829539E-2,7.146912813E-2,-6.169557199E-2
1.319812297E1,3.909422457E-2,8.108997345E-2,-6.536065787E-2
1.320727454E1,5.008947477E-2,8.658760041E-2,-6.765133142E-2
1.321642615E1,6.032116711E-2,6.184828654E-2,-7.192726433E-2
1.322557776E1,5.925218388E-2,3.359659761E-2,-7.360709459E-2
1.323472938E1,4.459185153E-2,2.748812735E-2,-7.498150319E-2
1.324388099E1,2.901524492E-2,4.795150831E-2,-7.330167294E-2
1.325303261E1,2.061609551E-2,8.047912270E-2,-7.391251624E-2
1.326218422E1,2.535016090E-2,1.082726792E-1,-7.391251624E-2
1.327133579E1,3.466558084E-2,1.088835225E-1,-7.818844914E-2
1.328048740E1,4.153761268E-2,8.597674966E-2,-8.475505561E-2
1.328963901E1,3.680354729E-2,6.536065787E-2,-8.979454637E-2
1.329879063E1,2.031067200E-2,5.925218388E-2,-9.300149232E-2
1.330794224E1,-7.482878864E-3,6.047387794E-2,-9.559759498E-2
1.331709386E1,-2.901524492E-2,6.948387623E-2,-1.018587798E-1
1.332624542E1,-3.481829539E-2,8.383878320E-2,-1.055238619E-1
1.333539704E1,-2.061609551E-2,8.933641016E-2,-1.084253863E-1
1.334454865E1,-8.704573847E-3,7.910472155E-2,-1.145338640E-1
1.335370026E1,-1.221694518E-3,7.177454978E-2,-1.211004704E-1
1.336285188E1,9.315420873E-3,6.642963737E-2,-1.229330078E-1
1.337200349E1,2.611372061E-2,5.375456065E-2,-1.246128380E-1
1.338115506E1,5.146388337E-2,3.817795217E-2,-1.250709742E-1
1.339030667E1,7.941014320E-2,2.076880634E-2,-1.255291104E-1
1.339945829E1,1.151447073E-1,8.093725890E-3,-1.240019947E-1
1.340860990E1,1.595838517E-1,7.635590620E-3,-1.212531775E-1
1.341776151E1,2.119639963E-1,6.413896102E-3,-1.195733473E-1
1.342691313E1,2.655658424E-1,6.108472589E-4,-1.162136942E-1
1.343606474E1,3.223746419E-1,-1.068982668E-2,-1.145338640E-1
1.344521631E1,3.836120665E-1,-3.420744836E-2,-1.140757278E-1
1.345436792E1,4.437805414E-1,-7.207997888E-2,-1.148392856E-1
1.346351954E1,4.995203316E-1,-1.068982705E-1,-1.163664013E-1
1.347267115E1,5.483881235E-1,-1.290414780E-1,-1.140757278E-1
1.348182276E1,5.909947157E-1,-1.327065676E-1,-1.094943732E-1
1.349097438E1,6.265766025E-1,-1.204896197E-1,-1.038440317E-1
1.350012599E1,6.627692580E-1,-1.102579311E-1,-9.437590092E-2
1.350927761E1,6.954495907E-1,-1.166718230E-1,-8.261708915E-2
1.351842917E1,7.288935184E-1,-1.449235082E-1,-7.375980914E-2
1.352758079E1,7.606575489E-1,-1.805053651E-1,-6.856760383E-2
1.353673240E1,7.919634581E-1,-2.261662036E-1,-7.024743408E-2
1.354588401E1,8.307522535E-1,-2.912214398E-1,-7.849387079E-2
1.355503563E1,8.851176500E-1,-3.671191931E-1,-9.071081877E-2
1.356418724E1,9.529217482E-1,-4.442386627E-1,-9.941539168E-2
1.357333886E1,1.030041218E0,-5.091412067E-1,-1.018587798E-1
1.358249042E1,1.116628766E0,-5.402944088E-1,-1.000262350E-1
1.359164204E1,1.218945742E0,-5.419742465E-1,-9.071081877E-2
1.360079365E1,1.331494331E0,-5.267030597E-1,-7.956285775E-2
1.360994526E1,1.443432093E0,-5.065450668E-1,-7.024743408E-2
1.361909688E1,1.535059214E0,-4.924955964E-1,-6.597150117E-2
1.362823573E1,1.604695797E0,-4.882196784E-1,-6.673506647E-2
1.363740011E1,1.659672022E0,-4.935645759E-1,-6.627693027E-2
1.364655167E1,1.722589254E0,-4.886777997E-1,-6.398624927E-2
1.365570329E1,1.812842011E0,-4.541649222E-1,-6.154286116E-2
1.366485490E1,1.925696015E0,-3.930802047E-1,-6.139015034E-2
1.367400651E1,2.042215109E0,-3.307738006E-1,-5.573981255E-2
1.368315813E1,2.135522127E0,-2.877090573E-1,-3.924693540E-2
1.369230974E1,2.189734697E0,-2.930539846E-1,-2.428117767E-2
1.370146136E1,2.214779377E0,-3.436015844E-1,-1.374406274E-3
1.371061297E1,2.235090017E0,-4.205683470E-1,1.099525020E-2
1.371976454E1,2.272962570E0,-4.501944184E-1,-7.024743594E-3
1.372891615E1,2.329618692E0,-4.375193417E-1,-1.710372418E-2
1.373806776E1,2.392383337E0,-4.097257853E-1,-4.596625641E-2
1.374721938E1,2.430408478E0,-3.683409095E-1,-8.780929446E-2
1.375637099E1,2.442320108E0,-3.935383558E-1,-7.605048269E-2
1.376552261E1,2.426743507E0,-4.811949134E-1,-1.206423342E-2
1.377467422E1,2.389023542E0,-5.589252710E-1,4.199574888E-2
1.378382584E1,2.344279051E0,-5.764871240E-1,3.374931216E-2
1.379296469E1,2.295411348E0,-6.152759194E-1,1.679830020E-3
1.380212901E1,2.265174389E0,-6.737645268E-1,-1.298050396E-2
1.381128063E1,2.283499718E0,-7.979192138E-1,-8.551862091E-3
1.382041948E1,2.325037479E0,-9.587247968E-1,-1.359135192E-2
1.382958386E1,2.356190681E0,-1.049282908E0,-5.176930502E-2
1.383873547E1,2.387343884E0,-1.066844702E0,-9.865183383E-2
1.384788709E1,2.414984703E0,-1.048213840E0,-1.307213157E-1
1.385703870E1,2.430408478E0,-1.053100705E0,-1.331647038E-1
1.386619032E1,2.444763422E0,-1.085475564E0,-1.000262350E-1
1.387534188E1,2.449039459E0,-1.086544514E0,-5.360184610E-2
1.388449349E1,2.413304806E0,-1.052031636E0,4.734066315E-3
1.389364511E1,2.323357582E0,-1.020573020E0,7.070557028E-2
1.390279672E1,2.205464125E0,-9.662076235E-1,1.302631795E-1
1.391194834E1,2.102230787E0,-8.733588457E-1,1.710372269E-1
1.392109995E1,2.042673349E0,-7.685985565E-1,1.936385781E-1
1.393025157E1,2.012894392E0,-6.853706241E-1,1.994416267E-1
1.393940318E1,1.994874477E0,-6.577298045E-1,1.951656938E-1
1.394855474E1,1.997470498E0,-6.878139973E-1,1.969982386E-1
1.395770636E1,1.994874477E0,-7.444701195E-1,2.055501044E-1
1.396685797E1,1.960056186E0,-7.632536292E-1,1.973036677E-1
1.397600959E1,1.881714940E0,-7.501204610E-1,1.754658818E-1
1.398516120E1,1.768860936E0,-7.498149872E-1,1.696628332E-1
1.399431282E1,1.638903141E0,-7.745543122E-1,1.944021434E-1
1.400346443E1,1.498713732E0,-8.266290426E-1,2.209739983E-1
1.401261605E1,1.375017166E0,-8.532009125E-1,2.189887464E-1
1.402176766E1,1.276518106E0,-7.884510756E-1,1.907370538E-1
1.403091922E1,1.202147365E0,-6.507050395E-1,1.620272398E-1
1.404007084E1,1.152210593E0,-5.050179958E-1,1.432436854E-1
1.404922245E1,1.110520363E0,-3.773508966E-1,1.409530044E-1
1.405837407E1,1.035691500E0,-2.942756712E-1,1.557660550E-1
1.406752568E1,9.168817401E-1,-2.588465214E-1,1.762294322E-1
1.407667730E1,7.910472155E-1,-2.522799075E-1,2.015796006E-1
1.408582891E1,6.700994372E-1,-2.499892414E-1,2.202104330E-1
1.409498052E1,5.729747415E-1,-2.151709497E-1,2.244863659E-1
1.410413214E1,4.934118688E-1,-1.363716573E-1,2.208212912E-1
1.411328375E1,4.158342779E-1,-7.559234649E-2,2.263189107E-1
1.412243532E1,3.425326049E-1,-9.193251282E-2,2.422009408E-1
1.413158693E1,2.776300907E-1,-1.510319859E-1,2.612899244E-1
1.414073855E1,2.046338320E-1,-2.028012872E-1,2.848075330E-1
1.414989016E1,1.041494608E-1,-1.980672181E-1,3.113794029E-1
1.415904177E1,-3.710897267E-2,-1.433963925E-1,3.342861533E-1
1.416819339E1,-1.823379099E-1,-1.580567211E-1,3.429907262E-1
1.417734500E1,-2.906105816E-1,-2.559449971E-1,3.411581814E-1
1.418649662E1,-3.610107303E-1,-3.115321100E-1,3.297048211E-1
1.419564823E1,-4.219427407E-1,-2.971771955E-1,3.042019308E-1
1.420479980E1,-4.915793240E-1,-2.316638231E-1,2.767138183E-1
1.421395141E1,-5.505260825E-1,-1.058292910E-1,2.738122940E-1
1.422310302E1,-6.265766025E-1,4.474456236E-2,3.061871827E-1
1.423225464E1,-7.211052179E-1,1.110214889E-1,3.610107303E-1
1.424140625E1,-7.954758406E-1,7.253811508E-2,4.049917459E-1
1.425055787E1,-8.489249945E-1,4.291202128E-2,4.107947946E-1
1.425970948E1,-9.368869662E-1,3.787253052E-2,3.943018913E-1
1.426886110E1,-1.116323352E0,-3.161134571E-2,3.771981895E-1
1.427801271E1,-1.279724956E0,-8.811471611E-2,3.633013964E-1
1.428715157E1,-1.176644564E0,6.963659078E-2,2.845021188E-1
1.429631589E1,-8.814526200E-1,5.752654076E-1,1.531699449E-1
1.430546750E1,-7.472189069E-1,1.010494113E0,1.220167428E-1
1.431460641E1,-8.666395545E-1,9.749122262E-1,1.827960461E-1
1.432377073E1,-9.567395449E-1,7.765395641E-1,3.423798978E-1
1.433292235E1,-8.518264890E-1,9.973608851E-1,5.548020005E-1
1.434206120E1,-7.172874212E-1,1.473669052E0,7.111788988E-1
1.435122558E1,-8.122741580E-1,1.424037695E0,6.885775924E-1
1.436037719E1,-1.146102190E0,1.057071209E0,4.970769584E-1
1.436951605E1,-1.491536260E0,9.630007148E-1,3.219164908E-1
1.437868042E1,-1.579956412E0,9.098569751E-1,1.840177327E-1
1.438783204E1,-1.360814929E0,8.790091872E-1,4.138490185E-2
1.439697089E1,-1.075702071E0,1.009883285E0,-3.054236248E-2
1.440613521E1,-1.076465607E0,1.229788303E0,-3.436015919E-2
1.441528683E1,-1.352873921E0,1.394106150E0,2.748812549E-3
1.442442568E1,-1.638445020E0,1.520398855E0,8.353336155E-2
1.443359006E1,-1.718160629E0,1.489398360E0,1.808107942E-1
1.444274167E1,-1.619966984E0,1.232995152E0,2.469350100E-1
1.445188052E1,-1.473669052E0,9.103151560E-1,2.629697323E-1
1.446104490E1,-1.321109891E0,5.984776020E-1,2.678565085E-1
1.447019651E1,-1.207797766E0,3.274141252E-1,2.634278834E-1
1.447934813E1,-1.135717750E0,2.015796006E-1,2.400629669E-1
1.448849974E1,-1.126707792E0,1.684411317E-1,2.359397560E-1
1.449765136E1,-1.192221165E0,2.412846684E-1,2.550287247E-1
1.450679021E1,-1.258803487E0,4.497362971E-1,2.745758295E-1
1.451595454E1,-1.246281147E0,6.149705052E-1,3.074088693E-1
1.452510615E1,-1.180767775E0,6.471926570E-1,3.371876776E-1
1.453424500E1,-1.108687758E0,5.804576278E-1,3.365768492E-1
1.454340938E1,-1.071120620E0,4.825693369E-1,2.904578745E-1
1.455256099E1,-1.039662004E0,3.746020794E-1,2.211267054E-1
1.456171261E1,-9.944593310E-1,2.538070381E-1,1.421747059E-1
1.457086422E1,-9.559759498E-1,1.180462316E-1,6.077930331E-2
1.458001584E1,-8.910734653E-1,4.627167806E-2,1.786728203E-2
1.458916745E1,-7.864658237E-1,-9.009997360E-3,3.145863488E-2
1.459831907E1,-7.029324770E-1,-4.856235534E-2,4.428642616E-2
1.460747068E1,-6.896465421E-1,-1.557660475E-2,2.672456764E-2
1.461662224E1,-6.687250137E-1,-1.068982668E-2,2.504473738E-2
1.462577386E1,-6.058077812E-1,-1.466033421E-2,5.039490014E-2
1.463492547E1,-5.942016840E-1,3.726168349E-2,7.437065244E-2
1.464407709E1,-6.554391384E-1,1.432436854E-1,7.330167294E-2
1.465322870E1,-7.091936469E-1,2.980934680E-1,6.780404598E-2
1.466238032E1,-7.203416228E-1,4.466820657E-1,5.909947306E-2
1.467153193E1,-7.026270628E-1,4.618005157E-1,6.352811307E-2
1.468068354E1,-6.946860552E-1,4.666872919E-1,7.452336699E-2
1.468983516E1,-7.331694365E-1,4.986040890E-1,8.460234851E-2
1.469897401E1,-7.872294188E-1,4.727957845E-1,8.796200156E-2
1.470813839E1,-8.183826208E-1,4.460712075E-1,7.986827940E-2
1.471729000E1,-7.583668828E-1,3.617742956E-1,6.978929788E-2
1.472644162E1,-6.479562521E-1,2.179197669E-1,5.787777901E-2
1.473559318E1,-5.998520255E-1,1.438545287E-1,4.367557913E-2
1.474474480E1,-6.181774139E-1,1.256818175E-1,2.764083818E-2
1.475389641E1,-6.546755433E-1,1.382041872E-1,3.100049868E-2
1.476304802E1,-6.864396334E-1,1.774511337E-1,4.123219103E-2
1.477219964E1,-7.267554998E-1,2.092151791E-1,4.825693369E-2
1.478135125E1,-7.667660117E-1,2.551814318E-1,6.566607952E-2
1.479050287E1,-7.632536292E-1,2.725905776E-1,8.276980370E-2
1.479965448E1,-7.145385742E-1,2.588465214E-1,9.529217333E-2
1.480880610E1,-6.577298045E-1,2.356343269E-1,1.036913246E-1
1.481795771E1,-6.001574397E-1,2.121167034E-1,1.133121699E-1
1.482710933E1,-5.509842038E-1,1.562241912E-1,1.270562261E-1
1.483626094E1,-5.625903010E-1,1.267508119E-1,1.415638477E-1
1.484541256E1,-6.106945276E-1,2.116585821E-1,1.491994411E-1
1.485456417E1,-6.500942111E-1,3.292466700E-1,1.646233350E-1
1.486371578E1,-6.804838181E-1,4.225535989E-1,1.679829955E-1
1.487286740E1,-7.166765332E-1,4.694361091E-1,1.659977436E-1
1.488201901E1,-7.363763452E-1,4.802786708E-1,1.469087601E-1
1.489117063E1,-7.455390692E-1,4.837910235E-1,1.108687744E-1
1.490032219E1,-7.566870451E-1,3.804051280E-1,5.283828825E-2
1.490947381E1,-7.637118101E-1,2.192941606E-1,-5.803049076E-3
1.491862542E1,-7.771504521E-1,1.588202864E-1,-5.833591148E-2
1.492777704E1,-7.898254991E-1,1.507265568E-1,-9.193251282E-2
1.493692865E1,-7.999044657E-1,1.772984117E-1,-9.391776472E-2
1.494608026E1,-8.222004175E-1,2.519744933E-1,-8.872556686E-2
1.495523188E1,-8.744278550E-1,3.080197275E-1,-7.375980914E-2
1.496438349E1,-9.367342591E-1,3.700207174E-1,-6.200099736E-2
1.497353511E1,-1.002705812E0,4.283566475E-1,-6.444438547E-2
1.498268672E1,-1.043632507E0,4.662291706E-1,-6.658235192E-2
1.499183834E1,-1.041952729E0,4.879142344E-1,-8.185353130E-2
1.500098995E1,-1.026834249E0,4.660764635E-1,-1.104106456E-1
1.501014157E1,-1.022405624E0,4.020902216E-1,-1.536280811E-1
1.501929318E1,-1.026223421E0,3.657447994E-1,-2.006633282E-1
1.502844480E1,-1.019351363E0,3.717005551E-1,-2.415900975E-1
1.503759641E1,-9.926267862E-1,3.758237660E-1,-2.622061968E-1
1.504674802E1,-9.541434050E-1,4.144598544E-1,-2.643441558E-1
1.505589964E1,-9.353598356E-1,5.109737515E-1,-2.574721277E-1
1.506505125E1,-9.455915689E-1,6.200099587E-1,-2.498365343E-1
1.507420287E1,-9.877400398E-1,7.139277458E-1,-2.409792393E-1
1.508335448E1,-1.035233378E0,7.777612805E-1,-2.334963679E-1
1.509250610E1,-1.078450799E0,7.837170362E-1,-2.283041626E-1
1.510165771E1,-1.124111652E0,7.240067124E-1,-2.345653474E-1
1.511080927E1,-1.160457134E0,6.575770974E-1,-2.556395829E-1
1.511996089E1,-1.195428133E0,5.819846988E-1,-2.918322682E-1
1.512911250E1,-1.218487620E0,4.932591617E-1,-3.370349705E-1
1.513826412E1,-1.223527074E0,4.581354558E-1,-3.633013964E-1
1.514741573E1,-1.214517117E0,4.781406820E-1,-3.608580232E-1
1.515656735E1,-1.190541267E0,5.318952799E-1,-3.264978528E-1
1.516570620E1,-1.152974248E0,5.876350403E-1,-2.750339806E-1
1.517487058E1,-1.117239594E0,6.456655264E-1,-2.382304370E-1
1.518402219E1,-1.094791055E0,7.415685654E-1,-2.319692522E-1
1.519317381E1,-1.089904189E0,9.089407325E-1,-2.472404242E-1
1.520232542E1,-1.065928459E0,1.133121610E0,-2.791571915E-1
1.521147704E1,-9.539906979E-1,1.328287363E0,-3.144336343E-1
1.522061589E1,-6.991146803E-1,1.384027123E0,-3.474193811E-1
1.522978026E1,-3.077143133E-1,1.267049909E0,-3.941491842E-1
1.523893188E1,1.493521482E-1,1.032484531E0,-4.547757804E-1
1.524807073E1,5.745018721E-1,8.057075143E-1,-5.187620521E-1
1.525723511E1,9.130639434E-1,6.615476012E-1,-5.712949038E-1
1.526638672E1,1.197413325E0,5.931326747E-1,-5.929799676E-1
1.527552558E1,1.466491580E0,5.329642296E-1,-5.606050491E-1
1.528468995E1,1.709761500E0,4.654656053E-1,-5.002838969E-1
1.529384157E1,1.919129372E0,3.822376728E-1,-4.364503622E-1
1.530298042E1,2.102994442E0,2.773246467E-1,-3.739912212E-1
1.531214480E1,2.300297976E0,1.579040140E-1,-3.132119179E-1
1.532129641E1,2.514552832E0,2.596100792E-2,-2.573194206E-1
1.533043526E1,2.711856365E0,-1.404948682E-1,-2.148655206E-1
1.533959964E1,2.873730898E0,-3.420744538E-1,-1.829487532E-1
1.534875125E1,2.992388010E0,-5.140279531E-1,-1.710372269E-1
1.535790287E1,3.061413765E0,-5.803049207E-1,-1.809635013E-1
1.536705448E1,3.070423841E0,-5.676298141E-1,-1.820324808E-1
1.537620610E1,3.040950298E0,-5.790832043E-1,-1.695101112E-1
1.538535771E1,3.014836550E0,-6.267293096E-1,-1.469087601E-1
1.539450933E1,3.013309479E0,-6.204680800E-1,-9.330692142E-2
1.540366094E1,3.015753031E0,-5.181511641E-1,6.108472589E-4
1.541281256E1,2.994525909E0,-3.484883606E-1,1.220167428E-1
1.542196417E1,2.915574074E0,-1.788255423E-1,2.403683960E-1
1.543111579E1,2.825321198E0,-4.550812021E-2,3.080197275E-1
1.544026740E1,2.801345587E0,-2.489202656E-2,3.756710589E-1
1.544941901E1,2.825932026E0,-1.072036922E-1,4.338542521E-1
1.545857063E1,2.888085842E0,-1.791309565E-1,4.727957845E-1
1.546772224E1,2.973757267E0,-2.655658424E-1,5.179984570E-1
1.547687386E1,3.028428078E0,-2.443388999E-1,5.207473040E-1
1.548602547E1,3.062482834E0,-2.719797492E-1,5.418215394E-1
1.549517709E1,3.066758633E0,-5.031854510E-1,6.056550741E-1
1.550432870E1,3.004910469E0,-7.157602906E-1,6.462764144E-1
1.551348032E1,2.872967482E0,-8.486195803E-1,6.361974478E-1
1.552261917E1,2.737511873E0,-9.327637553E-1,6.200099587E-1
1.553178355E1,2.600529432E0,-9.662076235E-1,5.995466113E-1
1.554093516E1,2.491951466E0,-1.128082156E0,5.311316848E-1
1.555008677E1,2.445527077E0,-1.324164152E0,5.114318728E-1
1.555923839E1,2.471335411E0,-1.526507258E0,5.318952799E-1
1.556839000E1,2.513942003E0,-1.672805190E0,5.407525301E-1
1.557754162E1,2.500655890E0,-1.701820493E0,5.169295073E-1
1.558669323E1,2.403836727E0,-1.668376565E0,4.642439187E-1
1.559584485E1,2.257385969E0,-1.601336122E0,4.224008918E-1
1.560498370E1,2.101772785E0,-1.559493065E0,4.138490260E-1
1.561414808E1,1.959445238E0,-1.516275644E0,4.329380095E-1
1.562329969E1,1.837886691E0,-1.445875406E0,4.576773047E-1
1.563243855E1,1.686702013E0,-1.347223639E0,4.639385045E-1
1.564160292E1,1.496881247E0,-1.225206852E0,4.489727318E-1
1.565075454E1,1.310572743E0,-1.056307673E0,4.225535989E-1
1.565990615E1,1.153585076E0,-8.528954983E-1,4.091149569E-1
1.566905776E1,1.004691005E0,-6.633801460E-1,4.037700295E-1
1.567820938E1,8.412894011E-1,-5.158604980E-1,4.042281806E-1
1.568736099E1,6.415423155E-1,-3.764346242E-1,4.191939235E-1
1.569651261E1,4.121691883E-1,-2.518217862E-1,4.535540938E-1
1.570566422E1,1.786728203E-1,-2.028012872E-1,4.842491746E-1
1.571481584E1,-1.252236869E-2,-2.108950168E-1,4.914266169E-1
1.572396745E1,-1.320957243E-1,-2.014268786E-1,4.900522232E-1
1.573311907E1,-2.066190839E-1,-1.275143623E-1,4.607315361E-1
1.574227068E1,-2.673983872E-1,-4.963133857E-2,3.826957941E-1
1.575142230E1,-3.232909143E-1,-1.878355257E-2,2.851129472E-1
1.576057391E1,-3.823903799E-1,1.374406274E-3,2.131856978E-1
1.576972552E1,-4.459185004E-1,-3.374931216E-2,1.737860441E-1
1.577887714E1,-5.309789777E-1,-4.001049697E-2,1.652341783E-1
1.578802875E1,-6.044333577E-1,3.588727489E-2,1.792836636E-1
1.579716761E1,-6.722373962E-1,1.611109674E-1,2.067717910E-1
1.580633198E1,-7.481352091E-1,2.197522968E-1,2.403683960E-1
1.581548360E1,-8.144121170E-1,1.786728203E-1,2.722851634E-1
1.582463521E1,-9.066500664E-1,2.032594234E-1,2.967190444E-1
1.583378683E1,-1.035538793E0,2.893888950E-1,2.944283783E-1
1.584293844E1,-1.112505555E0,3.564293683E-1,2.487675399E-1
1.585207730E1,-1.091278672E0,4.292729199E-1,2.084516287E-1
1.586124167E1,-1.045159698E0,6.462764144E-1,2.112004459E-1
1.587039328E1,-1.083184958E0,1.080894232E0,2.594573796E-1
1.587953219E1,-1.150836229E0,1.302326322E0,3.833066523E-1
1.588869657E1,-1.088835239E0,1.008661509E0,5.977140665E-1
1.589784818E1,-1.012173891E0,7.450809479E-1,8.159392476E-1
1.590698704E1,-1.153432369E0,5.615213513E-1,7.673768401E-1
1.591615141E1,-1.550177574E0,-1.166718230E-1,4.036173224E-1
1.592530302E1,-1.881714940E0,-4.063661397E-1,9.544488788E-2
1.593444188E1,-1.760309100E0,7.650861889E-2,-2.672456764E-2
1.594360625E1,-1.241699815E0,2.586938143E-1,-4.275930673E-2
1.595275787E1,-8.118160367E-1,-1.801999472E-2,6.673506647E-2
1.596189672E1,-9.167290330E-1,6.459710002E-2,2.454078794E-1
1.597106110E1,-1.509403586E0,6.545228362E-1,3.672719002E-1
1.598021271E1,-2.000372171E0,1.181684017E0,3.750602305E-1
1.598935157E1,-1.976243615E0,1.344780207E0,3.060344756E-1
1.599851594E1,-1.609735250E0,1.199245930E0,2.385358512E-1
1.600766756E1,-1.290872931E0,9.827005267E-1,2.049392611E-1
1.601680641E1,-1.243685007E0,9.327637553E-1,1.893626451E-1
1.602597079E1,-1.335312128E0,9.439117312E-1,1.508792788E-1
1.603512240E1,-1.325233102E0,8.695410490E-1,8.994726092E-2
1.604427401E1,-1.216655016E0,7.411104441E-1,3.649812192E-2
1.605342563E1,-1.114338160E0,6.201626658E-1,1.038440317E-2
1.606257724E1,-1.077687263E0,5.296045542E-1,-1.557660475E-2
1.607171615E1,-1.056307673E0,4.868452549E-1,-4.596625641E-2
1.608088052E1,-9.975135922E-1,4.801259339E-1,-6.429167092E-2
1.609003214E1,-9.216157794E-1,4.019374847E-1,-7.055285573E-2
1.609918375E1,-9.026795626E-1,2.767138183E-1,-6.108472496E-2
1.610833537E1,-9.410101771E-1,2.918322682E-1,-3.268032894E-2
1.611748698E1,-9.891144037E-1,4.033119082E-1,-6.261184346E-3
1.612663860E1,-9.924740791E-1,4.376720488E-1,1.374406368E-2
1.613579021E1,-9.434536099E-1,3.975088596E-1,2.336490713E-2
1.614494183E1,-8.652651310E-1,3.910949528E-1,4.352286831E-2
1.615409344E1,-7.924215794E-1,2.852656841E-1,8.383878320E-2
1.616324506E1,-7.372926474E-1,1.565296054E-1,1.391204596E-1
1.617239667E1,-6.872031689E-1,6.291726977E-2,1.768402755E-1
1.618154828E1,-6.560499668E-1,-4.978405312E-2,1.783674061E-1
1.619069995E1,-6.707102656E-1,-1.137702987E-1,1.447708011E-1
1.619985157E1,-6.661289334E-1,-1.230857223E-1,8.307522535E-2
1.620900318E1,-6.258130074E-1,-1.214058921E-1,3.084778599E-2
1.621815480E1,-5.920637250E-1,-9.437590092E-2,4.275931045E-3
1.622730641E1,-6.157340407E-1,-6.062658876E-2,-2.748812549E-3
1.623645802E1,-6.899519563E-1,2.901524492E-2,7.177455351E-3
1.624560964E1,-7.256865501E-1,1.036913246E-1,1.053711493E-2
1.625476125E1,-6.943806410E-1,1.241547018E-1,-1.527118147E-3
1.626391287E1,-6.653653979E-1,4.520269856E-2,-2.504473738E-2
1.627306448E1,-6.624638438E-1,7.788302377E-3,-3.359659761E-2
1.628221610E1,-6.671979427E-1,5.176930502E-2,-2.748812735E-2
1.629136776E1,-6.656708121E-1,9.773556143E-3,-1.221694518E-2
1.630051933E1,-6.603258848E-1,2.367033064E-2,4.886778072E-3
1.630967099E1,-6.533011198E-1,5.864133686E-2,2.137965336E-2
1.631882261E1,-6.601731777E-1,6.719319522E-2,3.237490356E-2
1.632797422E1,-6.734591126E-1,9.483403713E-2,3.771981969E-2
1.633712584E1,-6.804838181E-1,1.250709742E-1,5.283828825E-2
1.634627745E1,-6.981984377E-1,1.003316641E-1,7.055285573E-2
1.635542907E1,-7.207997441E-1,7.620319724E-2,8.139539510E-2
1.636458068E1,-7.423321605E-1,5.940489471E-2,8.124268800E-2
1.637373235E1,-7.414158583E-1,3.344388679E-2,7.879929990E-2
1.638288396E1,-7.186617851E-1,4.428642616E-2,6.306997687E-2
1.639203558E1,-7.041541934E-1,4.046862945E-2,1.985253580E-2
1.640118719E1,-7.307260633E-1,6.383354217E-2,-1.771457121E-2
1.641033881E1,-7.765395641E-1,1.444653720E-1,-2.412846684E-2
1.641949042E1,-7.705838084E-1,1.782146841E-1,-2.046338283E-2
1.642864204E1,-7.201889157E-1,1.826433241E-1,-7.330167107E-3
1.643779365E1,-6.433748603E-1,2.073826492E-1,-4.886778072E-3
1.644694526E1,-5.723638535E-1,2.063136548E-1,-2.397575416E-2
1.645609688E1,-5.908420086E-1,2.067717910E-1,-3.145863488E-2
1.646524854E1,-6.801784039E-1,2.657185495E-1,-2.779355086E-2
1.647440016E1,-7.704311013E-1,2.915268540E-1,-2.229592577E-2
1.648355177E1,-8.496885300E-1,3.306210935E-1,-1.435491070E-2
1.649270339E1,-8.962656260E-1,4.306473136E-1,-1.985253533E-3
1.650185500E1,-9.129112363E-1,4.969242513E-1,1.618745178E-2
1.651100662E1,-9.107732773E-1,4.674508572E-1,1.618745178E-2
1.652015823E1,-8.874083757E-1,4.095730782E-1,2.443389036E-3
1.652930985E1,-8.715263009E-1,3.570402265E-1,-1.939439960E-2
1.653846151E1,-8.548807502E-1,3.045073450E-1,-4.856235534E-2
1.654761313E1,-8.270871639E-1,2.495311052E-1,-8.139539510E-2
1.655676474E1,-7.742488980E-1,2.153236568E-1,-1.120904684E-1
1.656591636E1,-7.223268747E-1,2.018850148E-1,-1.527118087E-1
1.657506797E1,-6.957550049E-1,2.186833173E-1,-1.829487532E-1
1.658421959E1,-7.240067124E-1,2.735068500E-1,-1.820324808E-1
1.659337120E1,-8.026533127E-1,3.782671690E-1,-1.575985998E-1
1.660252287E1,-8.547280431E-1,4.643966258E-1,-1.427855492E-1
1.661167448E1,-8.513683677E-1,4.970769584E-1,-1.238492802E-1
1.662082610E1,-8.368607163E-1,5.344913602E-1,-1.078145429E-1
1.662997771E1,-8.298360109E-1,5.760289431E-1,-1.059819981E-1
1.663912933E1,-8.258655071E-1,6.019899845E-1,-1.133121699E-1
1.664828094E1,-8.150229454E-1,5.784723759E-1,-1.340809762E-1
1.665743256E1,-7.898254991E-1,5.312843919E-1,-1.643179059E-1
1.666658417E1,-7.589777112E-1,4.805840850E-1,-1.965401024E-1
1.667573584E1,-7.424848676E-1,4.421007037E-1,-2.218902707E-1
1.668488745E1,-7.563816309E-1,4.088095427E-1,-2.348707765E-1
1.669403907E1,-8.050966859E-1,4.159869850E-1,-2.400629669E-1
1.670319068E1,-8.579349518E-1,4.579827189E-1,-2.466295809E-1
1.671234230E1,-8.906152844E-1,4.663818777E-1,-2.577775419E-1
1.672149391E1,-9.045121074E-1,4.506525695E-1,-2.640387416E-1
1.673064552E1,-9.057337642E-1,4.500417113E-1,-2.597627938E-1
1.673979719E1,-8.852704167E-1,4.815003574E-1,-2.473931462E-1
1.674894881E1,-8.638907075E-1,4.990622103E-1,-2.221956849E-1
1.675810042E1,-8.774821162E-1,4.973823726E-1,-1.924168915E-1
1.676725204E1,-9.185615778E-1,4.556920528E-1,-1.853921413E-1
1.677640365E1,-9.822424054E-1,4.224008918E-1,-2.015796006E-1
1.678555526E1,-1.042716265E0,4.451549351E-1,-2.380777150E-1
1.679470693E1,-1.073258638E0,5.021164417E-1,-2.744231224E-1
1.680385854E1,-1.081199646E0,5.598415136E-1,-2.927485406E-1
1.681301016E1,-1.073411345E0,5.882459283E-1,-2.903051674E-1
1.682216177E1,-1.046381354E0,5.926745534E-1,-2.675510943E-1
1.683131339E1,-1.003316641E0,5.951179266E-1,-2.428117841E-1
1.684046500E1,-9.469659925E-1,6.261184216E-1,-2.211267054E-1
1.684961667E1,-8.580876589E-1,6.696413159E-1,-2.101314515E-1
1.685876828E1,-7.102626562E-1,6.826218367E-1,-2.108950168E-1
1.686790714E1,-5.060869455E-1,5.984776020E-1,-2.209739983E-1
1.687707151E1,-2.367033064E-1,4.011739492E-1,-2.470877171E-1
1.688622313E1,1.012479365E-1,1.954711229E-1,-2.988570333E-1
1.689536204E1,4.966188073E-1,5.955760926E-2,-3.790307343E-1
1.690452641E1,9.277243018E-1,1.710372418E-2,-4.741701782E-1
1.691367802E1,1.351652265E0,6.383354217E-2,-5.549547076E-1
1.692281688E1,1.739845753E0,1.841704547E-1,-6.224533319E-1
1.693198125E1,2.073826551E0,3.605526090E-1,-6.575770974E-1
1.694113287E1,2.327786207E0,5.694623590E-1,-6.558972597E-1
1.695028454E1,2.499434233E0,7.229377031E-1,-6.096255779E-1
1.695943615E1,2.626490593E0,7.134696245E-1,-4.822639227E-1
1.696858776E1,2.745911121E0,4.472928941E-1,-3.054236174E-1
1.697772662E1,2.893736124E0,-4.657710344E-2,-1.403421611E-1
1.698689099E1,3.077142954E0,-6.332958937E-1,-2.443389036E-3
1.699604261E1,3.241461039E0,-1.073105931E0,1.070509851E-1
1.700518151E1,3.331408262E0,-1.179393291E0,1.792836636E-1
1.701434589E1,3.327895880E0,-9.894198179E-1,1.803526580E-1
1.702349750E1,3.268491030E0,-6.632274389E-1,1.241547018E-1
1.703263636E1,3.189233541E0,-3.629959822E-1,3.970507160E-2
1.704180073E1,3.101577044E0,-1.832541823E-1,-3.252761811E-2
1.705095235E1,3.019265175E0,-1.339282542E-1,-5.329642445E-2
1.706010401E1,2.927027464E0,-1.676775664E-1,-2.702999115E-2
1.706925563E1,2.814173222E0,-2.605263591E-1,1.924168877E-2
1.707840724E1,2.673983812E0,-3.936910629E-1,8.857285231E-2
1.708755886E1,2.536543131E0,-5.882459283E-1,1.872246861E-1
1.709671052E1,2.518217802E0,-7.156075835E-1,2.739650011E-1
1.710586214E1,2.654894829E0,-7.235485911E-1,3.298575282E-1
1.711500099E1,2.841814280E0,-6.171084642E-1,3.695625961E-1
1.712416537E1,2.950850487E0,-4.828747511E-1,4.202629030E-1
1.713331698E1,2.963220119E0,-4.651601911E-1,5.157077909E-1
1.714245589E1,2.884268045E0,-6.045860648E-1,6.397097707E-1
1.715162026E1,2.685742617E0,-9.052756429E-1,7.130114436E-1
1.716077188E1,2.437127829E0,-1.237729311E0,7.212579250E-1
1.716991073E1,2.265021563E0,-1.412278891E0,7.050704360E-1
1.717907516E1,2.225163937E0,-1.415485859E0,6.736118197E-1
1.718822677E1,2.236617327E0,-1.366923451E0,6.161921620E-1
1.719736563E1,2.225621939E0,-1.334701300E0,5.202891231E-1
1.720653000E1,2.209281921E0,-1.237576604E0,4.022429287E-1
1.721568162E1,2.224400282E0,-1.023932695E0,3.093941510E-1
1.722482052E1,2.253415585E0,-8.017370105E-1,2.574721277E-1
1.723398490E1,2.272504568E0,-7.227849960E-1,2.405211031E-1
1.724313651E1,2.269297600E0,-7.806627750E-1,2.490729690E-1
1.725228813E1,2.238907814E0,-8.389987350E-1,2.896943092E-1
1.726143974E1,2.164690018E0,-8.484668136E-1,3.588727713E-1
1.727059141E1,2.051072359E0,-9.321529269E-1,4.265241027E-1
1.727973026E1,1.923557997E0,-1.082268596E0,4.640912116E-1
1.728889464E1,1.812383771E0,-1.146407604E0,4.671454430E-1
1.729804625E1,1.736027956E0,-1.059819937E0,4.439332485E-1
1.730719792E1,1.667918444E0,-8.881719112E-1,4.133908749E-1
1.731634954E1,1.573084354E0,-7.395833135E-1,3.771981895E-1
1.732550115E1,1.449693203E0,-7.026270628E-1,3.298575282E-1
1.733464000E1,1.293469071E0,-7.001836896E-1,2.560977042E-1
1.734380438E1,1.111742020E0,-5.995466113E-1,1.557660550E-1
1.735295605E1,9.261971712E-1,-4.935645759E-1,7.085828483E-2
1.736210766E1,7.631009221E-1,-4.909684956E-1,2.382304333E-2
1.737125927E1,6.426113248E-1,-5.213581324E-1,1.023169141E-2
1.738041089E1,5.511369109E-1,-5.039489865E-1,3.084778599E-2
1.738956256E1,4.466820657E-1,-4.262186885E-1,8.383878320E-2
1.739871417E1,3.048127890E-1,-3.063398898E-1,1.554606259E-1
1.740786579E1,1.356080920E-1,-1.640124917E-1,2.212794125E-1
1.741701740E1,-3.374931216E-2,-7.482878864E-3,2.725905776E-1
1.742616907E1,-1.870719790E-1,1.091889441E-1,2.933593988E-1
1.743532068E1,-3.054236174E-1,1.288887709E-1,2.741177082E-1
1.744447230E1,-3.943018913E-1,8.338065445E-2,2.319692522E-1
1.745362391E1,-4.724903405E-1,3.970507160E-2,1.844758689E-1
1.746277552E1,-5.598415136E-1,3.878879920E-2,1.411057115E-1
1.747191443E1,-6.685723066E-1,7.757759839E-2,1.043021679E-1
1.748107881E1,-7.936432958E-1,1.611109674E-1,7.406523079E-2
1.749023042E1,-8.927532434E-1,2.163926363E-1,5.619794875E-2
1.749938209E1,-9.362761378E-1,1.801999360E-1,7.238540053E-2
1.750853370E1,-9.608627558E-1,1.000262350E-1,1.094943732E-1
1.751768532E1,-1.015991688E0,4.474456236E-2,1.348445266E-1
1.752682417E1,-1.139535546E0,6.795676053E-2,1.247655526E-1
1.753598855E1,-1.195275426E0,2.024958730E-1,3.756710514E-2
1.754514021E1,-1.056154966E0,5.632011890E-1,-7.284353673E-2
1.755427907E1,-9.477295280E-1,9.486457705E-1,-6.413896102E-3
1.756344344E1,-1.053864241E0,1.013242841E0,2.017323077E-1
1.757259511E1,-1.164122105E0,8.067765236E-1,4.697415531E-1
1.758173396E1,-1.143047929E0,5.347967744E-1,6.948387623E-1
1.759089834E1,-1.108840466E0,6.575770974E-1,8.078454733E-1
1.760004995E1,-1.210699320E0,1.110978484E0,6.346703172E-1
1.760918886E1,-1.443432093E0,8.417475224E-1,2.771719396E-1
1.761835323E1,-1.688229084E0,3.509317636E-1,-3.817795310E-3
1.762750485E1,-1.857128382E0,6.833853722E-1,-1.346918195E-1
1.763664370E1,-1.707165360E0,1.236812949E0,-1.334701329E-1
1.764580813E1,-1.321873426E0,1.089751482E0,-2.015795931E-2
1.765495974E1,-1.152516007E0,8.290724158E-1,1.382041872E-1
1.766409860E1,-1.446333647E0,1.036913276E0,2.483094037E-1
1.767326297E1,-1.759698272E0,1.163205862E0,3.278722763E-1
1.768241464E1,-1.709303379E0,1.050046444E0,3.161134422E-1
1.769155349E1,-1.524216652E0,8.631271720E-1,2.162399292E-1
1.770071787E1,-1.413195133E0,7.018635273E-1,9.559759498E-2
1.770986948E1,-1.329356313E0,6.740699410E-1,2.351761982E-2
1.771902115E1,-1.256665468E0,6.048914790E-1,1.801999472E-2
1.772817276E1,-1.220625520E0,5.700731874E-1,3.771981969E-2
1.773732438E1,-1.225054145E0,6.363501549E-1,4.077405483E-2
1.774646328E1,-1.234522343E0,7.417212725E-1,3.023693897E-2
1.775562766E1,-1.220167398E0,8.067765236E-1,1.801999472E-2
1.776477927E1,-1.181073189E0,7.731798887E-1,2.748812735E-2
1.777391818E1,-1.132358074E0,6.810947061E-1,4.993676394E-2
1.778308256E1,-1.073869467E0,5.654918551E-1,3.512371704E-2
1.779223417E1,-9.776610136E-1,3.219164908E-1,-2.687728032E-2
1.780137302E1,-8.666395545E-1,4.581354558E-2,-8.521319181E-2
1.781053745E1,-7.742488980E-1,-1.211004704E-1,-1.478250325E-1
1.781968907E1,-7.130114436E-1,-1.146865711E-1,-2.012741715E-1
1.782882792E1,-7.035433054E-1,-8.506047726E-2,-2.011214644E-1
1.783799230E1,-7.313368917E-1,-1.450762246E-2,-1.806580722E-1
1.784714396E1,-7.394306064E-1,1.893626451E-1,-1.343863904E-1
1.785629558E1,-7.605048418E-1,3.052709103E-1,-6.749862432E-2
1.786544719E1,-8.047912717E-1,3.504736125E-1,-1.542389300E-2
1.787459886E1,-8.160919547E-1,3.542914093E-1,2.672456764E-2
1.788373771E1,-7.507312894E-1,2.646495700E-1,5.039490014E-2
1.789290209E1,-6.358919740E-1,1.111742035E-1,2.687728032E-2
1.790205370E1,-5.671716928E-1,9.422318637E-2,-6.108472589E-3
1.791120537E1,-5.858024955E-1,1.319430023E-1,-5.818320066E-2
1.792035698E1,-6.478035450E-1,2.099787444E-1,-1.123958975E-1
1.792950860E1,-6.876612902E-1,2.693836391E-1,-1.530172378E-1
1.793866026E1,-7.094991207E-1,3.904841244E-1,-1.856975704E-1
1.794781188E1,-7.614210844E-1,4.680617154E-1,-2.079934925E-1
1.795696349E1,-8.069292307E-1,4.631749392E-1,-2.095206082E-1
1.796611511E1,-7.892146707E-1,4.048390090E-1,-1.788255423E-1
1.797526677E1,-7.157602906E-1,3.008422852E-1,-1.354553849E-1
1.798441839E1,-6.529957056E-1,2.400629669E-1,-1.272089481E-1
1.799357000E1,-6.484143734E-1,2.188360244E-1,-1.582094431E-1
1.800272167E1,-6.711684465E-1,1.681357026E-1,-2.053973973E-1
1.801187328E1,-6.986565590E-1,1.485885978E-1,-2.324273884E-1
1.802102490E1,-7.773031592E-1,1.876828223E-1,-2.226538211E-1
1.803017657E1,-8.722898960E-1,3.243598938E-1,-2.057028115E-1
1.803932818E1,-8.988617659E-1,4.648547769E-1,-1.730224788E-1
1.804847980E1,-8.817580342E-1,4.541649222E-1,-1.246128380E-1
1.805763141E1,-8.922951221E-1,3.730749488E-1,-7.513421029E-2
1.806678308E1,-9.573503733E-1,3.206948042E-1,-3.100049868E-2
1.807593469E1,-1.005759954E0,2.658712566E-1,-1.527118147E-4
1.808508631E1,-9.994988441E-1,1.815743446E-1,7.177455351E-3
1.809423797E1,-9.451334476E-1,8.948912472E-2,1.557660475E-2
1.810338959E1,-8.994725943E-1,2.748812735E-2,5.039489828E-3
1.811254120E1,-9.034430981E-1,1.160609815E-2,-5.176930502E-2
1.812169287E1,-9.237537384E-1,3.665083647E-2,-1.111742035E-1
1.813084448E1,-9.349017143E-1,5.940489471E-2,-1.534753740E-1
1.813999610E1,-9.686510563E-1,6.413896382E-2,-1.634016484E-1
1.814914771E1,-1.032789946E0,1.218640283E-1,-1.473668963E-1
1.815829938E1,-1.091125965E0,1.398840249E-1,-1.294996142E-1
1.816745099E1,-1.118919492E0,1.412584335E-1,-9.804098308E-2
1.817660261E1,-1.115559816E0,1.553079188E-1,-5.818320066E-2
1.818575427E1,-1.105480790E0,1.908897758E-1,-3.558185324E-2
1.819490589E1,-1.090056896E0,1.867665499E-1,-3.008422814E-2
1.820405750E1,-1.071578860E0,1.910424829E-1,-1.466033421E-2
1.821320917E1,-1.049588323E0,2.092151791E-1,-2.901524538E-3
1.822236079E1,-1.028819442E0,2.380777150E-1,-1.374406368E-2
1.823151240E1,-1.013395548E0,2.452551723E-1,-3.985778242E-2
1.824066407E1,-9.940012097E-1,2.276933193E-1,-8.063183725E-2
1.824981568E1,-9.759812355E-1,1.684411317E-1,-1.311794519E-1
1.825896730E1,-9.932376146E-1,1.887518018E-1,-1.783674061E-1
1.826811896E1,-1.037371397E0,2.481566966E-1,-2.153236568E-1
1.827727058E1,-1.085780978E0,2.889307439E-1,-2.389939874E-1
1.828642219E1,-1.145185947E0,4.092676640E-1,-2.663294077E-1
1.829557381E1,-1.188097954E0,5.357130170E-1,-2.880144715E-1
1.830472547E1,-1.181378603E0,6.742226481E-1,-2.930539846E-1
1.831387709E1,-1.150836229E0,7.719582319E-1,-2.892361879E-1
1.832301599E1,-1.141673565E0,7.899782062E-1,-2.878617644E-1
1.833218037E1,-1.158166409E0,7.737907767E-1,-2.898470163E-1
1.834133198E1,-1.159998894E0,7.044596076E-1,-2.959555089E-1
1.835047089E1,-1.120446563E0,5.428904891E-1,-3.052709103E-1
1.835963526E1,-1.079214454E0,4.266768098E-1,-3.226800561E-1
1.836878688E1,-1.041036487E0,3.790307343E-1,-3.364241421E-1
1.837793849E1,-1.025918007E0,3.309265077E-1,-3.197785318E-1
1.838709016E1,-1.055391312E0,3.558185399E-1,-2.747285664E-1
1.839624177E1,-1.107313395E0,4.949389994E-1,-2.525853515E-1
1.840539339E1,-1.160304427E0,6.442911625E-1,-2.550287247E-1
1.841454506E1,-1.189166903E0,7.027797699E-1,-2.557922900E-1
1.842369667E1,-1.171146870E0,6.810947061E-1,-2.538070381E-1
1.843283552E1,-1.095860004E0,6.076403260E-1,-2.661767006E-1
1.844199990E1,-9.542961121E-1,5.179984570E-1,-2.967190444E-1
1.845115157E1,-7.522584200E-1,4.001049399E-1,-3.287885487E-1
1.846030318E1,-5.022691488E-1,2.316638231E-1,-3.526115716E-1
1.846945480E1,-2.258607745E-1,7.345438004E-2,-3.634541333E-1
1.847860646E1,6.734590977E-2,-4.825693369E-2,-3.642176688E-1
1.848774532E1,3.680354655E-1,-1.659977436E-1,-3.877353072E-1
1.849690969E1,6.398624778E-1,-2.808370292E-1,-4.350759685E-1
1.850606136E1,8.845068216E-1,-3.168770075E-1,-4.865398407E-1
1.851521297E1,1.125180602E0,-2.773246467E-1,-5.154023767E-1
1.852436459E1,1.373031974E0,-2.907632887E-1,-4.995203316E-1
1.853351625E1,1.625922680E0,-3.836120665E-1,-4.439332485E-1
1.854266787E1,1.889197826E0,-5.215108395E-1,-3.651339412E-1
1.855181948E1,2.159192324E0,-6.930062175E-1,-2.757975459E-1
1.856097115E1,2.427048922E0,-8.441908956E-1,-1.889045089E-1
1.857012276E1,2.680397749E0,-9.483403563E-1,-1.223221645E-1
1.857927438E1,2.897859335E0,-1.023779988E0,-8.399149776E-2
1.858842605E1,3.062024593E0,-1.060889006E0,-7.375980914E-2
1.859756490E1,3.168922901E0,-1.070357084E0,-9.009996802E-2
1.860672927E1,3.200839520E0,-1.047450304E0,-1.099525094E-1
1.861588094E1,3.150139332E0,-9.596410394E-1,-1.214058921E-1
1.862503256E1,3.063704491E0,-8.037222624E-1,-1.319430023E-1
1.863418417E1,3.006284714E0,-5.938962698E-1,-8.842013776E-2
1.864333578E1,2.985821486E0,-3.411581814E-1,9.162708884E-4
1.865248745E1,2.991929770E0,-1.606528312E-1,7.666133344E-2
1.866163907E1,2.990250111E0,-6.398624927E-2,1.314848661E-1
1.867079073E1,2.962761879E0,3.054236295E-3,2.032594234E-1
1.867994235E1,2.923209667E0,4.917320609E-2,2.915268540E-1
1.868909396E1,2.891445398E0,4.932591692E-2,3.565820754E-1
1.869824558E1,2.871898413E0,3.817795310E-3,4.156815708E-1
1.870739724E1,2.851282358E0,-5.085303262E-2,4.717268050E-1
1.871654886E1,2.796458721E0,-8.338065445E-2,5.001311898E-1
1.872570052E1,2.720102787E0,-1.598892659E-1,5.179984570E-1
1.873485214E1,2.638249397E0,-3.144336343E-1,5.169295073E-1
1.874400375E1,2.562351465E0,-5.163186193E-1,5.048652887E-1
1.875315537E1,2.504931927E0,-6.890357137E-1,4.550811946E-1
1.876230704E1,2.460645437E0,-8.206732869E-1,4.121691883E-1
1.877145865E1,2.407349110E0,-9.147437811E-1,3.929274976E-1
1.878061026E1,2.354510784E0,-9.940012097E-1,3.663556576E-1
1.878976193E1,2.321983099E0,-1.135717750E0,3.309265077E-1
1.879891354E1,2.321677685E0,-1.299730301E0,3.095468581E-1
1.880806516E1,2.316027403E0,-1.418540001E0,3.115321100E-1
1.881721683E1,2.265326977E0,-1.477639556E0,3.203893900E-1
1.882636844E1,2.161788464E0,-1.472294569E0,3.177932799E-1
1.883552006E1,2.013047218E0,-1.445569992E0,2.983988822E-1
1.884467172E1,1.857433796E0,-1.398229361E0,2.788517773E-1
1.885382334E1,1.738471270E0,-1.329203606E0,2.695363462E-1
1.886297495E1,1.662420869E0,-1.237729311E0,2.732014358E-1
1.887211386E1,1.594311357E0,-1.148545504E0,2.841966748E-1
1.888127823E1,1.491688967E0,-1.045006990E0,2.974826097E-1
1.889042985E1,1.339740753E0,-9.385668039E-1,2.968717813E-1
1.889958151E1,1.165038466E0,-8.316685557E-1,2.724378705E-1
1.890873313E1,1.006065488E0,-7.423321605E-1,2.376195788E-1
1.891788474E1,9.071081877E-1,-6.997255087E-1,2.142546773E-1
1.892703641E1,8.641961813E-1,-6.540647149E-1,2.017323077E-1
1.893618802E1,8.307522535E-1,-5.577035546E-1,2.087570578E-1
1.894533964E1,7.611156702E-1,-4.288147688E-1,2.289150059E-1
1.895447854E1,6.210789680E-1,-2.993151546E-1,2.528907657E-1
1.896364292E1,4.211791754E-1,-2.098260373E-1,2.709107697E-1
1.897279454E1,2.315111160E-1,-1.673721522E-1,2.764083743E-1
1.898194620E1,1.090362370E-1,-1.783674061E-1,2.681619525E-1
1.899109782E1,5.192201585E-2,-1.960819662E-1,2.506000996E-1
1.900024943E1,2.168507688E-2,-1.823379099E-1,2.254026383E-1
1.900940110E1,-2.229592577E-2,-1.343863904E-1,1.933331639E-1
1.901855271E1,-1.056765765E-1,-5.070032179E-2,1.724116355E-1
1.902770433E1,-2.309002578E-1,4.001049697E-2,1.708845198E-1
1.903685599E1,-3.700207174E-1,8.811471611E-2,1.856975704E-1
1.904600761E1,-4.873034060E-1,9.407047927E-2,2.112004459E-1
1.905515922E1,-5.940489769E-1,8.796200156E-2,2.318165302E-1
1.906431089E1,-7.003363967E-1,1.136175916E-1,2.408265322E-1
1.907346250E1,-8.061656952E-1,1.688992679E-1,2.327328026E-1
1.908261412E1,-9.075663090E-1,2.199050188E-1,2.160872221E-1
1.909176578E1,-9.967499971E-1,2.081461996E-1,1.922641695E-1
1.910091740E1,-1.055849433E0,1.302631795E-1,1.644706279E-1
1.911006901E1,-1.066691995E0,5.772506446E-2,1.302631795E-1
1.911922068E1,-1.039814711E0,3.237490356E-2,9.437590092E-2
1.912837230E1,-1.040883780E0,2.504473738E-2,5.711421743E-2
1.913752391E1,-1.112505555E0,-1.969982497E-2,2.916795574E-2
1.914667558E1,-1.236354828E0,-1.634016447E-2,3.374931216E-2
1.915582719E1,-1.339129925E0,8.719844371E-2,5.619794875E-2
1.916497881E1,-1.252847672E0,2.783936262E-1,7.864658535E-2
1.917411771E1,-1.071426034E0,5.134171247E-1,1.487413049E-1
1.918328209E1,-9.961391687E-1,5.894675851E-1,2.707580328E-1
1.919243375E1,-1.015533566E0,3.918585181E-1,4.650074840E-1
1.920157261E1,-1.156181097E0,2.338017821E-1,6.406260729E-1
1.921073698E1,-1.360814929E0,2.121167034E-1,7.185090780E-1
1.921988865E1,-1.513374090E0,4.080459774E-1,6.610894203E-1
1.922902750E1,-1.616301894E0,8.499939442E-1,4.524851143E-1
1.923819188E1,-1.693726778E0,1.077381849E0,2.177670449E-1
1.924734349E1,-1.676622987E0,1.235133171E0,4.443913698E-2
1.925648240E1,-1.657839417E0,1.335464835E0,-6.169557199E-2
1.926564677E1,-1.650051117E0,1.084101200E0,-6.704048812E-2
1.927479844E1,-1.669903636E0,8.362498879E-1,2.397575416E-2
1.928395006E1,-1.777260065E0,9.407047629E-1,1.372879148E-1
1.929310167E1,-1.834679723E0,1.121057391E0,2.107423097E-1
1.930225334E1,-1.737402320E0,1.046075940E0,2.499892414E-1
1.931139219E1,-1.567281365E0,8.348754644E-1,2.707580328E-1
1.932055657E1,-1.414264083E0,5.404471159E-1,2.531961799E-1
1.932970823E1,-1.304006219E0,3.542914093E-1,2.107423097E-1
1.933884709E1,-1.252542257E0,3.385621011E-1,1.739387512E-1
1.934801146E1,-1.239103675E0,3.040492237E-1,1.470614821E-1
1.935716313E1,-1.232078910E0,2.852656841E-1,1.264453828E-1
1.936631474E1,-1.204743505E0,4.028537571E-1,1.185043678E-1
1.937546636E1,-1.132816195E0,4.957025647E-1,1.185043678E-1
1.938461802E1,-1.062416077E0,4.573718905E-1,1.537808031E-1
1.939376964E1,-1.039967418E0,4.245388508E-1,1.911951900E-1
1.940292125E1,-1.057682037E0,3.944546282E-1,2.166980654E-1
1.941207292E1,-1.083337665E0,3.533751369E-1,2.189887464E-1
1.942122454E1,-1.053864241E0,3.057290614E-1,1.899735034E-1
1.943037615E1,-9.491039515E-1,2.124221325E-1,1.522536725E-1
1.943952782E1,-8.393041492E-1,1.256818175E-1,1.366770715E-1
1.944867943E1,-7.849387527E-1,5.589252338E-2,1.265980899E-1
1.945783110E1,-7.543963790E-1,-3.939964995E-2,9.575030953E-2
1.946698271E1,-7.018635273E-1,-1.130067408E-1,4.993676394E-2
1.947612157E1,-6.210789680E-1,-9.804098308E-2,1.740914769E-2
1.948528599E1,-5.755708218E-1,-8.521319181E-2,7.330167107E-3
1.949443761E1,-6.313106418E-1,1.099525020E-2,9.315420873E-3
1.950358922E1,-7.145385742E-1,1.634016484E-1,1.420219894E-2
1.951274089E1,-7.588250041E-1,2.929012477E-1,1.007897966E-2
1.952189250E1,-7.907418013E-1,4.205683470E-1,-3.665083554E-3
1.953104412E1,-8.099834919E-1,5.138752460E-1,-1.725643501E-2
1.954019578E1,-8.344173431E-1,5.500679612E-1,-1.084253844E-2
1.954934740E1,-8.579349518E-1,4.885250926E-1,6.872031838E-3
1.955848631E1,-8.680139780E-1,3.819322586E-1,3.206948051E-3
1.956765068E1,-8.510629535E-1,2.733541429E-1,-1.740914769E-2
1.957680230E1,-8.110524416E-1,1.588202864E-1,-3.970507160E-2
1.958595391E1,-7.547017932E-1,-4.428642802E-3,-5.925218388E-2
1.959510558E1,-6.980457306E-1,-1.966928244E-1,-6.429167092E-2
1.960425719E1,-6.707102656E-1,-2.965663373E-1,-6.581879407E-2
1.961340886E1,-6.911736727E-1,-2.690782249E-1,-8.368607610E-2
1.962256047E1,-7.464553714E-1,-1.461452097E-1,-1.012479365E-1
1.963171209E1,-8.215895891E-1,-2.932066843E-2,-7.131642103E-2
1.964086375E1,-9.045121074E-1,6.459710002E-2,-3.481829539E-2
1.965001537E1,-9.967499971E-1,2.405211031E-1,-1.542389300E-2
1.965916704E1,-1.048366666E0,4.175141156E-1,-2.321219631E-2
1.966831865E1,-1.046534061E0,4.989095032E-1,-3.726168349E-2
1.967747026E1,-9.955283403E-1,5.123481154E-1,-2.779355086E-2
1.968662188E1,-9.327637553E-1,5.118899941E-1,-5.344913341E-3
1.969577354E1,-9.129112363E-1,5.661026835E-1,7.024743594E-3
1.970492516E1,-9.188669920E-1,5.624375939E-1,2.137965523E-3
1.971407683E1,-9.310839176E-1,5.419742465E-1,-3.512371797E-3
1.972322844E1,-9.260444641E-1,5.477772951E-1,-4.810422286E-2
1.973238006E1,-8.803836107E-1,4.966188073E-1,-9.895725548E-2
1.974153172E1,-8.405258060E-1,4.596625566E-1,-1.188097894E-1
1.975068334E1,-8.635852933E-1,4.946335554E-1,-1.233911440E-1
1.975983495E1,-9.176452756E-1,5.312843919E-1,-1.175880954E-1
1.976898662E1,-9.422318935E-1,5.150969625E-1,-1.000262350E-1
1.977813823E1,-9.206995368E-1,5.152496696E-1,-7.253811508E-2
1.978728990E1,-8.670976758E-1,4.950917065E-1,-3.481829539E-2
1.979644151E1,-8.171609044E-1,4.240806997E-1,-1.557660475E-2
1.980559313E1,-8.023478985E-1,3.535278440E-1,-2.993151546E-2
1.981474480E1,-8.273926377E-1,3.484883606E-1,-6.429167092E-2
1.982389641E1,-8.290724158E-1,3.710896969E-1,-1.400367320E-1
1.983304802E1,-7.942541242E-1,3.691044450E-1,-2.199050188E-1
1.984219969E1,-7.435538173E-1,3.767400384E-1,-2.829749882E-1
1.985135131E1,-7.110261917E-1,4.753918648E-1,-3.139754832E-1
1.986050292E1,-7.337802649E-1,6.146650314E-1,-3.155026138E-1
1.986965459E1,-8.034168482E-1,7.388197780E-1,-2.848075330E-1
1.987880620E1,-8.712208867E-1,7.857022882E-1,-2.530434728E-1
1.988795787E1,-8.956547976E-1,7.592831254E-1,-2.403683960E-1
1.989710948E1,-8.893936276E-1,6.850652099E-1,-2.493783981E-1
1.990626110E1,-8.658760190E-1,6.001574397E-1,-2.669402659E-1
1.991541276E1,-8.385405540E-1,5.163186193E-1,-2.812951505E-1
1.992456438E1,-8.261709213E-1,4.463766217E-1,-2.903051674E-1
1.993371599E1,-8.223531246E-1,4.362976551E-1,-2.890834510E-1
1.994286766E1,-8.345700502E-1,4.898995161E-1,-2.782409191E-1
1.995201927E1,-8.750386834E-1,5.320479870E-1,-2.693836391E-1
1.996117089E1,-9.196305275E-1,5.578562617E-1,-2.733541429E-1
1.997032256E1,-9.555178285E-1,5.685460567E-1,-2.846548259E-1
1.997947417E1,-9.732323885E-1,5.552601814E-1,-2.870981991E-1
1.998862584E1,-9.649859667E-1,5.367820263E-1,-2.742704153E-1
1.999777745E1,-9.225320816E-1,5.247178078E-1,-2.574721277E-1
2.000692907E1,-8.348754644E-1,5.025745630E-1,-2.489202619E-1
2.001608073E1,-6.817055345E-1,4.836383164E-1,-2.600682080E-1
2.002523235E1,-4.714213610E-1,4.741701782E-1,-2.823641598E-1
2.003438396E1,-2.434226274E-1,4.992149174E-1,-3.003841341E-1
2.004353563E1,-3.481829539E-2,5.355603099E-1,-3.049654961E-1
2.005268724E1,1.408002973E-1,5.425850749E-1,-3.135173619E-1
2.006183886E1,2.666348219E-1,5.439594984E-1,-3.217637837E-1
2.007099052E1,3.483356535E-1,5.723638535E-1,-3.370349705E-1
2.008014214E1,4.369085133E-1,6.120689511E-1,-3.724641204E-1
2.008929381E1,5.538857579E-1,6.543701291E-1,-4.040754735E-1
2.009844542E1,6.853706241E-1,6.985038519E-1,-4.196520746E-1
2.010759704E1,8.231166601E-1,7.233958840E-1,-4.114056230E-1
2.011674870E1,9.981244206E-1,6.514685750E-1,-3.796415627E-1
2.012590032E1,1.201383829E0,4.309527278E-1,-3.407000601E-1
2.013503922E1,1.385401607E0,1.046075895E-1,-3.086305857E-1
2.014420360E1,1.525896430E0,-1.745496094E-1,-2.854183912E-1
2.015335521E1,1.658755779E0,-3.695625961E-1,-2.525853515E-1
2.016250688E1,1.827349544E0,-5.636593103E-1,-2.079934925E-1
2.017165849E1,2.039466381E0,-8.041804433E-1,-1.696628332E-1
2.018081011E1,2.266854286E0,-1.025001645E0,-1.360662282E-1
2.018994901E1,2.468128443E0,-1.138466597E0,-1.070509851E-1
2.019911339E1,2.593810081E0,-1.140604496E0,-7.879929990E-2
2.020826500E1,2.624963284E0,-1.054933190E0,-6.215370819E-2
2.021740391E1,2.594268322E0,-9.066500664E-1,-7.895200700E-2
2.022656829E1,2.559144497E0,-7.006418109E-1,-1.007898003E-1
2.023571990E1,2.540666580E0,-4.898995161E-1,-1.017060652E-1
2.024485881E1,2.550898075E0,-3.228327632E-1,-9.681928903E-2
2.025402318E1,2.599460602E0,-2.516690791E-1,-9.407047927E-2
2.026317485E1,2.680550575E0,-2.423536479E-1,-4.153761268E-2
2.027232646E1,2.759349823E0,-2.147128135E-1,7.498150319E-2
2.028147808E1,2.787754059E0,-1.382041872E-1,2.131856978E-1
2.029062974E1,2.766221762E0,-6.658235192E-2,3.509317636E-1
2.029978136E1,2.721324444E0,-4.520269856E-2,4.390464723E-1
2.030893297E1,2.672304153E0,-2.886253223E-2,4.711159468E-1
2.031808464E1,2.629086494E0,4.627167806E-2,4.671454430E-1
2.032723625E1,2.619771242E0,1.246128380E-1,4.553866386E-1
2.033638792E1,2.613051891E0,1.354553849E-1,4.395045936E-1
2.034553954E1,2.598849773E0,7.742489129E-2,4.144598544E-1
2.035469115E1,2.595031977E0,-2.458660305E-2,3.735330999E-1
2.036384282E1,2.606790781E0,-1.889045089E-1,3.865135908E-1
2.037299443E1,2.623436213E0,-3.532224298E-1,4.515688419E-1
2.038214605E1,2.596100807E0,-5.066977739E-1,5.186093450E-1
2.039129771E1,2.495769262E0,-7.369872332E-1,5.259394646E-1
2.040044933E1,2.350387573E0,-9.297095537E-1,4.676035643E-1
2.040960099E1,2.241962194E0,-1.093569279E0,3.955236077E-1
2.041875261E1,2.206074953E0,-1.232842445E0,3.851391971E-1
2.042790422E1,2.219666243E0,-1.238034725E0,4.046863019E-1
2.043705589E1,2.215695620E0,-1.268271565E0,4.059080184E-1
2.044620750E1,2.126664639E0,-1.300341129E0,3.967452943E-1
2.045535917E1,2.007396698E0,-1.268118858E0,3.788780272E-1
2.046451078E1,1.931499004E0,-1.231620789E0,3.373403847E-1
2.047366240E1,1.878355265E0,-1.192221165E0,2.715215981E-1
2.048281407E1,1.820172071E0,-1.141826272E0,2.192941606E-1
2.049196568E1,1.732515574E0,-1.120446563E0,2.009687424E-1
2.050111730E1,1.616912723E0,-1.081352353E0,2.073826492E-1
2.051026896E1,1.469545841E0,-9.477295280E-1,2.350234836E-1
2.051942058E1,1.314085126E0,-7.452336550E-1,2.727433145E-1
2.052857224E1,1.192068458E0,-5.531222224E-1,3.089359999E-1
2.053772386E1,1.071884274E0,-4.242334068E-1,3.458922505E-1
2.054687547E1,9.098569751E-1,-3.930802047E-1,3.808632791E-1
2.055602714E1,7.142331600E-1,-4.515688419E-1,4.124746025E-1
2.056517875E1,5.398362875E-1,-5.337277651E-1,4.411844313E-1
2.057433037E1,4.213318825E-1,-5.195255876E-1,4.495835900E-1
2.058348204E1,3.480302393E-1,-3.834593594E-1,4.227063060E-1
2.059263365E1,2.764083743E-1,-1.934858710E-1,3.675773442E-1
2.060178532E1,1.705790907E-1,-5.451811850E-2,3.136700690E-1
2.061093693E1,4.413371533E-2,-2.718270384E-2,2.761029601E-1
2.062008854E1,-8.689302206E-2,-5.100574717E-2,2.574721277E-1
2.062924021E1,-2.203631550E-1,-2.443389036E-3,2.571666837E-1
2.063839183E1,-3.626905680E-1,1.131594554E-1,2.713688910E-1
2.064754349E1,-5.088357925E-1,1.864611208E-1,2.890834510E-1
2.065669511E1,-6.404733658E-1,1.502684206E-1,3.211529553E-1
2.066584672E1,-7.409577370E-1,-5.803049076E-3,3.578037918E-1
2.067499839E1,-7.902836204E-1,-1.708845198E-1,3.863608837E-1
2.068415000E1,-7.962393761E-1,-1.962346882E-1,4.016320705E-1
2.069330162E1,-7.783721089E-1,-5.818320066E-2,3.985778391E-1
2.070245328E1,-7.565343380E-1,1.985253543E-1,3.912476599E-1
2.071160490E1,-7.577560544E-1,4.190412164E-1,3.862081766E-1
2.072075657E1,-8.298360109E-1,4.815003574E-1,3.733803928E-1
2.072990818E1,-9.159654379E-1,4.007157981E-1,3.723114133E-1
2.073905980E1,-1.047297597E0,3.263451457E-1,3.732276857E-1
2.074821146E1,-1.290414810E0,4.277457893E-1,3.616215885E-1
2.075736308E1,-1.585759521E0,5.803049207E-1,3.625378609E-1
2.076651474E1,-1.764432311E0,5.627430081E-1,3.929274976E-1
2.077566636E1,-1.732057452E0,5.062396526E-1,4.311054647E-1
2.078481797E1,-1.521315098E0,7.049177289E-1,4.428642690E-1
2.079395688E1,-1.333174109E0,8.664868474E-1,3.952181637E-1
2.080312125E1,-1.282168388E0,7.375980616E-1,3.797942698E-1
2.081227287E1,-1.269493341E0,5.854970813E-1,4.782933891E-1
2.082141177E1,-1.278197885E0,5.192201734E-1,6.316160560E-1
2.083057615E1,-1.428619027E0,3.691044450E-1,6.702521443E-1
2.083972782E1,-1.696017385E0,1.007898003E-1,4.511106908E-1
2.084886667E1,-1.816659689E0,-2.137965523E-3,2.079934925E-1
2.085803110E1,-1.652036428E0,-9.865183383E-2,1.078145429E-1
2.086718271E1,-1.386470556E0,-2.875563502E-1,7.574506104E-2
2.087632157E1,-1.193595529E0,-3.539859951E-1,9.910997003E-2
2.088548599E1,-1.176339149E0,-1.892099380E-1,1.850867122E-1
2.089463761E1,-1.379903913E0,1.307213157E-1,2.646495700E-1
2.090378927E1,-1.637834191E0,4.866925478E-1,3.145863414E-1
2.091294089E1,-1.755727768E0,7.716528177E-1,3.581092060E-1
2.092209250E1,-1.699529767E0,8.254073858E-1,3.730749488E-1
2.093123141E1,-1.559493065E0,6.737645268E-1,3.559712470E-1
2.094039578E1,-1.409682751E0,4.249969721E-1,3.144336343E-1
2.094954745E1,-1.302479029E0,2.464768738E-1,2.463241518E-1
2.095868631E1,-1.238187432E0,2.040229887E-1,1.496575773E-1
2.096785068E1,-1.187181592E0,1.893626451E-1,7.299624383E-2
2.097700235E1,-1.149614573E0,1.895153672E-1,7.574506104E-2
2.098615396E1,-1.137092113E0,1.414111406E-1,1.223221645E-1
2.099530563E1,-1.171452284E0,9.636115283E-2,1.672194302E-1
2.100445724E1,-1.206575990E0,8.200624585E-2,1.933331639E-1
2.101360886E1,-1.180156946E0,2.290677279E-2,1.771457046E-1
2.102276052E1,-1.075854778E0,-9.834641218E-2,1.247655526E-1
2.103191214E1,-9.202414155E-1,-2.247917950E-1,5.635065958E-2
2.104106375E1,-7.882983685E-1,-3.446705639E-1,6.108472589E-3
2.105021542E1,-6.998782754E-1,-3.718532622E-1,-1.038440317E-2
2.105936704E1,-6.607840061E-1,-2.669402659E-1,-2.367033064E-2
2.106851870E1,-6.800256968E-1,-9.651386738E-2,-3.726168349E-2
2.107767032E1,-7.377507687E-1,8.842013776E-2,-3.481829539E-2
2.108682198E1,-8.283088803E-1,2.228065431E-1,-2.641914412E-2
2.109597360E1,-9.152019024E-1,3.545968235E-1,-5.650337320E-3
2.110512521E1,-9.491039515E-1,4.668400288E-1,3.970507160E-2
2.111427688E1,-9.416210651E-1,4.399627447E-1,1.015533581E-1
2.112341573E1,-9.489512444E-1,4.002576768E-1,1.380514801E-1
2.113258011E1,-9.750649333E-1,3.689517379E-1,1.287360638E-1
2.114173177E1,-9.819369912E-1,3.271087110E-1,8.047912270E-2
2.115088339E1,-9.478822351E-1,2.715215981E-1,1.114796288E-2
2.116003506E1,-8.802309036E-1,1.911951900E-1,-5.482354015E-2
2.116918667E1,-8.402203918E-1,1.421747059E-1,-1.119377613E-1
2.117833834E1,-8.444963098E-1,1.516428292E-1,-1.595838517E-1
2.118748995E1,-8.547280431E-1,1.466033459E-1,-1.986780763E-1
2.119664157E1,-8.703046441E-1,9.910997003E-2,-1.988307834E-1
2.120579323E1,-9.013051391E-1,4.001049697E-2,-1.763821393E-1
2.121494485E1,-9.352071285E-1,2.382304333E-2,-1.388150454E-1
2.122409651E1,-9.535325766E-1,3.558185324E-2,-7.116370648E-2
2.123324813E1,-9.605573416E-1,3.817795217E-2,-1.068982668E-2
2.124239974E1,-9.625425935E-1,4.260659590E-2,2.473931387E-2
2.125155141E1,-9.755230546E-1,1.076618284E-1,3.191677108E-2
2.126070302E1,-9.819369912E-1,2.124221325E-1,2.015795931E-2
2.126985469E1,-9.729269743E-1,3.226800561E-1,6.719320081E-3
2.127900631E1,-9.654440880E-1,4.642439187E-1,-1.832541823E-2
2.128815792E1,-9.501729012E-1,6.213843822E-1,-2.382304333E-2
2.129730959E1,-9.434536099E-1,7.547017932E-1,-1.786728203E-2
2.130646120E1,-9.529217482E-1,8.594620824E-1,-3.329117596E-2
2.131561287E1,-9.749122262E-1,9.225320816E-1,-7.131642103E-2
2.132476448E1,-1.009730577E0,9.813261032E-1,-9.910997003E-2
2.133391615E1,-1.024085402E0,1.065623045E0,-1.236965731E-1
2.134306776E1,-1.014922738E0,1.107160687E0,-1.540862173E-1
2.135221938E1,-9.985825419E-1,1.052947998E0,-1.441599578E-1
2.136137105E1,-9.848384857E-1,8.904625773E-1,-1.256818175E-1
2.137052266E1,-9.487984776E-1,7.108734846E-1,-1.123958975E-1
2.137967433E1,-8.857285380E-1,6.200099587E-1,-1.094943732E-1
2.138882594E1,-8.415948153E-1,6.514685750E-1,-1.183516532E-1
2.139797756E1,-8.269344568E-1,6.772769094E-1,-1.346918195E-1
2.140712922E1,-8.388460279E-1,5.735855699E-1,-1.603474021E-1
2.141628084E1,-8.564078808E-1,4.063661397E-1,-2.006633282E-1
2.142543250E1,-8.663341403E-1,3.683409095E-1,-2.399102598E-1
2.143458412E1,-8.860339522E-1,4.434750974E-1,-2.699944973E-1
2.144373573E1,-9.168817401E-1,4.619532526E-1,-2.817533016E-1
2.145288740E1,-9.397885203E-1,4.005630910E-1,-2.715215981E-1
2.146203901E1,-9.541434050E-1,3.927747905E-1,-2.392994165E-1
2.147119068E1,-9.530744553E-1,4.653128982E-1,-1.922641695E-1
2.148034230E1,-9.489512444E-1,5.341859460E-1,-1.543916464E-1
2.148949396E1,-9.617789984E-1,5.341859460E-1,-1.459924877E-1
2.149864558E1,-9.926267862E-1,4.767662883E-1,-1.669140160E-1
2.150779719E1,-1.015838981E0,4.579827189E-1,-1.847812980E-1
2.151694886E1,-1.013548255E0,4.634803534E-1,-1.823379099E-1
2.152610047E1,-9.985825419E-1,4.550811946E-1,-1.748550236E-1
2.153525214E1,-9.859074950E-1,4.045335948E-1,-1.779092699E-1
2.154440375E1,-9.785773158E-1,3.628432751E-1,-1.966928244E-1
2.155355537E1,-9.697200060E-1,3.512371778E-1,-2.295258641E-1
2.156270704E1,-9.500201941E-1,4.217900336E-1,-2.441861928E-1
2.157185865E1,-9.330691695E-1,5.893148780E-1,-2.276933193E-1
2.158101032E1,-9.349017143E-1,7.809682488E-1,-2.082989216E-1
2.159016193E1,-9.588775039E-1,9.087880254E-1,-1.896680743E-1
2.159931360E1,-9.741486907E-1,9.576557875E-1,-1.823379099E-1
2.160846521E1,-9.320002198E-1,9.318475127E-1,-1.887518018E-1
2.161760412E1,-8.200624585E-1,8.348754644E-1,-2.002051920E-1
2.162676849E1,-6.400152445E-1,6.917845011E-1,-2.116585821E-1
2.163592011E1,-4.114056230E-1,4.943281412E-1,-2.293731421E-1
2.164507177E1,-1.453816444E-1,2.579302490E-1,-2.536543310E-1
2.165422339E1,1.487413049E-1,5.818320066E-2,-2.867927849E-1
2.166337500E1,4.498890042E-1,-3.008422814E-2,-3.359659910E-1
2.167251391E1,7.366818190E-1,-2.809897438E-2,-4.016320705E-1
2.168167828E1,1.010494113E0,-5.650337320E-3,-4.731011987E-1
2.169082995E1,1.286749721E0,1.007897966E-2,-5.474718809E-1
2.169996881E1,1.548650503E0,3.512371704E-2,-5.841227174E-1
2.170913318E1,1.736333370E0,7.299624383E-2,-5.572454333E-1
2.171828485E1,1.837123156E0,1.270562261E-1,-4.740174711E-1
2.172743646E1,1.930888176E0,1.504211426E-1,-3.701734245E-1
2.173658813E1,2.096122265E0,9.391776472E-2,-2.652604282E-1
2.174573974E1,2.360924721E0,-6.383354217E-2,-1.734806150E-1
2.175487865E1,2.671998739E0,-3.474193811E-1,-1.099525094E-1
2.176404302E1,2.939549685E0,-6.517740488E-1,-6.077930331E-2
2.177319464E1,3.091956139E0,-7.574505806E-1,-3.038965166E-2
2.178234631E1,3.123567343E0,-6.423059106E-1,-4.184303805E-2
2.179149792E1,3.074699640E0,-4.683671296E-1,-7.223268598E-2
2.180064959E1,2.981392860E0,-3.481829464E-1,-1.114796251E-1
2.180980120E1,2.882130146E0,-3.393256664E-1,-1.359135211E-1
2.181895287E1,2.805010557E0,-3.920112252E-1,-1.346918195E-1
2.182810448E1,2.746216536E0,-4.140017331E-1,-6.001574174E-2
2.183725610E1,2.732930660E0,-4.196520746E-1,5.971032009E-2
2.184640776E1,2.775384426E0,-4.798205197E-1,1.925695986E-1
2.185555938E1,2.846395493E0,-6.125270724E-1,3.025220931E-1
2.186471104E1,2.916642904E0,-7.110261917E-1,3.524588645E-1
2.187386266E1,2.948559761E0,-6.850652099E-1,3.458922505E-1
2.188301427E1,2.922293186E0,-5.569399595E-1,3.278722763E-1
2.189215318E1,2.858307123E0,-4.335488379E-1,3.115321100E-1
2.190131756E1,2.789128542E0,-3.402419090E-1,3.214583695E-1
2.191046922E1,2.696432590E0,-1.992889196E-1,3.437542915E-1
2.191962084E1,2.593810081E0,-1.027750522E-1,3.784198761E-1
2.192877245E1,2.530434847E0,-1.498102844E-1,4.384356141E-1
2.193792412E1,2.517912388E0,-2.941229641E-1,5.074613690E-1
2.194707573E1,2.540360928E0,-4.245388508E-1,5.741963983E-1
2.195622740E1,2.575790167E0,-5.448757410E-1,6.125270724E-1
2.196537901E1,2.583273172E0,-6.948387623E-1,6.193991303E-1
2.197451792E1,2.526922464E0,-8.669449687E-1,5.799994469E-1
2.198368230E1,2.407043695E0,-1.084864736E0,5.244123936E-1
2.199283391E1,2.278002024E0,-1.293774486E0,4.613423944E-1
2.200198558E1,2.165606260E0,-1.394411564E0,3.849864900E-1
2.201113719E1,2.069397688E0,-1.412278891E0,3.145863414E-1
2.202028886E1,2.020682812E0,-1.397465825E0,2.672456801E-1
2.202944047E1,2.009534836E0,-1.374711752E0,2.324273884E-1
2.203859214E1,1.990903974E0,-1.354859233E0,2.162399292E-1
2.204774375E1,1.953947663E0,-1.349514365E0,2.209739983E-1
2.205689542E1,1.898207903E0,-1.322484374E0,2.290677279E-1
2.206604704E1,1.812536478E0,-1.263537526E0,2.339545041E-1
2.207519865E1,1.716938972E0,-1.172674060E0,2.386885732E-1
2.208433756E1,1.602710485E0,-1.028208613E0,2.493783981E-1
2.209350193E1,1.455038190E0,-8.565605879E-1,2.609844804E-1
2.210265360E1,1.266897202E0,-7.091936469E-1,2.706053257E-1
2.211179245E1,1.078450799E0,-5.931326747E-1,2.722851634E-1
2.212095683E1,9.272661209E-1,-4.934118688E-1,2.710634768E-1
2.213010849E1,8.026533127E-1,-4.147652984E-1,2.628170252E-1
2.213926011E1,6.919372082E-1,-3.668137789E-1,2.461714447E-1
2.214841177E1,5.874823332E-1,-3.170297146E-1,2.283041626E-1
2.215756339E1,4.827220440E-1,-2.496838123E-1,2.249445021E-1
2.216671506E1,3.756710589E-1,-2.136438340E-1,2.351761907E-1
2.217586667E1,2.788517773E-1,-2.124221325E-1,2.559449971E-1
2.218501828E1,2.073826492E-1,-2.197522968E-1,2.736595869E-1
2.219416995E1,1.580567211E-1,-1.583621502E-1,2.672456801E-1
2.220332157E1,9.819369763E-2,-6.520794332E-2,2.619007528E-1
2.221247323E1,9.009997360E-3,-1.756185852E-2,2.623589039E-1
2.222162485E1,-1.258345395E-1,-3.527642787E-2,2.693836391E-1
2.223077651E1,-3.035911024E-1,-8.674030751E-2,2.773246467E-1
2.223992813E1,-4.986040890E-1,-1.232384369E-1,2.802261710E-1
2.224907974E1,-6.803311110E-1,-1.296523362E-1,2.747285664E-1
2.225823141E1,-8.073873520E-1,-1.197260618E-1,2.548760176E-1
2.226738302E1,-8.640434742E-1,-9.636115283E-2,2.183778882E-1
2.227653469E1,-8.900044560E-1,-8.215895295E-2,1.766875684E-1
2.228568631E1,-9.048175216E-1,-4.978405312E-2,1.302631795E-1
2.229483797E1,-9.184088707E-1,3.374931216E-2,8.551861346E-2
2.230398959E1,-9.645278454E-1,1.745496094E-1,4.413371533E-2
2.231314125E1,-1.035996914E0,3.220692277E-1,2.825168520E-2
2.232229287E1,-1.115559816E0,3.810159862E-1,4.840964451E-2
2.233144448E1,-1.169161677E0,3.016058207E-1,8.475505561E-2
2.234059615E1,-1.105328083E0,1.220167428E-1,8.658760041E-2
2.234974776E1,-9.312366247E-1,1.006370857E-1,6.520794332E-2
2.235888667E1,-8.745805621E-1,4.317162931E-1,1.337755471E-1
2.236805104E1,-1.068066478E0,8.141067028E-1,3.023693860E-1
2.237720271E1,-1.315765023E0,8.674030900E-1,4.821111858E-1
2.238634157E1,-1.369061470E0,6.711684465E-1,6.833853722E-1
2.239550594E1,-1.288887739E0,6.465818286E-1,8.554915786E-1
2.240465761E1,-1.319735527E0,8.958075047E-1,7.927270532E-1
2.241380922E1,-1.532921195E0,6.080984473E-1,5.068505406E-1
2.242296089E1,-1.866901994E0,3.875826001E-1,1.921114624E-1
2.243211250E1,-2.102078199E0,8.600729704E-1,4.428642802E-3
2.244125141E1,-1.944326878E0,1.047603011E0,-6.780404598E-2
2.245041578E1,-1.577054858E0,7.595885396E-1,-3.084778599E-2
2.245956740E1,-1.397313118E0,6.584933400E-1,7.375980914E-2
2.246870631E1,-1.567586780E0,9.953756332E-1,1.693574041E-1
2.247787068E1,-1.839872003E0,1.269340634E0,2.435753495E-1
2.248702235E1,-1.884158373E0,1.156944752E0,3.190149665E-1
2.249616120E1,-1.727170587E0,8.838959932E-1,3.776563108E-1
2.250532563E1,-1.580261827E0,7.267554998E-1,3.666610718E-1
2.251447724E1,-1.508792758E0,6.331431866E-1,2.835858464E-1
2.252362891E1,-1.430451512E0,5.291464329E-1,1.608055383E-1
2.253278052E1,-1.322789788E0,4.717268050E-1,5.848862603E-2
2.254193214E1,-1.252389550E0,4.173613787E-1,3.359660041E-3
2.255108381E1,-1.258039951E0,4.294256270E-1,1.527118147E-3
2.256023542E1,-1.293469071E0,4.398100376E-1,3.176405653E-2
2.256938709E1,-1.303242683E0,4.271349311E-1,5.314370990E-2
2.257853870E1,-1.258345366E0,4.098785222E-1,7.482878864E-2
2.258769037E1,-1.158471823E0,2.846548259E-1,7.620319724E-2
2.259684198E1,-1.008050680E0,2.092151903E-2,5.253286287E-2
2.260599365E1,-8.429692388E-1,-2.272351831E-1,2.092151903E-2
2.261514526E1,-7.389724851E-1,-4.043808877E-1,-2.596100792E-2
2.262429693E1,-6.821636558E-1,-4.563029110E-1,-7.192726433E-2
2.263343578E1,-6.007682681E-1,-3.959817290E-1,-8.536590636E-2
2.264260021E1,-5.401417017E-1,-3.536805511E-1,-8.551861346E-2
2.265175183E1,-5.995466113E-1,-1.844758689E-1,-7.635590434E-2
2.266090344E1,-7.224795818E-1,1.107160673E-1,-3.955236077E-2
2.267005511E1,-7.933378816E-1,3.538332880E-1,3.054236248E-2
2.267920672E1,-7.971556783E-1,4.750864506E-1,7.864658535E-2
2.268835839E1,-7.937960029E-1,5.143333673E-1,8.658760041E-2
2.269751000E1,-8.260182142E-1,4.605788291E-1,8.826743066E-2
2.270666167E1,-8.469397426E-1,3.822376728E-1,8.811471611E-2
2.271581329E1,-7.944068313E-1,3.045073450E-1,8.368607610E-2
2.272496490E1,-6.934643388E-1,2.044811249E-1,5.024218559E-2
2.273411657E1,-6.088619828E-1,1.273616552E-1,9.162708884E-4
2.274326818E1,-5.686988235E-1,7.009471953E-2,-2.870982140E-2
2.275241985E1,-5.774033666E-1,9.162709117E-3,-3.542914242E-2
2.276157146E1,-6.106945276E-1,4.275931045E-3,-2.840439789E-2
2.277072313E1,-6.491779089E-1,1.817270555E-2,-4.886778072E-3
2.277987474E1,-6.745280623E-1,3.512371704E-2,7.788302377E-3
2.278902641E1,-6.988092661E-1,-4.734066315E-3,9.162708884E-4
2.279817802E1,-7.026270628E-1,-6.093201414E-2,-2.229592577E-2
2.280732969E1,-6.872031689E-1,-4.046862945E-2,-3.924693540E-2
2.281648131E1,-6.580352187E-1,2.092151903E-2,-6.719319522E-2
2.282563292E1,-6.290199757E-1,8.658760041E-2,-8.780929446E-2
2.283478459E1,-6.667397618E-1,2.342599183E-1,-7.650861889E-2
2.284393620E1,-7.495095730E-1,3.811686933E-1,-5.711421743E-2
2.285308787E1,-8.255600929E-1,5.456393361E-1,-3.573456407E-2
2.286223948E1,-8.904625773E-1,7.004891038E-1,-1.313321572E-2
2.287139115E1,-9.284878373E-1,7.313368917E-1,6.719320081E-3
2.288053000E1,-9.622371197E-1,7.119424939E-1,1.130067464E-2
2.288969443E1,-9.979717135E-1,7.117897868E-1,-2.290677279E-3
2.289884605E1,-1.015686274E0,6.213843822E-1,-1.328592747E-2
2.290799771E1,-1.006981730E0,4.894413650E-1,-2.473931387E-2
2.291714933E1,-9.991934299E-1,3.104631305E-1,-2.886253223E-2
2.292630094E1,-1.011104941E0,1.241547018E-1,-3.497100621E-2
2.293545261E1,-1.028972149E0,-1.450762246E-2,-3.741439432E-2
2.294460422E1,-1.031873703E0,-9.712471068E-2,-5.635065958E-2
2.295375589E1,-9.975135922E-1,-1.357607991E-1,-8.536590636E-2
2.296290750E1,-9.429954290E-1,-1.605001241E-1,-1.007898003E-1
2.297205917E1,-9.106205702E-1,-1.218640283E-1,-1.206423342E-1
2.298121079E1,-9.487984776E-1,-4.245388508E-2,-1.534753740E-1
2.299036245E1,-1.038287640E0,6.383354217E-2,-1.870719790E-1
2.299951407E1,-1.128082156E0,1.661504507E-1,-1.945548505E-1
2.300866573E1,-1.184585571E0,2.269297540E-1,-2.066190839E-1
2.301781735E1,-1.197871447E0,2.641914487E-1,-2.110477239E-1
2.302696901E1,-1.200620294E0,3.617742956E-1,-1.994416267E-1
2.303612063E1,-1.202300072E0,4.083513916E-1,-1.829487532E-1
2.304527224E1,-1.197413325E0,4.042281806E-1,-1.627907902E-1
2.305442391E1,-1.172979474E0,4.169032574E-1,-1.469087601E-1
2.306357552E1,-1.102884769E0,4.436278343E-1,-1.450762302E-1
2.307272719E1,-1.033553600E0,4.321744442E-1,-1.678302884E-1
2.308187881E1,-1.012937427E0,4.115583301E-1,-2.153236568E-1
2.309103047E1,-1.036607742E0,3.979669809E-1,-2.728960216E-1
2.310018209E1,-1.075549364E0,3.735330999E-1,-3.347443044E-1
2.310933375E1,-1.099525094E0,3.781144619E-1,-3.898732662E-1
2.311848537E1,-1.094180107E0,4.184303582E-1,-4.210264683E-1
2.312762427E1,-1.053558826E0,4.926483035E-1,-4.165978432E-1
2.313678865E1,-9.837695360E-1,5.435013771E-1,-3.898732662E-1
2.314594026E1,-8.970292211E-1,5.616740584E-1,-3.727695346E-1
2.315507917E1,-7.666133046E-1,5.967977643E-1,-3.871244490E-1
2.316424354E1,-5.940489769E-1,6.861341596E-1,-4.335488379E-1
2.317339521E1,-3.726168275E-1,8.284615874E-1,-4.902049303E-1
2.318253407E1,-8.887827396E-2,9.776610136E-1,-5.383091569E-1
2.319169849E1,2.217375487E-1,1.071426034E0,-5.789304972E-1
2.320085011E1,5.270084739E-1,1.062110662E0,-6.036698222E-1
2.321000177E1,8.058602214E-1,9.504783154E-1,-6.015318632E-1
2.321915339E1,1.044090629E0,7.563816309E-1,-5.503733754E-1
2.322830500E1,1.253611326E0,5.112791657E-1,-4.387410581E-1
2.323744391E1,1.468018651E0,2.516690791E-1,-3.216110766E-1
2.324660828E1,1.691436052E0,-1.328592747E-2,-2.447970361E-1
2.325575995E1,1.881714940E0,-2.834331393E-1,-2.145601064E-1
2.326491157E1,2.041909695E0,-4.958552718E-1,-2.180724740E-1
2.327406323E1,2.213557720E0,-5.783196688E-1,-2.351761907E-1
2.328321485E1,2.423689127E0,-5.864133835E-1,-2.415900975E-1
2.329235375E1,2.663599491E0,-6.004628539E-1,-2.405211031E-1
2.330151813E1,2.866706133E0,-6.410841942E-1,-2.316638231E-1
2.331066980E1,2.961234808E0,-6.865923405E-1,-1.840177327E-1
2.331982141E1,2.934815645E0,-7.076665759E-1,-1.530172378E-1
2.332897308E1,2.828833580E0,-6.510104537E-1,-1.336228400E-1
2.333812469E1,2.708802223E0,-4.847072959E-1,-1.059819981E-1
2.334727636E1,2.651687860E0,-3.075616062E-1,-5.390727147E-2
2.335642797E1,2.684368372E0,-2.089097649E-1,2.504473738E-2
2.336557964E1,2.760876894E0,-1.957765520E-1,1.183516532E-1
2.337473125E1,2.796306133E0,-1.954711229E-1,2.040229887E-1
2.338388287E1,2.741024256E0,-1.783674061E-1,2.593046725E-1
2.339303454E1,2.630766392E0,-1.441599578E-1,3.005368412E-1
2.340218615E1,2.554563284E0,-9.422318637E-2,3.139754832E-1
2.341133782E1,2.568154573E0,-3.329117596E-2,3.013004065E-1
2.342048943E1,2.619923830E0,4.153761268E-2,3.052709103E-1
2.342964110E1,2.658560038E0,5.909947306E-2,3.269560039E-1
2.343879271E1,2.636111259E0,7.299624383E-2,3.431434333E-1
2.344794438E1,2.556243181E0,4.764608666E-2,3.579564989E-1
2.345709599E1,2.479123592E0,-1.000262350E-1,3.721587062E-1
2.346624766E1,2.434073687E0,-2.470877171E-1,3.920112252E-1
2.347539927E1,2.394521236E0,-3.695625961E-1,3.735330999E-1
2.348455089E1,2.351609230E0,-5.108210444E-1,3.410054743E-1
2.349370256E1,2.331604004E0,-6.806365848E-1,3.410054743E-1
2.350285417E1,2.354205370E0,-8.831323981E-1,3.559712470E-1
2.351199308E1,2.363673449E0,-1.118155956E0,3.568875194E-1
2.352115745E1,2.288691998E0,-1.278045177E0,3.478775024E-1
2.353030912E1,2.145295620E0,-1.292247415E0,3.156553209E-1
2.353944797E1,2.001746416E0,-1.266744494E0,2.644968629E-1
2.354861240E1,1.898207903E0,-1.242463350E0,2.034121305E-1
2.355776401E1,1.827654958E0,-1.186112642E0,1.533226669E-1
2.356691568E1,1.763210654E0,-1.133274436E0,1.253764033E-1
2.357606730E1,1.679371834E0,-1.123806238E0,1.113269106E-1
2.358521896E1,1.570793748E0,-1.127624035E0,1.105633527E-1
2.359437058E1,1.442515850E0,-1.045770526E0,1.249182671E-1
2.360352224E1,1.300341129E0,-8.812998533E-1,1.501157135E-1
2.361267386E1,1.163205862E0,-7.235485911E-1,1.849340051E-1
2.362182552E1,1.063637733E0,-6.374191046E-1,2.202104330E-1
2.363097714E1,9.843803644E-1,-5.989357233E-1,2.399102598E-1
2.364012875E1,8.930587173E-1,-5.810684562E-1,2.305948436E-1
2.364928042E1,7.737907767E-1,-5.969504714E-1,2.046338320E-1
2.365843204E1,6.479562521E-1,-5.864133835E-1,1.831014603E-1
2.366758370E1,5.372401476E-1,-4.547757804E-1,1.620272398E-1
2.367673532E1,4.446968138E-1,-2.258607745E-1,1.447708011E-1
2.368588698E1,3.498627543E-1,-3.329117596E-2,1.340809762E-1
2.369503860E1,2.399102598E-1,6.902574003E-2,1.406475753E-1
2.370419026E1,1.305686086E-1,8.170082420E-2,1.795890927E-1
2.371334188E1,3.115320951E-2,7.269082218E-2,2.319692522E-1
2.372249355E1,-6.948387623E-2,7.269082218E-2,2.880144715E-1
2.373164516E1,-1.789782494E-1,1.298050396E-2,3.391729295E-1
2.374079683E1,-2.898470163E-1,-7.375980914E-2,3.611634374E-1
2.374994844E1,-4.004103839E-1,-1.078145429E-1,3.408527672E-1
2.375910011E1,-5.025745630E-1,-9.009996802E-2,2.857238054E-1
2.376825172E1,-5.951179266E-1,-5.314370990E-2,2.142546773E-1
2.377740339E1,-6.655181050E-1,-4.123218823E-3,1.433963925E-1
2.378655500E1,-7.102626562E-1,4.504998401E-2,1.015533581E-1
2.379570662E1,-7.583668828E-1,5.757235363E-2,9.452861547E-2
2.380485828E1,-8.649597168E-1,4.840964451E-2,1.139230132E-1
2.381400995E1,-1.017213345E0,9.834641218E-2,1.635543555E-1
2.382316157E1,-1.170230627E0,2.134911120E-1,2.142546773E-1
2.383231318E1,-1.276212692E0,3.358132839E-1,2.414373755E-1
2.384145209E1,-1.249946237E0,3.121429384E-1,2.087570578E-1
2.385061646E1,-1.098456025E0,2.867927849E-1,1.530172378E-1
2.385976813E1,-1.038134933E0,4.370612204E-1,1.838650256E-1
2.386890704E1,-1.190541267E0,5.951179266E-1,2.864873707E-1
2.387807141E1,-1.399451017E0,5.476245880E-1,3.955236077E-1
2.388722302E1,-1.463742733E0,4.198047817E-1,5.581616759E-1
2.389636193E1,-1.314390540E0,6.719319820E-1,7.227849960E-1
2.390552631E1,-1.187639832E0,1.262468576E0,6.859814525E-1
2.391467797E1,-1.280030489E0,1.366312623E0,4.489727318E-1
2.392382959E1,-1.578734756E0,7.795938253E-1,1.748550236E-1
2.393298125E1,-1.945395827E0,4.037700295E-1,4.428642616E-2
2.394213287E1,-2.040077209E0,7.212579250E-1,5.696150661E-2
2.395127177E1,-1.773900390E0,1.005454540E0,6.780404598E-2
2.396043615E1,-1.410751700E0,8.472451568E-1,1.070509851E-1
2.396958782E1,-1.271936655E0,7.719582319E-1,2.315111160E-1
2.397872667E1,-1.502684236E0,8.871029615E-1,3.286358118E-1
2.398789110E1,-1.782605052E0,1.028819442E0,3.356605768E-1
2.399704271E1,-1.849492788E0,1.027903199E0,2.912214398E-1
2.400618162E1,-1.723505497E0,9.597937465E-1,2.342599183E-1
2.401534599E1,-1.567128658E0,8.544226289E-1,1.853921413E-1
2.402449766E1,-1.468476772E0,7.273663878E-1,1.696628332E-1
2.403363651E1,-1.443279386E0,5.894675851E-1,1.827960461E-1
2.404280094E1,-1.459314108E0,5.074613690E-1,1.850867122E-1
2.405195256E1,-1.462368369E0,4.483618736E-1,1.783674061E-1
2.406109146E1,-1.415791273E0,3.335226178E-1,1.831014603E-1
2.407025584E1,-1.328134656E0,1.817270666E-1,1.942494214E-1
2.407940750E1,-1.227192163E0,-1.099525020E-2,1.827960461E-1
2.408854636E1,-1.112810969E0,-2.513636351E-1,1.539335102E-1
2.409771078E1,-9.946120381E-1,-5.508314967E-1,1.055238619E-1
2.410686240E1,-9.216157794E-1,-7.569924593E-1,4.321744293E-2
2.411600131E1,-8.762603998E-1,-7.890619636E-1,-1.191152167E-2
2.412516568E1,-8.281561732E-1,-7.542436719E-1,-5.253286287E-2
2.413431730E1,-7.948650122E-1,-6.174138784E-1,-7.314895838E-2
2.414345620E1,-7.959339619E-1,-4.130854607E-1,-7.452336699E-2
2.415262058E1,-8.393041492E-1,-1.968455315E-1,-4.993676394E-2
2.416177224E1,-8.970292211E-1,4.611896724E-2,-1.206423342E-2
2.417092386E1,-9.547542930E-1,2.696890533E-1,3.497100621E-2
2.418007552E1,-1.010341406E0,4.860817194E-1,5.833591148E-2
2.418922714E1,-1.058445573E0,6.789567471E-1,7.910472155E-2
2.419836604E1,-1.079061627E0,7.634063363E-1,1.027750522E-1
2.420753042E1,-1.071731567E0,7.586722970E-1,1.253764033E-1
2.421668209E1,-1.068982720E0,7.267554998E-1,1.328592747E-1
2.422582094E1,-1.055085897E0,6.206207871E-1,1.261399537E-1
2.423498537E1,-1.021947503E0,4.494308829E-1,9.422318637E-2
2.424413698E1,-9.909469485E-1,2.539597452E-1,4.016320780E-2
2.425328865E1,-9.633061290E-1,8.154810965E-2,-1.695101149E-2
2.426244026E1,-9.297095537E-1,-6.872031838E-2,-8.002099395E-2
2.427159193E1,-8.892409205E-1,-1.574458778E-1,-1.395785958E-1
2.428074354E1,-8.565605879E-1,-1.574458778E-1,-1.630962193E-1
2.428989521E1,-8.559496999E-1,-1.447708011E-1,-1.441599578E-1
2.429904683E1,-8.965710402E-1,-1.163664013E-1,-8.887827396E-2
2.430819849E1,-9.571976662E-1,-3.191677108E-2,-5.757235363E-2
2.431735011E1,-1.009883285E0,5.848862603E-2,-2.702999115E-2
2.432650177E1,-1.035080671E0,1.785201132E-1,-2.748812549E-3
2.433565339E1,-1.033706307E0,3.544441164E-1,1.175880991E-2
2.434480506E1,-1.032484531E0,4.961606860E-1,4.275931045E-3
2.435395667E1,-1.021794796E0,6.238277555E-1,-1.649287529E-2
2.436310834E1,-9.909469485E-1,7.791357040E-1,-4.932591692E-2
2.437225995E1,-9.600991607E-1,8.562551737E-1,-7.849387079E-2
2.438141162E1,-9.232956171E-1,8.206732869E-1,-8.551861346E-2
2.439056323E1,-8.947384953E-1,7.959339619E-1,-9.987352788E-2
2.439971490E1,-8.953493834E-1,8.108997345E-1,-1.273616552E-1
2.440886651E1,-8.912261724E-1,7.795938253E-1,-1.542389393E-1
2.441801818E1,-8.780929446E-1,6.945333481E-1,-1.705790907E-1
2.442716980E1,-8.522846103E-1,5.656445622E-1,-1.733279079E-1
2.443632146E1,-8.060129285E-1,4.048390090E-1,-1.630962193E-1
2.444547308E1,-7.615737915E-1,2.733541429E-1,-1.805053651E-1
2.445462474E1,-7.492041588E-1,2.082989216E-1,-2.199050188E-1
2.446377636E1,-7.530219555E-1,1.762294322E-1,-2.644968629E-1
2.447292802E1,-7.432484031E-1,1.452289373E-1,-3.005368412E-1
2.448207964E1,-7.171346545E-1,1.151447073E-1,-3.205420971E-1
2.449123131E1,-6.933116317E-1,1.404948682E-1,-3.202366829E-1
2.450038292E1,-7.072083950E-1,2.525853515E-1,-3.119902313E-1
2.450953459E1,-7.588250041E-1,3.736858070E-1,-2.977880239E-1
2.451868620E1,-8.399149776E-1,4.651601911E-1,-2.874036431E-1
2.452783787E1,-9.312366247E-1,5.511369109E-1,-2.874036431E-1
2.453698948E1,-9.874345660E-1,5.589252710E-1,-2.939702570E-1
2.454614115E1,-1.000415087E0,5.045598149E-1,-2.970244884E-1
2.455529276E1,-9.943066239E-1,4.456130862E-1,-3.080197275E-1
2.456444443E1,-9.921686649E-1,3.591781855E-1,-3.280249834E-1
2.457359605E1,-9.912523627E-1,2.554868758E-1,-3.579564989E-1
2.458273495E1,-9.819369912E-1,2.041756958E-1,-3.962871730E-1
2.459189933E1,-9.706363082E-1,2.680092454E-1,-4.193466306E-1
2.460105099E1,-9.602518678E-1,4.072824121E-1,-4.005630910E-1
2.461018985E1,-9.791881442E-1,5.635066032E-1,-3.446705639E-1
2.461935427E1,-1.020573020E0,6.972821355E-1,-3.138227761E-1
2.462850589E1,-1.033248186E0,8.226585388E-1,-3.200839758E-1
2.463765756E1,-9.675820470E-1,9.239065051E-1,-3.185568452E-1
2.464680917E1,-8.188407421E-1,9.448279738E-1,-2.997733057E-1
2.465596084E1,-6.007682681E-1,8.806890249E-1,-2.707580328E-1
2.466511245E1,-3.397837877E-1,7.673768401E-1,-2.498365343E-1
2.467426407E1,-4.046862945E-2,6.630746722E-1,-2.446443290E-1
2.468341573E1,2.771719396E-1,6.418477297E-1,-2.533488870E-1
2.469256740E1,5.853443742E-1,7.162184119E-1,-2.848075330E-1
2.470171901E1,8.829796910E-1,8.299887180E-1,-3.268032968E-1
2.471087063E1,1.163053155E0,8.820634484E-1,-3.571929336E-1
2.472002230E1,1.410140872E0,8.066238165E-1,-3.449759781E-1
2.472917391E1,1.595380306E0,6.172611713E-1,-2.922904193E-1
2.473832558E1,1.691436052E0,3.958290219E-1,-2.351761907E-1
2.474747719E1,1.754811406E0,1.786728203E-1,-1.772984117E-1
2.475662886E1,1.861251593E0,-4.382828996E-2,-1.171299592E-1
2.476578052E1,2.028929234E0,-2.861819267E-1,-5.955760926E-2
2.477491938E1,2.222873211E0,-5.821374655E-1,1.710372418E-2
2.478408381E1,2.430255890E0,-8.448017836E-1,8.597674966E-2
2.479323542E1,2.615037203E0,-9.836167693E-1,1.160609797E-1
2.480238709E1,2.742246151E0,-9.382613897E-1,9.254335612E-2
2.481153870E1,2.788365126E0,-8.215895891E-1,4.321744293E-2
2.482069037E1,2.769276142E0,-7.397360206E-1,-8.246437646E-3
2.482984198E1,2.725447655E0,-7.153021693E-1,-4.825693369E-2
2.483899360E1,2.670318842E0,-6.829272509E-1,-5.787777901E-2
2.484814526E1,2.627254009E0,-6.287145615E-1,-3.802524135E-2
2.485729693E1,2.626185179E0,-6.007682681E-1,1.817270555E-2
2.486644854E1,2.673678398E0,-6.378772259E-1,8.139539510E-2
2.487560021E1,2.739802599E0,-6.801784039E-1,1.374406368E-1
2.488475183E1,2.775689840E0,-6.420004964E-1,1.737860441E-1
2.489390349E1,2.756753683E0,-5.323534012E-1,2.034121305E-1
2.490305511E1,2.681772232E0,-3.642176688E-1,2.339545041E-1
2.491220677E1,2.583884001E0,-1.745496094E-1,2.501419485E-1
2.492135839E1,2.506153584E0,-5.146388337E-2,2.843494117E-1
2.493051006E1,2.468739271E0,-1.466033421E-2,3.206948042E-1
2.493966167E1,2.452399015E0,9.620844387E-3,3.590254784E-1
2.494881334E1,2.429950476E0,2.397575416E-2,3.881934285E-1
2.495796495E1,2.402156830E0,8.551862091E-3,4.185830951E-1
2.496711662E1,2.366269588E0,-1.227803007E-1,4.665345848E-1
2.497626823E1,2.337407112E0,-3.756710589E-1,5.099047422E-1
2.498541990E1,2.343209982E0,-6.734591126E-1,5.016583204E-1
2.499457151E1,2.358939409E0,-9.092461467E-1,4.634803534E-1
2.500372318E1,2.335727215E0,-1.049893737E0,4.236225784E-1
2.501287480E1,2.254331827E0,-1.183211088E0,3.952181637E-1
2.502202646E1,2.127733707E0,-1.332410574E0,3.649812341E-1
2.503117808E1,1.997928619E0,-1.429840684E0,3.281776905E-1
2.504032974E1,1.909050345E0,-1.458397865E0,2.909159958E-1
2.504948136E1,1.853005171E0,-1.461604834E0,2.568612695E-1
2.505863302E1,1.789171576E0,-1.461299300E0,2.223484069E-1
2.506778464E1,1.694490314E0,-1.410293579E0,1.977618039E-1
2.507692355E1,1.583163381E0,-1.307518601E0,1.882936656E-1
2.508608792E1,1.465117097E0,-1.200925708E0,1.977618039E-1
2.509523959E1,1.349208832E0,-1.127624035E0,1.988307834E-1
2.510439120E1,1.247960925E0,-1.037371397E0,1.772984117E-1
2.511354287E1,1.133274436E0,-8.648070097E-1,1.403421611E-1
2.512269448E1,9.940012097E-1,-6.482616663E-1,1.043021679E-1
2.513184615E1,8.420529366E-1,-4.550811946E-1,8.368607610E-2
2.514099776E1,6.716265678E-1,-2.907632887E-1,9.819369763E-2
2.515014943E1,5.060869455E-1,-1.408002973E-1,1.517955512E-1
2.515930105E1,3.593308926E-1,-2.275406010E-2,2.191414535E-1
2.516845271E1,2.144073844E-1,2.061609551E-2,2.840439677E-1
2.517760433E1,7.650861889E-2,-2.748812735E-2,3.501681983E-1
2.518675599E1,-4.703523964E-2,-8.948912472E-2,3.982724249E-1
2.519590761E1,-1.490467340E-1,-5.176930502E-2,4.085040987E-1
2.520505927E1,-2.426590770E-1,8.429691941E-2,3.833066523E-1
2.521421089E1,-3.321481943E-1,1.881409585E-1,3.411581814E-1
2.522336256E1,-4.056025743E-1,1.540862173E-1,2.965663373E-1
2.523251417E1,-4.694361091E-1,2.596100792E-3,2.638860047E-1
2.524166584E1,-5.610632300E-1,-1.579040140E-1,2.408265322E-1
2.525081745E1,-7.073611021E-1,-2.057028115E-1,2.336490750E-1
2.525996912E1,-8.788564801E-1,-1.287360638E-1,2.654131353E-1
2.526912073E1,-1.056613088E0,-6.795676053E-2,3.159607351E-1
2.527827240E1,-1.223832488E0,-5.971032009E-2,3.611634374E-1
2.528742401E1,-1.347834468E0,-1.218640283E-1,3.640649617E-1
2.529656292E1,-1.358829737E0,-1.088835225E-1,3.048127890E-1
2.530572730E1,-1.178935170E0,9.040539712E-2,2.002051920E-1
2.531487896E1,-1.085933685E0,5.919110179E-1,1.895153672E-1
2.532401787E1,-1.384943485E0,9.697200060E-1,3.214583695E-1
2.533318224E1,-1.728697777E0,7.258392572E-1,4.810422063E-1
2.534233386E1,-1.712815762E0,4.361449480E-1,6.792621613E-1
2.535147276E1,-1.543611050E0,7.866185308E-1,8.840487003E-1
2.536063719E1,-1.464048147E0,1.414111376E0,8.689302206E-1
2.536978881E1,-1.597365618E0,1.143506050E0,6.288672686E-1
2.537892771E1,-1.907523274E0,7.762341499E-1,3.729222417E-1
2.538809209E1,-2.041604280E0,7.999044657E-1,2.906105816E-1
2.539724375E1,-1.865069389E0,8.196043372E-1,3.310792148E-1
2.540638261E1,-1.581941724E0,6.201626658E-1,3.788780272E-1
2.541554704E1,-1.415027618E0,4.234698713E-1,4.071297050E-1
2.542469865E1,-1.439614296E0,4.005630910E-1,4.204156399E-1
2.543383756E1,-1.524216652E0,4.042281806E-1,4.472928941E-1
2.544300193E1,-1.600267053E0,3.475720882E-1,4.908157587E-1
2.545215360E1,-1.575833201E0,2.463241518E-1,4.732539058E-1
2.546130521E1,-1.463131905E0,1.569877416E-1,3.733803928E-1
2.547045688E1,-1.335770249E0,4.092676565E-2,2.412846684E-1
2.547960849E1,-1.231620789E0,-4.611896724E-2,1.114796251E-1
2.548874740E1,-1.172674060E0,-3.863608837E-2,2.993151546E-2
2.549791177E1,-1.191610336E0,7.941014320E-2,-1.527118147E-4
2.550706344E1,-1.228108406E0,2.415900975E-1,2.137965336E-2
2.551621506E1,-1.235285878E0,2.693836391E-1,6.474980712E-2
2.552536672E1,-1.213295341E0,2.533488870E-1,1.033858955E-1
2.553451834E1,-1.180920482E0,2.113531530E-1,1.346918195E-1
2.554367000E1,-1.119683027E0,1.174353883E-1,1.438545287E-1
2.555282162E1,-1.041036487E0,-3.924693540E-2,1.194206402E-1
2.556197328E1,-9.542961121E-1,-1.579040140E-1,7.742489129E-2
2.557112490E1,-8.950439692E-1,-2.044811249E-1,3.084778599E-2
2.558027657E1,-8.690829277E-1,-1.889045089E-1,-2.214321308E-2
2.558942823E1,-8.493831158E-1,-1.548497826E-1,-8.735115826E-2
2.559857985E1,-8.448017836E-1,-3.741439432E-2,-1.246128380E-1
2.560773151E1,-8.753440976E-1,8.246438205E-2,-1.279724985E-1
2.561688313E1,-9.506310225E-1,2.192941606E-1,-1.041494608E-1
2.562603480E1,-1.025459886E0,3.633013964E-1,-6.322269142E-2
2.563518641E1,-1.057834744E0,4.387410581E-1,-1.847812906E-2
2.564433808E1,-1.059209108E0,4.413371384E-1,2.000524849E-2
2.565348969E1,-1.035996914E0,3.907895386E-1,4.947862774E-2
2.566264136E1,-9.991934299E-1,2.673983872E-1,7.681404054E-2
2.567179297E1,-9.462023973E-1,1.252236813E-1,7.666133344E-2
2.568094464E1,-8.967237473E-1,4.382828996E-2,4.703523964E-2
2.569009625E1,-8.765658140E-1,7.757759839E-2,1.007897966E-2
2.569924792E1,-8.903098702E-1,1.165191159E-1,-1.878355257E-2
2.570839954E1,-9.144383669E-1,1.249182671E-1,-2.809897438E-2
2.571755120E1,-9.165763259E-1,7.864658535E-2,-1.710372418E-2
2.572670282E1,-9.217684865E-1,4.550812021E-2,6.108472589E-4
2.573585448E1,-9.645278454E-1,1.304158866E-1,6.872031838E-3
2.574500610E1,-9.917105436E-1,2.122694254E-1,-1.099525020E-2
2.575415776E1,-9.718579650E-1,2.098260373E-1,-3.970507160E-2
2.576330938E1,-9.297095537E-1,2.002051920E-1,-6.505523622E-2
2.577246104E1,-8.973346353E-1,2.440334857E-1,-8.857285231E-2
2.578161266E1,-8.603783846E-1,3.211529553E-1,-9.819369763E-2
2.579076433E1,-8.212841153E-1,4.352286756E-1,-9.605573118E-2
2.579991599E1,-8.084563613E-1,5.798467398E-1,-9.116895497E-2
2.580906761E1,-8.134958148E-1,7.383615971E-1,-9.575030953E-2
2.581821927E1,-8.467870355E-1,8.900044560E-1,-1.015533581E-1
2.582737089E1,-8.808417320E-1,9.736905098E-1,-1.171299592E-1
2.583652256E1,-8.846595287E-1,9.923213720E-1,-1.195733473E-1
2.584567417E1,-8.854231238E-1,9.955283403E-1,-1.097997949E-1
2.585482584E1,-9.037485123E-1,9.170344472E-1,-9.452861547E-2
2.586397745E1,-9.257390499E-1,7.977665067E-1,-8.002099395E-2
2.587312912E1,-9.468132257E-1,7.525638342E-1,-8.261708915E-2
2.588228073E1,-9.607100487E-1,7.272136807E-1,-1.021642014E-1
2.589143240E1,-9.773555994E-1,5.975613594E-1,-1.247655526E-1
2.590058401E1,-9.936957955E-1,4.395045936E-1,-1.394258887E-1
2.590973568E1,-1.008050680E0,3.290939629E-1,-1.693574041E-1
2.591888730E1,-9.987352490E-1,2.011214644E-1,-2.260134816E-1
2.592803896E1,-9.921686649E-1,5.100574717E-2,-2.747285664E-1
2.593719063E1,-9.827005267E-1,-3.344388679E-2,-3.093941510E-1
2.594634224E1,-9.617789984E-1,-1.191152167E-2,-3.263451457E-1
2.595549386E1,-9.539906979E-1,-9.162708884E-4,-3.086305857E-1
2.596464552E1,-9.585720897E-1,-1.527118147E-4,-2.609844804E-1
2.597379719E1,-9.718579650E-1,9.773556143E-2,-2.124221325E-1
2.598293605E1,-1.003774762E0,1.982199401E-1,-1.913478971E-1
2.599210047E1,-1.037982225E0,3.156553209E-1,-1.977618039E-1
2.600125209E1,-1.071273327E0,5.247178078E-1,-2.090624720E-1
2.601040375E1,-1.107618809E0,7.440119386E-1,-2.266243398E-1
2.601955537E1,-1.143811464E0,8.703046441E-1,-2.556395829E-1
2.602870704E1,-1.156639338E0,8.845068216E-1,-3.093941510E-1
2.603784594E1,-1.121973753E0,8.342646360E-1,-3.750602305E-1
2.604701032E1,-1.042563558E0,8.011261821E-1,-4.263713956E-1
2.605616193E1,-9.556705356E-1,8.180772066E-1,-4.398100376E-1
2.606530084E1,-8.984035850E-1,8.724426031E-1,-4.114056230E-1
2.607446521E1,-8.470924497E-1,9.662076235E-1,-3.733803928E-1
2.608361688E1,-7.467607856E-1,1.108687758E0,-3.275668323E-1
2.609275578E1,-5.601469278E-1,1.238187432E0,-2.707580328E-1
2.610192016E1,-2.942756712E-1,1.319582820E0,-2.163926363E-1
2.611107183E1,3.466558084E-2,1.330425382E0,-1.762294322E-1
2.612021068E1,4.014793634E-1,1.255138397E0,-1.815743446E-1
2.612937511E1,7.869240046E-1,1.132510781E0,-2.678565085E-1
2.613852672E1,1.174964666E0,1.000109673E0,-3.816268146E-1
2.614767839E1,1.530783176E0,8.243383765E-1,-4.802786708E-1
2.615683000E1,1.836970448E0,5.305208564E-1,-5.250232220E-1
2.616598167E1,2.084363461E0,1.441599578E-1,-5.027272701E-1
2.617512052E1,2.258302212E0,-2.626643181E-1,-4.353813827E-1
2.618428495E1,2.371003628E0,-6.464291215E-1,-3.268032968E-1
2.619343657E1,2.466753960E0,-9.290986657E-1,-1.989834905E-1
2.620258823E1,2.585563660E0,-1.108076930E0,-8.567132801E-2
2.621173985E1,2.738886356E0,-1.203369141E0,-1.527118147E-4
2.622089151E1,2.905800343E0,-1.225664973E0,7.116370648E-2
2.623004313E1,3.036827087E0,-1.083643079E0,1.068982705E-1
2.623919480E1,3.098828077E0,-8.267817497E-1,1.023169160E-1
2.624834646E1,3.074241638E0,-5.401417017E-1,6.765133142E-2
2.625749808E1,2.987806559E0,-3.723114133E-1,2.718270384E-2
2.626664974E1,2.888238668E0,-3.266505599E-1,2.412846684E-2
2.627580136E1,2.818296432E0,-3.086305857E-1,4.856235534E-2
2.628495302E1,2.816463947E0,-3.301629424E-1,9.743013978E-2
2.629410464E1,2.878617764E0,-4.382829070E-1,1.766875684E-1
2.630325631E1,2.955431700E0,-5.902311802E-1,2.580829561E-1
2.631240792E1,3.004299641E0,-6.991146803E-1,3.011476994E-1
2.632155959E1,3.003841400E0,-7.146912813E-1,3.170297146E-1
2.633071120E1,2.960776567E0,-6.169557571E-1,3.503209054E-1
2.633985011E1,2.890376568E0,-4.585935771E-1,3.680354655E-1
2.634901448E1,2.822419643E0,-3.634541333E-1,3.631486893E-1
2.635816615E1,2.764847517E0,-3.509317636E-1,3.724641204E-1
2.636731776E1,2.720713615E0,-3.697153032E-1,3.715478480E-1
2.637646943E1,2.690476656E0,-3.703261614E-1,3.793361485E-1
2.638562110E1,2.686048031E0,-2.973299026E-1,3.956763148E-1
2.639477271E1,2.699486732E0,-2.754921019E-1,3.964398801E-1
2.640392438E1,2.667722702E0,-4.349232614E-1,3.608580232E-1
2.641307599E1,2.593046665E0,-6.936170459E-1,3.220692277E-1
2.642221490E1,2.509818792E0,-8.974873424E-1,3.179459870E-1
2.643137927E1,2.431324720E0,-1.001178622E0,3.009949923E-1
2.644053094E1,2.357564926E0,-1.074022174E0,2.553341687E-1
2.644966985E1,2.284568787E0,-1.084559321E0,1.998997629E-1
2.645883422E1,2.215543032E0,-1.068524599E0,1.438545287E-1
2.646798584E1,2.124526739E0,-1.123806238E0,9.804098308E-2
2.647713750E1,2.032747030E0,-1.194511771E0,6.627693027E-2
2.648628912E1,1.969524264E0,-1.212226391E0,5.543438718E-2
2.649544079E1,1.931651711E0,-1.197107911E0,5.818320066E-2
2.650459240E1,1.919129372E0,-1.183211088E0,7.528692484E-2
2.651374407E1,1.903400064E0,-1.141673565E0,9.407047927E-2
2.652289573E1,1.832236409E0,-1.056154966E0,1.099525094E-1
2.653203459E1,1.696933627E0,-9.477295280E-1,1.241547018E-1
2.654119901E1,1.523147583E0,-8.244910836E-1,1.320957243E-1
2.655035063E1,1.351194143E0,-6.975875497E-1,1.337755471E-1
2.655950230E1,1.225512266E0,-5.741963983E-1,1.455343664E-1
2.656865391E1,1.131441832E0,-5.326588154E-1,1.681357026E-1
2.657780558E1,1.023779988E0,-5.755708218E-1,1.887518018E-1
2.658695719E1,9.003888369E-1,-5.593833923E-1,1.969982386E-1
2.659610886E1,7.716528177E-1,-4.288147688E-1,1.875301152E-1
2.660526052E1,6.682668924E-1,-2.194468826E-1,1.634016484E-1
2.661441214E1,6.016845703E-1,-8.704573847E-3,1.383569092E-1
2.662356381E1,5.407525301E-1,6.765133142E-2,1.311794519E-1
2.663271542E1,4.573718905E-1,2.168507688E-2,1.354553849E-1
2.664186709E1,3.452814221E-1,-7.895200700E-2,1.572931707E-1
2.665101870E1,2.086043358E-1,-1.748550236E-1,1.875301152E-1
2.666017037E1,7.803573459E-2,-2.009687424E-1,1.896680743E-1
2.666932198E1,-3.695625812E-2,-1.495048702E-1,1.809635013E-1
2.667847365E1,-1.075091213E-1,-4.947862774E-2,1.858502775E-1
2.668762526E1,-1.568350345E-1,7.711946964E-2,2.067717910E-1
2.669677693E1,-2.292204350E-1,1.782146841E-1,2.240282297E-1
2.670592855E1,-3.437542915E-1,2.269297540E-1,2.402156889E-1
2.671508021E1,-4.880669713E-1,2.249445021E-1,2.660239935E-1
2.672423188E1,-6.308525205E-1,1.801999360E-1,2.895416021E-1
2.673338349E1,-7.554653287E-1,1.186570823E-1,3.112266660E-1
2.674253516E1,-8.495358229E-1,8.612946421E-2,3.362714052E-1
2.675168677E1,-8.927532434E-1,7.345438004E-2,3.671191931E-1
2.676083844E1,-9.193251133E-1,-5.344913341E-3,3.852919042E-1
2.676999006E1,-9.568922520E-1,-1.554606259E-1,3.961344361E-1
2.677914172E1,-1.028361320E0,-2.893888950E-1,3.901786804E-1
2.678829334E1,-1.181836724E0,-2.800734639E-1,3.744493723E-1
2.679744500E1,-1.324774981E0,-1.418692768E-1,3.422271907E-1
2.680658391E1,-1.346307397E0,9.468132257E-2,2.796153426E-1
2.681574828E1,-1.285375357E0,2.742704153E-1,2.371614426E-1
2.682489995E1,-1.026834249E0,2.377723008E-1,2.334963679E-1
2.683403881E1,-5.244123936E-1,1.340809762E-1,3.067980409E-1
2.684320323E1,-3.020639718E-1,6.810946763E-2,4.640912116E-1
2.685235485E1,-7.237012982E-1,-1.068982761E-3,6.406260729E-1
2.686149375E1,-1.274380088E0,-1.415638477E-1,6.925480962E-1
2.687065813E1,-1.451067686E0,-2.090624720E-1,6.009209752E-1
2.687980980E1,-1.408613801E0,8.689302206E-2,4.752391577E-1
2.688894870E1,-1.278808713E0,6.113054156E-1,3.005368412E-1
2.689811308E1,-1.057834744E0,8.008207679E-1,1.308740228E-1
2.690726474E1,-9.182561636E-1,5.868715048E-1,8.567132801E-2
2.691640360E1,-1.001025915E0,3.515425920E-1,1.719534993E-1
2.692556802E1,-1.231620789E0,4.239279926E-1,2.893888950E-1
2.693471964E1,-1.423426867E0,6.342121959E-1,3.373403847E-1
2.694385854E1,-1.459161401E0,7.062921524E-1,3.058817685E-1
2.695302292E1,-1.408461094E0,7.249229550E-1,2.646495700E-1
2.696217459E1,-1.409835458E0,6.800256968E-1,2.244863659E-1
2.697131349E1,-1.441446781E0,5.763344169E-1,2.066190839E-1
2.698047787E1,-1.435338378E0,4.969242513E-1,2.231119573E-1
2.698962948E1,-1.398992896E0,4.187358022E-1,2.411319613E-1
2.699878115E1,-1.339893460E0,2.211267054E-1,2.637332976E-1
2.700793282E1,-1.305380583E0,5.329642445E-2,3.104631305E-1
2.701708443E1,-1.316223145E0,1.360662282E-1,3.622324169E-1
2.702622334E1,-1.400061965E0,3.402419090E-1,3.804051280E-1
2.703538771E1,-1.465575337E0,5.123481154E-1,3.603998721E-1
2.704453938E1,-1.411209822E0,5.792359114E-1,3.350497186E-1
2.705369099E1,-1.300951958E0,5.861079693E-1,3.370349705E-1
2.706284266E1,-1.228261113E0,5.850389600E-1,3.478775024E-1
2.707199427E1,-1.187639832E0,4.680617154E-1,3.086305857E-1
2.708114594E1,-1.127776742E0,2.889307439E-1,2.444916219E-1
2.709029761E1,-1.040731072E0,1.785201132E-1,1.638597846E-1
2.709944922E1,-9.527690411E-1,8.918370306E-2,8.276980370E-2
2.710860089E1,-9.101623893E-1,4.199574888E-2,2.199050039E-2
2.711775250E1,-9.153546095E-1,9.315420687E-2,-5.497625098E-3
2.712690417E1,-9.431481957E-1,1.496575773E-1,3.970507067E-3
2.713605578E1,-9.246700406E-1,2.072299272E-1,5.161659420E-2
2.714520745E1,-8.660287261E-1,2.339545041E-1,1.125486046E-1
2.715435907E1,-7.982246280E-1,2.018850148E-1,1.801999360E-1
2.716351073E1,-7.614210844E-1,2.021904439E-1,2.367033064E-1
2.717266240E1,-7.623373866E-1,1.551551968E-1,2.605263591E-1
2.718181401E1,-7.652388811E-1,6.062658876E-2,2.666348219E-1
2.719096568E1,-7.272136807E-1,-4.184303805E-2,2.469350100E-1
2.720011730E1,-6.568135023E-1,-1.123958975E-1,2.003578991E-1
2.720926896E1,-5.945070982E-1,-9.926267713E-2,1.458397806E-1
2.721842058E1,-5.552601814E-1,-1.217113137E-1,9.544488788E-2
2.722757224E1,-5.378510356E-1,-1.151447073E-1,6.994201243E-2
2.723672386E1,-5.137225389E-1,-7.101099193E-2,7.620319724E-2
2.724587552E1,-4.859289825E-1,-7.635590620E-3,9.956810623E-2
2.725502719E1,-5.095993280E-1,8.322793990E-2,9.804098308E-2
2.726417881E1,-5.699204803E-1,1.536280811E-1,8.108997345E-2
2.727333047E1,-6.227588058E-1,2.078407854E-1,7.513421029E-2
2.728248209E1,-6.365028620E-1,2.348707765E-1,7.024743408E-2
2.729163375E1,-6.087092757E-1,1.595838517E-1,6.001574174E-2
2.730078537E1,-6.007682681E-1,9.743013978E-2,5.100574717E-2
2.730993704E1,-6.087092757E-1,9.208522737E-2,5.161659420E-2
2.731908870E1,-6.108472347E-1,5.696150661E-2,5.405998230E-2
2.732824032E1,-5.983248949E-1,3.298575059E-2,4.749337584E-2
2.733739198E1,-5.729747415E-1,2.458660305E-2,3.359659761E-2
2.734654360E1,-5.644228458E-1,-2.382304333E-2,2.397575416E-2
2.735569526E1,-5.935907960E-1,-5.390727147E-2,1.267508045E-2
2.736484688E1,-6.285618544E-1,-1.068982668E-2,-4.123218823E-3
2.737399855E1,-6.507050395E-1,7.055285573E-2,-2.199050039E-2
2.738315016E1,-6.407787800E-1,7.238540053E-2,-2.672456764E-2
2.739230183E1,-6.329904795E-1,8.506047726E-2,-9.620844387E-3
2.740145349E1,-6.497887969E-1,1.521009654E-1,1.695101149E-2
2.741060511E1,-6.884248853E-1,1.942494214E-1,3.680354729E-2
2.741975677E1,-7.186617851E-1,2.002051920E-1,4.214845970E-2
2.742890839E1,-7.069029808E-1,1.930277348E-1,3.802524135E-2
2.743806006E1,-6.536065936E-1,1.768402755E-1,2.428117767E-2
2.744721167E1,-5.845808387E-1,1.081199646E-1,1.679830020E-3
2.745636334E1,-5.401417017E-1,3.344388679E-2,-1.511846948E-2
2.746551495E1,-5.268557668E-1,4.428642802E-3,-2.351761982E-2
2.747466662E1,-5.311316848E-1,-9.162708884E-4,-2.473931387E-2
2.748381828E1,-5.512896776E-1,3.939964995E-2,-1.634016447E-2
2.749296990E1,-5.804576278E-1,1.304158866E-1,4.734066315E-3
2.750212157E1,-6.125270724E-1,1.870719790E-1,3.191677108E-2
2.751127318E1,-6.464291215E-1,1.696628332E-1,5.314370990E-2
2.752042485E1,-6.757497787E-1,1.473668963E-1,6.749862432E-2
2.752957646E1,-7.017107606E-1,1.443126649E-1,6.551336497E-2
2.753872813E1,-7.079719901E-1,1.600419879E-1,5.940489471E-2
2.754787974E1,-6.730009913E-1,1.805053651E-1,5.467082933E-2
2.755703141E1,-6.248967648E-1,1.841704547E-1,5.925218388E-2
2.756618308E1,-5.900784731E-1,1.505738497E-1,5.711421743E-2
2.757533469E1,-5.676298141E-1,1.143811494E-1,6.047387794E-2
2.758448636E1,-5.700731874E-1,1.072036922E-1,6.841489673E-2
2.759363797E1,-5.812211633E-1,1.233911440E-1,6.642963737E-2
2.760278964E1,-5.906893015E-1,1.517955512E-1,6.139015034E-2
2.761194131E1,-6.088619828E-1,1.661504507E-1,7.162184268E-2
2.762109292E1,-6.371136904E-1,1.608055383E-1,7.879929990E-2
2.763024459E1,-6.494833231E-1,1.517955512E-1,8.674030751E-2
2.763939620E1,-6.387935281E-1,1.294996142E-1,8.674030751E-2
2.764854787E1,-6.184828281E-1,6.612421572E-2,7.406523079E-2
2.765769948E1,-5.806103349E-1,-1.939439960E-2,4.031591862E-2
2.766685115E1,-5.265503526E-1,-3.955236077E-2,-6.413896102E-3
2.767600276E1,-5.005893111E-1,4.902049154E-2,-4.413371533E-2
2.768515443E1,-5.051707029E-1,1.591257155E-1,-5.818320066E-2
2.769430610E1,-5.323534012E-1,2.218902707E-1,-5.299099907E-2
2.770345771E1,-5.679352283E-1,2.689255178E-1,-4.107947648E-2
2.771260938E1,-6.068767309E-1,3.429907262E-1,-2.611372061E-2
2.772176099E1,-6.345176101E-1,3.923166394E-1,-1.053711493E-2
2.773091266E1,-6.442911625E-1,3.677300513E-1,9.009997360E-3
2.774006427E1,-6.503996253E-1,3.552076817E-1,3.161134571E-2
2.774921594E1,-6.725428104E-1,3.539859951E-1,5.146388337E-2
2.775836761E1,-7.142331600E-1,3.177932799E-1,6.169557199E-2
2.776751922E1,-7.426375747E-1,2.629697323E-1,5.543438718E-2
2.777667089E1,-7.398887277E-1,2.417428046E-1,3.283303976E-2
2.778582250E1,-7.094991207E-1,2.194468826E-1,1.038440317E-2
2.779497417E1,-6.566607952E-1,1.670667231E-1,5.344913341E-3
2.780412578E1,-6.195518374E-1,1.449235082E-1,2.031067200E-2
2.781327745E1,-6.119162440E-1,1.817270666E-1,3.374931216E-2
2.782242912E1,-6.274928451E-1,2.028012872E-1,4.520269856E-2
2.783158073E1,-6.479562521E-1,2.082989216E-1,4.642439261E-2
2.784073240E1,-6.383354068E-1,2.576248348E-1,2.199050039E-2
2.784988401E1,-6.010736823E-1,3.069507480E-1,-1.878355257E-2
2.785903568E1,-5.745018721E-1,3.139754832E-1,-4.902049154E-2
2.786818730E1,-5.601469278E-1,3.634541333E-1,-6.123743951E-2
2.787733896E1,-5.540384650E-1,4.460712075E-1,-6.612421572E-2
2.788649063E1,-5.476245880E-1,4.851654470E-1,-6.490252167E-2
2.789564224E1,-5.372401476E-1,5.128062963E-1,-6.474980712E-2
2.790479391E1,-5.167768002E-1,5.598415136E-1,-6.536065787E-2
2.791394552E1,-4.946335554E-1,5.677825212E-1,-6.276455522E-2
2.792309719E1,-4.848600030E-1,5.661026835E-1,-4.672981426E-2
2.793224886E1,-4.871506989E-1,6.088619828E-1,-2.916795574E-2
2.794140047E1,-4.999784827E-1,5.951179266E-1,-2.367033064E-2
2.795055214E1,-5.022691488E-1,5.004366040E-1,-2.855710872E-2
2.795970375E1,-4.894413650E-1,4.599680007E-1,-5.344913527E-2
2.796885542E1,-4.556920528E-1,4.953971207E-1,-8.506047726E-2
2.797800704E1,-4.129327536E-1,4.792096615E-1,-9.758284688E-2
2.798715870E1,-3.903313875E-1,4.280512035E-1,-9.239064902E-2
2.799631037E1,-3.828485310E-1,4.104893506E-1,-9.239064902E-2
2.800546198E1,-3.819322586E-1,3.869717419E-1,-9.849911928E-2
2.801461365E1,-3.970507085E-1,3.490992188E-1,-1.033858955E-1
2.802376526E1,-4.023956358E-1,3.321481943E-1,-1.064401343E-1
2.803291693E1,-3.608580232E-1,2.973299026E-1,-1.024696305E-1
2.804206855E1,-2.820587158E-1,2.244863659E-1,-8.658760041E-2
2.805122021E1,-2.176143378E-1,1.921114624E-1,-7.269082218E-2
2.806037183E1,-1.809635013E-1,2.247917950E-1,-6.642963737E-2
2.806952349E1,-1.719534993E-1,2.434226274E-1,-7.116370648E-2
2.807867516E1,-1.803526580E-1,2.289150059E-1,-8.475505561E-2
2.808782677E1,-1.931804419E-1,2.186833173E-1,-9.330692142E-2
2.809697844E1,-1.980672181E-1,2.101314515E-1,-9.636115283E-2
2.810613006E1,-1.831014603E-1,1.884463727E-1,-9.391776472E-2
2.811528172E1,-1.545443535E-1,1.627907902E-1,-8.139539510E-2
2.812443339E1,-1.305686086E-1,1.664558798E-1,-6.719319522E-2
2.813358500E1,-1.116323397E-1,1.858502775E-1,-5.726693198E-2
2.814273667E1,-1.050657257E-1,1.973036677E-1,-5.176930502E-2
2.815188829E1,-1.356080920E-1,1.701209545E-1,-5.696150661E-2
2.816103995E1,-1.979145110E-1,1.198787764E-1,-7.498150319E-2
2.817019157E1,-2.819060087E-1,7.925742865E-2,-9.391776472E-2
2.817934323E1,-3.623851240E-1,5.253286287E-2,-1.090362370E-1
2.818849490E1,-4.097257853E-1,4.474456236E-2,-1.166718230E-1
2.819764651E1,-4.129327536E-1,5.604523420E-2,-1.229330078E-1
2.820679818E1,-3.805578351E-1,2.779355086E-2,-1.238492802E-1
2.821594980E1,-3.434488773E-1,4.428642802E-3,-1.235438585E-1
2.822510146E1,-3.365768492E-1,6.704048812E-2,-1.204896197E-1
2.823425313E1,-3.588727713E-1,1.556133330E-1,-1.128540337E-1
2.824340474E1,-4.114056230E-1,1.670667231E-1,-1.046075895E-1
2.825255641E1,-4.874561131E-1,1.217113137E-1,-1.026223376E-1
2.826170802E1,-5.538857579E-1,9.559759498E-2,-1.061347127E-1
2.827085969E1,-5.902311802E-1,1.004843712E-1,-1.119377613E-1
2.828001131E1,-5.806103349E-1,1.246128380E-1,-1.137702987E-1
2.828916297E1,-5.315898061E-1,1.595838517E-1,-1.104106456E-1
2.829831464E1,-4.665345848E-1,1.904316396E-1,-1.117850468E-1
2.830746625E1,-4.240806997E-1,2.084516287E-1,-1.169772521E-1
2.831661792E1,-4.164451063E-1,1.947075576E-1,-1.290414780E-1
2.832576954E1,-4.321744442E-1,1.601946950E-1,-1.389677525E-1
2.833492120E1,-4.405735731E-1,1.307213157E-1,-1.389677525E-1
2.834407282E1,-4.150707126E-1,1.000262350E-1,-1.284306347E-1
2.835322448E1,-3.341334462E-1,6.597150117E-2,-1.046075895E-1
2.836237615E1,-2.096733153E-1,4.459185153E-2,-6.581879407E-2
2.837152776E1,-8.170082420E-2,6.368082762E-2,-2.825168520E-2
2.838067943E1,-1.985253580E-2,1.010952219E-1,-2.305948362E-2
2.838983104E1,-2.977880463E-2,1.082726792E-1,-3.649812192E-2
2.839898271E1,-6.551336497E-2,5.940489471E-2,-5.207473040E-2
2.840813433E1,-9.636115283E-2,-5.192201585E-3,-6.383354217E-2
2.841728599E1,-1.133121699E-1,-3.726168349E-2,-6.810946763E-2
2.842643766E1,-1.246128380E-1,-1.435491070E-2,-6.704048812E-2
2.843558927E1,-1.276670843E-1,4.413371533E-2,-6.093201414E-2
2.844474094E1,-1.250709742E-1,9.834641218E-2,-5.604523420E-2
2.845389256E1,-1.221694499E-1,1.212531775E-1,-5.909947306E-2
2.846304422E1,-1.250709742E-1,1.030804738E-1,-6.948387623E-2
2.847219584E1,-1.307213157E-1,5.421269313E-2,-8.353336155E-2
2.848134750E1,-1.328592747E-1,2.000524849E-2,-8.108997345E-2
2.849049917E1,-1.319430023E-1,3.512371704E-2,-5.971032009E-2
2.849965078E1,-1.351499557E-1,1.134648770E-1,-4.520269856E-2
2.850880245E1,-1.406475753E-1,1.881409585E-1,-4.657710344E-2
2.851795407E1,-1.406475753E-1,1.844758689E-1,-5.451811850E-2
2.852710573E1,-1.479777545E-1,1.133121699E-1,-6.368082762E-2
2.853625740E1,-1.725643575E-1,4.703523964E-2,-7.910472155E-2
2.854540901E1,-2.110477239E-1,1.618745178E-2,-9.086353332E-2
2.855456068E1,-2.425063550E-1,8.246437646E-3,-9.773556143E-2
2.856371230E1,-2.429644912E-1,1.068982761E-3,-9.544488788E-2
2.857286396E1,-2.078407854E-1,-9.162709117E-3,-8.170082420E-2
2.858201558E1,-1.609582454E-1,-2.046338283E-2,-7.101099193E-2
2.859116724E1,-1.159082651E-1,-3.359659761E-2,-6.765133142E-2
2.860031891E1,-7.253811508E-2,-4.978405312E-2,-6.856760383E-2
2.860947052E1,-3.588727489E-2,-7.986827940E-2,-6.642963737E-2
2.861862219E1,-3.268032894E-2,-1.070509851E-1,-6.810946763E-2
