"Time (s)","Gyroscope x (rad/s)","Gyroscope y (rad/s)","Gyroscope z (rad/s)"

7.294920245E0,-3.054236295E-3,1.740914769E-2,-2.932066843E-2
7.304071964E0,-8.093725890E-3,2.641914412E-2,-2.870982140E-2
7.313223735E0,-9.315420873E-3,2.932066843E-2,-2.626643144E-2
7.322375505E0,-6.261184346E-3,3.115320951E-2,-2.199050039E-2
7.331527224E0,-3.817795310E-3,3.008422814E-2,-1.771457121E-2
7.340678943E0,-9.315420873E-3,2.336490713E-2,-1.649287529E-2
7.349830662E0,-2.031067200E-2,1.313321572E-2,-1.847812906E-2
7.358982432E0,-2.092151903E-2,8.857285604E-3,-1.908897609E-2
7.368134151E0,-1.542389300E-2,1.191152167E-2,-1.893626526E-2
7.377285870E0,-9.315420873E-3,1.801999472E-2,-1.649287529E-2
7.386437641E0,-8.704573847E-3,2.092151903E-2,-1.771457121E-2
7.395589360E0,-9.926267900E-3,2.336490713E-2,-1.893626526E-2
7.404741078E0,-5.039489828E-3,1.969982497E-2,-2.076880634E-2
7.413892849E0,1.832541777E-3,1.435491070E-2,-1.710372418E-2
7.423044568E0,9.926267900E-3,3.054236295E-3,-1.328592747E-2
7.432196287E0,1.145338640E-2,-1.634016447E-2,-1.817270555E-2
7.441348057E0,5.955760833E-3,-3.268032894E-2,-2.733541466E-2
7.450499776E0,-5.039489828E-3,-3.573456407E-2,-3.726168349E-2
7.459651495E0,-1.740914769E-2,-2.305948362E-2,-4.337015375E-2
7.468803266E0,-2.183778957E-2,-8.704573847E-3,-4.398100078E-2
7.477954985E0,-1.710372418E-2,2.137965523E-3,-3.970507160E-2
7.487106755E0,-4.886778072E-3,1.068982668E-2,-3.115320951E-2
7.496258474E0,-6.108472589E-4,1.130067464E-2,-2.199050039E-2
7.505410193E0,-4.275931045E-3,1.068982668E-2,-1.527118124E-2
7.514561912E0,-1.236965694E-2,2.519745007E-2,-1.343864016E-2
7.523713682E0,-2.122694254E-2,5.176930502E-2,-1.114796288E-2
7.532865401E0,-2.702999115E-2,6.856760383E-2,-9.315420873E-3
7.542017120E0,-2.580829710E-2,7.040014863E-2,-5.039489828E-3
7.551168891E0,-2.519745007E-2,6.077930331E-2,3.512371797E-3
7.560320610E0,-2.809897438E-2,5.299099907E-2,6.566607859E-3
7.569472380E0,-2.733541466E-2,3.970507160E-2,1.068982761E-3
7.578624099E0,-2.107422985E-2,3.115320951E-2,-6.872031838E-3
7.587775818E0,-1.557660475E-2,2.336490713E-2,-1.160609815E-2
7.596927537E0,-1.771457121E-2,3.512371797E-3,-1.588202827E-2
7.606079307E0,-4.123218823E-3,-1.328592747E-2,-1.527118124E-2
7.615231026E0,-1.145338640E-2,-1.588202827E-2,-2.137965336E-2
7.624382797E0,-1.878355257E-2,-1.527118124E-2,-2.565558441E-2
7.633534516E0,-1.511846948E-2,-1.878355257E-2,-2.687728032E-2
7.642686235E0,-1.511846948E-2,-1.878355257E-2,-2.687728032E-2
7.651838005E0,-1.206423342E-2,-7.330167107E-3,-2.626643144E-2
7.660989724E0,-1.221694518E-2,1.007897966E-2,-2.321219631E-2
7.670141443E0,-9.315420873E-3,3.008422814E-2,-1.954711229E-2
7.679293214E0,3.970507067E-3,4.871506989E-2,-1.343864016E-2
7.688444932E0,4.581354558E-3,5.650337040E-2,-1.282779220E-2
7.697596703E0,-9.620844387E-3,5.222744122E-2,-1.832541823E-2
7.706748422E0,-1.389677543E-2,5.054761097E-2,-1.710372418E-2
7.715900141E0,-6.566607859E-3,5.238015205E-2,-1.404948719E-2
7.725051912E0,3.054236295E-4,5.360184610E-2,-1.466033421E-2
7.734203630E0,9.162708884E-4,4.627167806E-2,-1.771457121E-2
7.743355401E0,-5.803049076E-3,4.138490185E-2,-2.076880634E-2
7.752507068E0,-1.878355257E-2,4.504998401E-2,-2.214321308E-2
7.761658839E0,-2.916795574E-2,5.100574717E-2,-2.092151903E-2
7.770810557E0,-3.497100621E-2,5.650337040E-2,-1.542389300E-2
7.779962276E0,-2.489202656E-2,4.932591692E-2,-1.053711493E-2
7.789114047E0,-1.252236869E-2,3.191677108E-2,-1.038440317E-2
7.798265766E0,1.832541777E-3,1.435491070E-2,-1.343864016E-2
7.807417485E0,1.878355257E-2,-5.497625098E-3,-1.817270555E-2
7.816569255E0,2.382304333E-2,-2.840439789E-2,-2.473931387E-2
7.825721026E0,2.473931387E-2,-5.131116882E-2,-3.023693897E-2
7.834872745E0,1.801999472E-2,-6.047387794E-2,-3.206948191E-2
7.844024464E0,7.482878864E-3,-5.253286287E-2,-3.588727489E-2
7.853176182E0,-5.650337320E-3,-3.817795217E-2,-3.848337755E-2
7.862327901E0,-1.053711493E-2,-3.038965166E-2,-4.092676565E-2
7.871479672E0,-1.374406368E-2,-2.672456764E-2,-3.909422457E-2
7.880631443E0,-1.191152167E-2,-1.771457121E-2,-3.726168349E-2
7.889783162E0,-7.177455351E-3,-7.941014133E-3,-3.115320951E-2
7.898934880E0,-1.679830020E-3,-1.374406274E-3,-2.687728032E-2
7.908086599E0,-2.290677279E-3,4.581354442E-4,-2.382304333E-2
7.917238370E0,-8.551862091E-3,2.901524538E-3,-2.137965336E-2
7.926390089E0,-9.773556143E-3,6.566607859E-3,-1.832541823E-2
7.935541807E0,-1.221694518E-2,3.512371797E-3,-1.771457121E-2
7.944693578E0,-9.162709117E-3,8.246437646E-3,-1.588202827E-2
7.953845297E0,-2.443389036E-3,1.191152167E-2,-1.343864016E-2
7.962997016E0,6.108472589E-3,1.313321572E-2,-1.267508045E-2
7.972148787E0,6.872031838E-3,9.009997360E-3,-1.511846948E-2
7.981300505E0,5.039489828E-3,-0.000000000E0,-1.817270555E-2
7.990452224E0,3.359660041E-3,-1.099525020E-2,-2.061609551E-2
7.999603995E0,-2.748812549E-3,-1.695101149E-2,-2.504473738E-2
8.008755714E0,-1.435491070E-2,-2.122694254E-2,-2.870982140E-2
8.017907432E0,-2.000524849E-2,-2.015795931E-2,-3.115320951E-2
8.027059203E0,-1.817270555E-2,-6.719320081E-3,-3.054236248E-2
8.036210922E0,-1.160609815E-2,1.679829881E-2,-2.382304333E-2
8.045362641E0,-1.007897966E-2,3.665083647E-2,-1.404948719E-2
8.054514412E0,-9.009997360E-3,4.688252881E-2,-6.108472589E-3
8.063666130E0,-1.267508045E-2,5.115845799E-2,-2.443389036E-3
8.072817849E0,-2.993151546E-2,4.382828996E-2,-5.650337320E-3
8.081969620E0,-3.405473381E-2,3.665083647E-2,-5.650337320E-3
8.091121339E0,-2.535016090E-2,2.275406010E-2,-5.650337320E-3
8.100273057E0,-2.153236605E-2,1.007897966E-2,-9.926267900E-3
8.109424828E0,-1.450762246E-2,-6.719320081E-3,-1.588202827E-2
8.118576547E0,-1.817270555E-2,-2.122694254E-2,-2.137965336E-2
8.127728318E0,-2.733541466E-2,-2.733541466E-2,-2.458660305E-2
8.136880037E0,-4.459185153E-2,-2.733541466E-2,-2.351761982E-2
8.146031755E0,-5.329642445E-2,-2.611372061E-2,-2.107422985E-2
8.155183526E0,-5.024218559E-2,-1.695101149E-2,-1.618745178E-2
8.164335245E0,-4.245388508E-2,-7.635590737E-4,-1.252236869E-2
8.173486964E0,-3.451287001E-2,5.803049076E-3,-1.359135192E-2
8.182638735E0,-2.336490713E-2,1.068982761E-3,-1.236965694E-2
8.191790453E0,-1.267508045E-2,-1.038440317E-2,-1.404948719E-2
8.200942224E0,3.054236295E-4,-1.634016447E-2,-1.771457121E-2
8.210093943E0,1.267508045E-2,-1.817270555E-2,-2.183778957E-2
8.219245662E0,2.550287358E-2,-1.389677543E-2,-2.168507688E-2
8.228397380E0,4.275930673E-2,-7.941014133E-3,-1.924168877E-2
8.237549151E0,5.741964281E-2,-1.832541777E-3,-1.786728203E-2
8.246700870E0,6.413896382E-2,4.275931045E-3,-2.031067200E-2
8.255852589E0,6.536065787E-2,1.084253844E-2,-2.092151903E-2
8.265004360E0,6.230641901E-2,1.084253844E-2,-2.519745007E-2
8.274156078E0,6.245913357E-2,-2.443389036E-3,-3.191677108E-2
8.283307849E0,7.131642103E-2,-1.985253580E-2,-3.481829539E-2
8.292459568E0,8.689302206E-2,-4.031591862E-2,-3.771981969E-2
8.301611287E0,9.498675168E-2,-5.192201585E-2,-4.077405483E-2
8.310763057E0,9.620844573E-2,-5.787777901E-2,-4.260659590E-2
8.319914776E0,9.575030953E-2,-6.872031838E-2,-4.443913698E-2
8.329066495E0,9.529217333E-2,-8.383878320E-2,-4.504998401E-2
8.338218214E0,8.994726092E-2,-9.880454093E-2,-4.443913698E-2
8.347369985E0,8.811471611E-2,-1.049130186E-1,-4.199574888E-2
8.356521703E0,8.368607610E-2,-9.284878522E-2,-3.894151375E-2
8.365673474E0,6.810946763E-2,-7.406523079E-2,-3.665083647E-2
8.374825193E0,4.321744293E-2,-5.604523420E-2,-3.313846514E-2
8.383976912E0,2.473931387E-2,-4.947862774E-2,-3.145863488E-2
8.393128630E0,1.908897609E-2,-4.352286831E-2,-2.962609194E-2
8.402280401E0,1.053711493E-2,-4.718795046E-2,-2.794626169E-2
8.411432172E0,4.275931045E-3,-5.192201585E-2,-2.428117767E-2
8.420583839E0,-5.497625098E-3,-5.971032009E-2,-1.878355257E-2
8.429735610E0,-1.282779220E-2,-6.154286116E-2,-1.832541823E-2
8.438887380E0,-1.114796288E-2,-5.680879578E-2,-2.076880634E-2
8.448039099E0,-3.665083554E-3,-5.558710173E-2,-2.061609551E-2
8.457190818E0,5.039489828E-3,-5.741964281E-2,-2.183778957E-2
8.466342537E0,1.481304597E-2,-6.093201414E-2,-2.122694254E-2
8.475494307E0,2.840439789E-2,-6.032116711E-2,-2.473931387E-2
8.484646026E0,5.008947477E-2,-6.093201414E-2,-2.702999115E-2
8.493797745E0,7.589777559E-2,-6.154286116E-2,-3.176405653E-2
8.502949516E0,9.819369763E-2,-6.093201414E-2,-3.894151375E-2
8.512101235E0,1.191152185E-1,-6.093201414E-2,-4.734066129E-2
8.521252953E0,1.395785958E-1,-5.787777901E-2,-5.757235363E-2
8.530404724E0,1.530172378E-1,-5.131116882E-2,-6.597150117E-2
8.539556443E0,1.585148573E-1,-4.825693369E-2,-7.513421029E-2
8.548708162E0,1.586675793E-1,-5.726693198E-2,-8.307522535E-2
8.557859932E0,1.514901221E-1,-6.704048812E-2,-9.407047927E-2
8.567011651E0,1.417165697E-1,-7.742489129E-2,-1.081199646E-1
8.576163370E0,1.333174109E-1,-8.765657991E-2,-1.247655526E-1
8.585315141E0,1.168245375E-1,-9.926267713E-2,-1.395785958E-1
8.594466860E0,1.050657257E-1,-9.025268257E-2,-1.517955512E-1
8.603618630E0,1.000262350E-1,-6.673506647E-2,-1.634016484E-1
8.612770349E0,9.972081333E-2,-3.542914242E-2,-1.725643575E-1
8.621922068E0,1.026223376E-1,-5.344913341E-3,-1.756185889E-1
8.631073839E0,1.116323397E-1,2.122694254E-2,-1.762294322E-1
8.640225557E0,1.243074164E-1,4.169032723E-2,-1.737860441E-1
8.649377276E0,1.550024897E-1,5.497625470E-2,-1.681357026E-1
8.658528995E0,1.998997629E-1,5.207473040E-2,-1.586675793E-1
8.667680766E0,2.426590770E-1,3.726168349E-2,-1.504211426E-1
8.676832537E0,2.663294077E-1,1.068982668E-2,-1.501157135E-1
8.685984203E0,2.788517773E-1,-2.183778957E-2,-1.566823274E-1
8.695135974E0,2.878617644E-1,-4.902049154E-2,-1.670667231E-1
8.704287693E0,2.924431264E-1,-6.887302548E-2,-1.827960461E-1
8.713439412E0,2.919849753E-1,-8.536590636E-2,-1.992889196E-1
8.722591182E0,2.970244884E-1,-9.681928903E-2,-2.163926363E-1
8.731742953E0,3.107685447E-1,-1.064401343E-1,-2.394521236E-1
8.740894672E0,3.258870244E-1,-1.217113137E-1,-2.722851634E-1
8.750046391E0,3.439069986E-1,-1.223221645E-1,-3.089359999E-1
8.759198162E0,3.694098890E-1,-1.351499557E-1,-3.391729295E-1
8.768349880E0,4.077405334E-1,-2.057028115E-1,-3.663556576E-1
8.777501599E0,4.697415531E-1,-3.061871827E-1,-3.811686933E-1
8.786653318E0,5.659499764E-1,-3.808632791E-1,-3.804051280E-1
8.795805089E0,6.927008033E-1,-4.286620617E-1,-3.684936166E-1
8.804956807E0,8.446490765E-1,-4.622586668E-1,-3.662029207E-1
8.814108578E0,9.642223716E-1,-4.735593498E-1,-3.658975065E-1
8.823260297E0,1.024390817E0,-4.523324072E-1,-3.599417508E-1
8.832412016E0,1.016602516E0,-3.944546282E-1,-3.649812341E-1
8.841563787E0,9.741486907E-1,-3.422271907E-1,-3.787252903E-1
8.850715505E0,9.477295280E-1,-3.309265077E-1,-3.979669809E-1
8.859867224E0,8.990144730E-1,-3.429907262E-1,-3.805578351E-1
8.869018995E0,8.345700502E-1,-3.139754832E-1,-3.687990308E-1
8.878170714E0,7.728744745E-1,-2.232646793E-1,-3.875826001E-1
8.887322485E0,7.647807598E-1,-1.149920002E-1,-4.366030693E-1
8.896474203E0,8.419002295E-1,-2.535016090E-2,-5.192201734E-1
8.905625922E0,9.691091776E-1,8.933641016E-2,-4.975350797E-1
8.914777641E0,1.066386580E0,1.290414780E-1,-4.291202128E-1
8.923916651E0,1.163816690E0,1.429382563E-1,-4.627167881E-1
8.933081130E0,1.248571754E0,-1.832541777E-3,-5.120427012E-1
8.942232849E0,1.358524323E0,-1.667613089E-1,-5.123481154E-1
8.951384620E0,1.512457848E0,-2.996205688E-1,-4.976878166E-1
8.960536339E0,1.679829955E0,-3.535278440E-1,-4.952444136E-1
8.969688057E0,1.838802934E0,-3.717005551E-1,-5.607577562E-1
8.978839776E0,1.992583752E0,-3.626905680E-1,-6.383354068E-1
8.987991547E0,2.114905834E0,-3.162661791E-1,-6.723901033E-1
8.997143266E0,2.157970667E0,-2.562504113E-1,-6.274928451E-1
9.006294985E0,2.105895996E0,-1.976090819E-1,-5.314370990E-1
9.015446755E0,1.977312565E0,-1.334701329E-1,-4.291202128E-1
9.024598526E0,1.800319552E0,-7.330167294E-2,-3.944546282E-1
9.033750245E0,1.625159144E0,-3.649812192E-2,-4.274403751E-1
9.042901964E0,1.504822254E0,-1.863084175E-2,-4.613423944E-1
9.052053735E0,1.468476772E0,-7.330167107E-3,-4.743228853E-1
9.061205453E0,1.492299795E0,1.313321572E-2,-4.792096615E-1
9.070357172E0,1.518566251E0,4.459185153E-2,-4.789042473E-1
9.079508943E0,1.490161896E0,1.059819981E-1,-4.743228853E-1
9.088660610E0,1.420525312E0,1.872246861E-1,-4.639385045E-1
9.097812380E0,1.320957184E0,2.220429778E-1,-4.524851143E-1
9.106964099E0,1.204438090E0,2.171562016E-1,-4.410317242E-1
9.116115870E0,1.108229637E0,2.014268786E-1,-4.275930822E-1
9.125267589E0,1.043785214E0,1.652341783E-1,-3.927747905E-1
9.134419307E0,1.023474574E0,1.375933439E-1,-3.524588645E-1
9.143571078E0,1.033706307E0,8.780929446E-2,-3.231382072E-1
9.152722797E0,1.051878929E0,4.443913698E-2,-3.150444627E-1
9.161874568E0,1.049893737E0,-2.137965523E-3,-3.411581814E-1
9.171026287E0,1.029583097E0,-4.443913698E-2,-3.895678520E-1
9.180178005E0,9.881981611E-1,-8.322793990E-2,-4.381301999E-1
9.189329776E0,9.158127308E-1,-1.070509851E-1,-4.666872919E-1
9.198481495E0,8.191461563E-1,-1.252236813E-1,-4.544703662E-1
9.207633214E0,7.259919643E-1,-1.324011385E-1,-4.135435820E-1
9.216784985E0,6.487197876E-1,-1.342336833E-1,-3.616215885E-1
9.225936703E0,5.929799676E-1,-1.304158866E-1,-3.034383655E-1
9.235088422E0,5.486935377E-1,-9.590301663E-2,-2.470877171E-1
9.244240141E0,5.105155706E-1,-6.749862432E-2,-1.936385781E-1
9.253391912E0,4.789042473E-1,-5.344913527E-2,-1.491994411E-1
9.262543630E0,4.471401870E-1,-5.039490014E-2,-1.061347127E-1
9.271695349E0,3.976615667E-1,-4.428642616E-2,-5.512896553E-2
9.280847120E0,3.336753249E-1,-1.878355257E-2,-1.343864016E-2
9.289998839E0,2.702999115E-1,3.191677108E-2,2.092151903E-2
9.299150557E0,2.240282297E-1,9.330692142E-2,4.306473210E-2
9.308302328E0,1.951656938E-1,1.415638477E-1,6.536065787E-2
9.317454047E0,1.818797737E-1,1.531699449E-1,1.099525094E-1
9.326605818E0,2.585411072E-1,1.191152185E-1,1.574458778E-1
9.335744776E0,4.388937652E-1,7.834116369E-2,1.307213157E-1
9.344909255E0,4.917320311E-1,-1.588202827E-2,7.253811508E-2
9.354060974E0,3.358132839E-1,3.603998944E-2,1.287360638E-1
9.363212745E0,1.252236869E-2,2.125748396E-1,2.612899244E-1
9.372364464E0,-2.890834510E-1,2.403683960E-1,4.057552814E-1
9.381516182E0,-4.590517282E-1,2.208212912E-1,5.645755529E-1
9.390655193E0,-4.750864506E-1,2.296785712E-1,6.774296165E-1
9.399819672E0,-3.776563108E-1,1.525591016E-1,6.810947061E-1
9.408971391E0,-3.083251417E-1,2.519745007E-2,5.845808387E-1
9.418110401E0,-2.837385535E-1,-8.872556686E-2,3.894151151E-1
9.427274880E0,-2.681619525E-1,-2.643441558E-1,1.491994411E-1
9.436426599E0,-3.013004065E-1,-3.750602305E-1,4.825693369E-2
9.445565610E0,-4.130854607E-1,-2.000524700E-1,1.786728203E-1
9.454730089E0,-5.297572613E-1,5.803048983E-2,4.083513916E-1
9.463881807E0,-6.597150564E-1,2.309002578E-1,5.966450572E-1
9.473033578E0,-8.877137899E-1,5.047125220E-1,7.395833135E-1
9.482185297E0,-1.152974248E0,8.318212628E-1,8.296833038E-1
9.491337016E0,-1.314695954E0,9.859074950E-1,8.687775135E-1
9.500476026E0,-1.374864459E0,9.509364963E-1,8.641961813E-1
9.509640505E0,-1.352721214E0,7.736380696E-1,8.266290426E-1
9.518792276E0,-1.236507535E0,6.945333481E-1,7.461498976E-1
9.527931235E0,-1.148698330E0,7.214106321E-1,6.270347238E-1
9.537095714E0,-1.136939406E0,6.401679516E-1,5.063923597E-1
9.546247485E0,-1.169925213E0,5.004366040E-1,4.103366435E-1
9.555386495E0,-1.232842445E0,3.248180151E-1,3.587200642E-1
9.564550922E0,-1.292705536E0,-1.038440317E-2,3.384093940E-1
9.573702693E0,-1.313321590E0,-4.605788291E-1,3.348970115E-1
9.582854412E0,-1.293010950E0,-8.075400591E-1,3.555130959E-1
9.592006130E0,-1.195428133E0,-9.127585292E-1,3.854446113E-1
9.601157901E0,-9.962918758E-1,-8.779402375E-1,4.356867969E-1
9.610309620E0,-7.681404352E-1,-8.464815617E-1,5.118899941E-1
9.619461339E0,-6.030589342E-1,-7.934905887E-1,5.893148780E-1
9.628613110E0,-5.499152541E-1,-7.082774043E-1,6.500942111E-1
9.637764828E0,-6.145123243E-1,-5.931326747E-1,6.855233312E-1
9.646916547E0,-7.765395641E-1,-4.608842432E-1,6.830799580E-1
9.656068318E0,-9.726215601E-1,-3.087832928E-1,6.455128193E-1
9.665220037E0,-1.121973753E0,-1.977618039E-1,6.047387719E-1
9.674371755E0,-1.189930439E0,-1.737860441E-1,5.890094638E-1
9.683523526E0,-1.164733052E0,-2.363978922E-1,5.879405141E-1
9.692675245E0,-1.081199646E0,-3.268032968E-1,5.818319917E-1
9.701826964E0,-9.559759498E-1,-3.869717419E-1,5.395308137E-1
9.710978735E0,-8.015843034E-1,-4.031592011E-1,4.807367921E-1
9.720130453E0,-6.719319820E-1,-3.452814221E-1,4.584408700E-1
9.729282224E0,-6.287145615E-1,-2.209739983E-1,4.781406820E-1
9.738433943E0,-6.557445526E-1,-9.376505762E-2,5.041016936E-1
9.747585662E0,-6.983511448E-1,4.672981426E-2,5.117372870E-1
9.756737380E0,-7.490514517E-1,2.024958730E-1,5.027272701E-1
9.765889151E0,-8.046385646E-1,3.536805511E-1,4.911212027E-1
9.775040870E0,-8.573241234E-1,4.538595080E-1,5.181511641E-1
9.784192641E0,-9.028322697E-1,4.882196784E-1,5.661026835E-1
9.793344360E0,-9.199360013E-1,5.245651007E-1,6.050441861E-1
9.802496078E0,-8.924478292E-1,5.790832043E-1,6.662816405E-1
9.811647849E0,-8.742751479E-1,5.680879354E-1,8.026533127E-1
9.820799568E0,-9.216157794E-1,6.180247068E-1,9.506310225E-1
9.829938578E0,-9.959864616E-1,7.133168578E-1,9.860602021E-1
9.839103057E0,-9.946120381E-1,5.118899941E-1,9.465078115E-1
9.848254776E0,-9.144383669E-1,3.559712470E-1,9.593356252E-1
9.857406495E0,-8.780929446E-1,3.762819171E-1,1.077534556E0
9.866558266E0,-9.425373077E-1,3.633013964E-1,1.173590302E0
9.875709985E0,-1.187639832E0,3.339807391E-1,1.337908268E0
9.884848995E0,-1.598587275E0,6.044333577E-1,1.605306625E0
9.894013474E0,-1.909355879E0,8.131904006E-1,1.787491798E0
9.903165245E0,-1.961735964E0,9.260444641E-1,1.846743941E0
9.912304203E0,-1.826738715E0,9.811733961E-1,1.861098886E0
9.921468682E0,-1.549108624E0,1.125333309E0,1.791004181E0
9.930620401E0,-1.258498073E0,1.241394401E0,1.630504012E0
9.939759412E0,-1.000567794E0,1.225512266E0,1.446028233E0
9.948923891E0,-7.910472155E-1,1.232995152E0,1.280183196E0
9.958075610E0,-6.838434935E-1,1.385248899E0,1.159998894E0
9.967214620E0,-7.111788988E-1,1.323095202E0,1.024238110E0
9.976379099E0,-7.847860456E-1,1.059819937E0,8.958075047E-1
9.985530870E0,-8.411366940E-1,8.359444737E-1,8.252546191E-1
9.994669828E0,-8.548807502E-1,5.940489769E-1,8.003626466E-1
1.000383431E1,-8.397622705E-1,2.831276953E-1,7.896727920E-1
1.001298608E1,-8.025006056E-1,-8.704573847E-3,7.595885396E-1
1.002213780E1,-7.601994276E-1,-2.299840003E-1,6.897992492E-1
1.003128957E1,-6.896465421E-1,-4.075878263E-1,5.676298141E-1
1.004044129E1,-5.829010010E-1,-4.862344265E-1,3.999522328E-1
1.004958025E1,-4.669927359E-1,-5.505260825E-1,2.365505993E-1
1.005874472E1,-4.098785222E-1,-5.967977643E-1,1.068982705E-1
1.006789650E1,-4.051444530E-1,-6.140542030E-1,2.565558441E-2
1.007703545E1,-4.421007037E-1,-5.262449384E-1,-2.886253223E-2
1.008619998E1,-5.195255876E-1,-3.127537966E-1,-7.177454978E-2
1.009535170E1,-5.896202922E-1,-3.283303976E-2,-1.346918195E-1
1.010450342E1,-6.525375843E-1,2.927485406E-1,-2.203631550E-1
1.011365514E1,-6.818582416E-1,5.812211633E-1,-2.829749882E-1
1.012280691E1,-6.238277555E-1,7.603521347E-1,-2.449497581E-1
1.013194592E1,-5.364766121E-1,8.699992299E-1,-1.345391124E-1
1.014111040E1,-5.346440673E-1,9.052756429E-1,-4.840964451E-2
1.015026212E1,-5.822901726E-1,9.113841057E-1,-1.817270555E-2
1.015940113E1,-6.203153729E-1,9.009997249E-1,-5.207473040E-2
1.016856561E1,-6.314633489E-1,8.722898960E-1,-1.204896197E-1
1.017771733E1,-5.514423847E-1,7.895200849E-1,-2.133384049E-1
1.018686905E1,-3.952181637E-1,6.056550741E-1,-3.225273490E-1
1.019602077E1,-2.229592502E-1,3.431434333E-1,-4.414898455E-1
1.020517254E1,-3.252761811E-2,5.787777901E-2,-5.815265775E-1
1.021431155E1,1.838650256E-1,-2.279987335E-1,-7.482879162E-1
1.022347603E1,4.338542521E-1,-5.169295073E-1,-9.423846006E-1
1.023262774E1,6.844543815E-1,-7.469134927E-1,-1.143811464E0
1.024176676E1,8.554915786E-1,-8.335011005E-1,-1.310420036E0
1.025093124E1,9.035958052E-1,-6.584933400E-1,-1.406781197E0
1.026008295E1,9.028322697E-1,-3.399364948E-1,-1.465575337E0
1.026922196E1,9.017632604E-1,-4.245388508E-2,-1.524980187E0
1.027838644E1,9.338327646E-1,2.389939874E-1,-1.534753680E0
1.028753816E1,1.014922738E0,2.351761907E-1,-1.469545841E0
1.029667717E1,1.069440842E0,-3.985778242E-2,-1.397465825E0
1.030584165E1,1.020420313E0,-3.950654566E-1,-1.304158926E0
1.031499337E1,1.085628271E0,-4.958552718E-1,-1.191763043E0
1.032413238E1,1.310878277E0,-2.622061968E-1,-1.167787194E0
1.033329686E1,1.529256105E0,-2.786990702E-1,-1.187639832E0
1.034244863E1,1.794058442E0,-2.028012872E-1,-1.147934675E0
1.035158759E1,2.067259789E0,-4.230117425E-2,-1.049130201E0
1.036075207E1,2.327327967E0,-1.389677543E-2,-9.599464536E-1
1.036990379E1,2.529976606E0,6.490252167E-2,-9.286405444E-1
1.037905550E1,2.558533669E0,3.162661791E-1,-9.316948056E-1
1.038820728E1,2.436058760E0,5.161659122E-1,-9.405520558E-1
1.039735900E1,2.312973261E0,4.943281412E-1,-9.402466416E-1
1.040651077E1,2.261662006E0,3.651339412E-1,-9.448279738E-1
1.041566248E1,2.295105934E0,2.909159958E-1,-9.597937465E-1
1.042481420E1,2.406280041E0,2.748812735E-1,-9.584193230E-1
1.043396597E1,2.583884001E0,3.275668323E-1,-9.765920639E-1
1.044311769E1,2.754310369E0,4.004103839E-1,-9.132166505E-1
1.045226941E1,2.876785278E0,4.324798584E-1,-7.798992395E-1
1.046142118E1,2.956958771E0,4.396573007E-1,-6.755970716E-1
1.047057290E1,2.915574074E0,4.176668227E-1,-5.836645365E-1
1.047972462E1,2.723309755E0,3.335226178E-1,-5.641174316E-1
1.048886363E1,2.497907162E0,2.870981991E-1,-6.450546980E-1
1.049802811E1,2.351303816E0,2.020377368E-1,-7.803573608E-1
1.050717988E1,2.329924107E0,1.091889441E-1,-9.271134138E-1
1.051631884E1,2.342904568E0,-5.039490014E-2,-1.070357084E0
1.052548332E1,2.338781357E0,-1.794363856E-1,-1.114796281E0
1.053463504E1,2.302436113E0,-2.848075330E-1,-1.046686769E0
1.054377405E1,2.205922127E0,-3.791834414E-1,-9.446752667E-1
1.055293853E1,2.051225185E0,-4.013266563E-1,-8.638907075E-1
1.056209024E1,1.870719671E0,-3.959817290E-1,-7.771504521E-1
1.057124202E1,1.716175318E0,-3.987305462E-1,-6.708629727E-1
1.058039374E1,1.624395609E0,-4.460712075E-1,-5.639647245E-1
1.058954550E1,1.595380306E0,-4.839437306E-1,-5.048652887E-1
1.059869722E1,1.582552552E0,-4.876088202E-1,-5.013529062E-1
1.060784894E1,1.526354551E0,-4.845545888E-1,-4.950917065E-1
1.061700071E1,1.404948711E0,-4.943281412E-1,-4.818057716E-1
1.062615243E1,1.251015186E0,-5.144860744E-1,-4.645493329E-1
1.063530415E1,1.106702566E0,-5.230379701E-1,-4.356867969E-1
1.064445592E1,9.727742672E-1,-5.163186193E-1,-3.909422457E-1
1.065360764E1,8.397622705E-1,-5.030327439E-1,-3.222219348E-1
1.066275941E1,7.198835015E-1,-5.022691488E-1,-2.315111160E-1
1.067191113E1,6.140542030E-1,-4.912739098E-1,-1.455343664E-1
1.068106285E1,5.184566379E-1,-4.575245976E-1,-7.040014863E-2
1.069021457E1,4.272876680E-1,-4.062134326E-1,-1.557660475E-2
1.069936634E1,3.284831047E-1,-3.452814221E-1,2.031067200E-2
1.070851806E1,2.229592502E-1,-2.790044844E-1,5.070032179E-2
1.071766978E1,1.285833418E-1,-2.217375487E-1,1.024696305E-1
1.072682155E1,5.070032179E-2,-1.721062213E-1,2.014268786E-1
1.073597327E1,-3.771981969E-2,-1.337755471E-1,3.411581814E-1
1.074512504E1,-1.533226669E-1,-1.044548824E-1,4.813476503E-1
1.075427676E1,-3.155026138E-1,-5.971032009E-2,5.829010010E-1
1.076342847E1,-5.282301903E-1,-7.482878864E-3,6.245913506E-1
1.077258024E1,-7.763868570E-1,3.970507160E-2,6.064186096E-1
1.078173196E1,-1.051726222E0,1.090362370E-1,5.671716928E-1
1.079088368E1,-1.342031479E0,1.777565479E-1,5.460974574E-1
1.080003545E1,-1.509709001E0,2.557922900E-1,5.528167486E-1
1.080918717E1,-1.228719234E0,1.404948682E-1,5.273138881E-1
1.081832618E1,-5.389199853E-1,-4.312581718E-1,4.135435820E-1
1.082749066E1,-6.230641901E-2,-9.666658044E-1,3.208475113E-1
1.083664238E1,-5.769452453E-1,-2.673983872E-1,4.303418994E-1
1.084578139E1,-1.732973695E0,4.743228853E-1,7.134696245E-1
1.085494587E1,-2.666501045E0,5.699204803E-1,8.883246183E-1
1.086409759E1,-2.994067907E0,6.125270724E-1,8.461761475E-1
1.087323660E1,-2.716743231E0,7.528692484E-2,6.812474132E-1
1.088240108E1,-1.969524264E0,-2.886253297E-1,5.205945969E-1
1.089155285E1,-1.051268101E0,-8.383878320E-2,4.109475017E-1
1.090069181E1,-3.301629424E-1,1.298050396E-2,3.707842827E-1
1.090985629E1,-7.635590737E-4,-1.122431830E-1,4.330907166E-1
1.091900800E1,-1.924168877E-2,-3.918585181E-1,5.864133835E-1
1.092814702E1,-2.712161839E-1,-7.073611021E-1,7.638645172E-1
1.093731150E1,-6.244385839E-1,-8.918370008E-1,8.780929446E-1
1.094646321E1,-9.590302110E-1,-9.194778204E-1,8.880192041E-1
1.095560222E1,-1.193900943E0,-8.664868474E-1,8.130376935E-1
1.096476670E1,-1.306907654E0,-7.339329720E-1,7.064448595E-1
1.097391842E1,-1.341267824E0,-5.439594984E-1,5.935907960E-1
1.098307019E1,-1.320499063E0,-4.010212123E-1,4.819584787E-1
1.099222191E1,-1.245212078E0,-2.970244884E-1,3.779617548E-1
1.100137363E1,-1.155722976E0,-2.252499312E-1,3.498627543E-1
1.101052540E1,-1.090515018E0,-1.928750277E-1,4.242334068E-1
1.101967717E1,-1.040883780E0,-2.110477239E-1,5.680879354E-1
1.102882889E1,-9.834640622E-1,-3.616215885E-1,7.090409398E-1
1.103798061E1,-9.271134138E-1,-5.618267655E-1,7.933378816E-1
1.104713233E1,-8.909206986E-1,-7.033905983E-1,8.015843034E-1
1.105628410E1,-8.704573512E-1,-7.542436719E-1,7.406523228E-1
1.106542311E1,-8.492304087E-1,-6.629219651E-1,6.455128193E-1
1.107458759E1,-8.258655071E-1,-5.570927262E-1,5.661026835E-1
1.108373931E1,-8.157865405E-1,-4.162923992E-1,5.202891231E-1
1.109289103E1,-8.782456517E-1,-1.953184158E-1,5.294518471E-1
1.110204274E1,-1.016144395E0,-2.107422985E-2,5.864133835E-1
1.111119452E1,-1.165954709E0,9.147437662E-2,6.200099587E-1
1.112034624E1,-1.260177851E0,1.678302884E-1,6.181774139E-1
1.112949795E1,-1.294079900E0,4.421007037E-1,6.164975762E-1
1.113864972E1,-1.272547603E0,6.835380793E-1,7.062921524E-1
1.114778874E1,-1.260635972E0,8.528954983E-1,8.797727823E-1
1.115695316E1,-9.297095537E-1,1.491994411E-1,7.847860456E-1
1.116610493E1,-7.246175408E-1,3.390202224E-1,7.212579250E-1
1.117524394E1,-7.728744745E-1,5.888567567E-1,6.713211536E-1
1.118440842E1,-9.741486907E-1,4.401154518E-1,6.157340407E-1
1.119356014E1,-1.159388065E0,2.649549842E-1,5.986303091E-1
1.120271191E1,-1.227497578E0,2.467822880E-1,6.061131954E-1
1.121186363E1,-1.266439080E0,3.662029207E-1,6.508577466E-1
1.122101535E1,-1.427091956E0,5.755708218E-1,7.479824424E-1
1.123015436E1,-1.641651988E0,5.900784731E-1,8.704573512E-1
1.123931884E1,-1.784590244E0,6.371136904E-1,1.074022174E0
1.124847056E1,-1.841857195E0,8.965710402E-1,1.371962905E0
1.125760957E1,-1.829182148E0,1.134648800E0,1.677844763E0
1.126677405E1,-1.787949920E0,1.255596519E0,1.910119414E0
1.127592582E1,-1.683036923E0,1.249640822E0,2.029845476E0
1.128506478E1,-1.504211426E0,1.272394896E0,1.946312070E0
1.129422926E1,-1.323400617E0,1.373490095E0,1.695864677E0
1.130338103E1,-1.202300072E0,1.491230845E0,1.356539011E0
1.131251999E1,-1.132052660E0,1.522536755E0,1.030346632E0
1.132168452E1,-1.117239594E0,1.407850266E0,8.131904006E-1
1.133083624E1,-1.098914266E0,1.183974743E0,7.235485911E-1
1.133998795E1,-1.051573515E0,9.326110482E-1,6.905628443E-1
1.134913972E1,-9.973608851E-1,7.380561829E-1,6.843016148E-1
1.135829144E1,-9.739959836E-1,6.145123243E-1,6.571189165E-1
1.136744316E1,-9.410101771E-1,5.325061083E-1,6.274928451E-1
1.137659488E1,-8.739697337E-1,4.323271513E-1,5.711421967E-1
1.138574665E1,-7.343910933E-1,2.296785712E-1,4.758500159E-1
1.139489842E1,-5.494571328E-1,-3.466558084E-2,3.222219348E-1
1.140405009E1,-4.350759685E-1,-2.641914487E-1,1.229330078E-1
1.141320186E1,-3.965925872E-1,-4.167505503E-1,-7.574506104E-2
1.142234082E1,-3.987305462E-1,-5.149442554E-1,-2.331909388E-1
1.143150535E1,-4.856235683E-1,-4.792096615E-1,-3.144336343E-1
1.144065707E1,-6.610894203E-1,-2.467822880E-1,-2.689255178E-1
1.144979608E1,-8.269344568E-1,8.979454637E-2,-1.072036922E-1
1.145896056E1,-8.542698622E-1,3.933856487E-1,3.771981969E-2
1.146811228E1,-7.789829373E-1,5.877877474E-1,5.024218559E-2
1.147726400E1,-6.797202826E-1,7.026270628E-1,-4.062134400E-2
1.148641577E1,-5.572454333E-1,7.412631512E-1,-2.229592502E-1
1.149556748E1,-3.463504016E-1,6.394043565E-1,-4.755446017E-1
1.150470650E1,-3.741439432E-2,3.953709006E-1,-7.369872332E-1
1.151387097E1,2.880144715E-1,8.536590636E-2,-9.510892034E-1
1.152302269E1,5.573981404E-1,-1.901262105E-1,-1.097997904E0
1.153216170E1,7.151494026E-1,-2.915268540E-1,-1.185349107E0
1.154132618E1,7.850914598E-1,-1.536280811E-1,-1.254069448E0
1.155047795E1,8.699992299E-1,9.345962852E-2,-1.289040446E0
1.155961691E1,1.000567794E0,2.556395829E-1,-1.324316859E0
1.156878144E1,1.149309158E0,1.971509457E-1,-1.397007704E0
1.157793311E1,1.329814434E0,-3.726168349E-2,-1.456717968E0
1.158707217E1,1.488329291E0,-2.157817930E-1,-1.421288848E0
1.159623660E1,1.577818513E0,-2.724378705E-1,-1.288124204E0
1.160538837E1,1.590340853E0,-2.391466945E-1,-1.126249671E0
1.161452738E1,1.538113356E0,-1.659977436E-1,-1.020878434E0
1.162369186E1,1.470003963E0,-1.496575773E-1,-9.793408513E-1
1.163284358E1,1.529866934E0,-1.927223057E-1,-9.379559755E-1
1.164198259E1,1.716022611E0,-2.235700935E-1,-8.438854814E-1
1.165114702E1,1.956696510E0,-2.269297540E-1,-7.473716140E-1
1.166029879E1,2.185458899E0,-1.233911440E-1,-7.018635273E-1
1.166945050E1,2.361993551E0,5.054761097E-2,-6.897992492E-1
1.167860222E1,2.509818792E0,2.809897363E-1,-6.933116317E-1
1.168775400E1,2.634278774E0,4.963133931E-1,-7.047650218E-1
1.169690577E1,2.672609568E0,6.300889254E-1,-7.308787704E-1
1.170605748E1,2.626337767E0,7.232431769E-1,-7.580614686E-1
1.171520920E1,2.579302549E0,7.605048418E-1,-7.695148587E-1
1.172434821E1,2.571208715E0,7.641699314E-1,-7.731798887E-1
1.173351269E1,2.648786545E0,7.153021693E-1,-8.079982400E-1
1.174266441E1,2.755837440E0,6.076403260E-1,-7.948650122E-1
1.175181613E1,2.802567244E0,4.960079789E-1,-7.151494026E-1
1.176096790E1,2.755990028E0,3.545968235E-1,-6.084038615E-1
1.177011962E1,2.599155188E0,8.261708915E-2,-5.738909841E-1
1.177925863E1,2.407959938E0,-1.575985998E-1,-6.239804626E-1
1.178842311E1,2.292204380E0,-3.293993771E-1,-7.188144922E-1
1.179757483E1,2.305948496E0,-4.984513521E-1,-8.364025950E-1
1.180671384E1,2.380777121E0,-6.163448691E-1,-9.523108602E-1
1.181587832E1,2.425827265E0,-7.285880446E-1,-1.041800022E0
1.182503009E1,2.398339033E0,-8.185353279E-1,-1.045465112E0
1.183416905E1,2.290982723E0,-8.591566682E-1,-9.333745837E-1
1.184333353E1,2.161024809E0,-8.751913905E-1,-7.876875401E-1
1.185248530E1,2.038244486E0,-9.104678631E-1,-6.646018028E-1
1.186162426E1,1.938981891E0,-9.469659925E-1,-5.839699507E-1
1.187078879E1,1.869039893E0,-9.260444641E-1,-5.778614879E-1
1.187994050E1,1.818034172E0,-8.588512540E-1,-6.239804626E-1
1.188907946E1,1.743358135E0,-8.252546191E-1,-6.545228362E-1
1.189824400E1,1.643637300E0,-7.892146707E-1,-6.332958937E-1
1.190739571E1,1.512915969E0,-7.524111271E-1,-5.645755529E-1
1.191654743E1,1.341878772E0,-7.463026643E-1,-4.827220440E-1
1.192569915E1,1.137244940E0,-7.059867382E-1,-4.176668227E-1
1.193485092E1,9.144383669E-1,-6.273401380E-1,-3.723114133E-1
1.194400264E1,7.131641507E-1,-5.376983285E-1,-3.260397315E-1
1.195315436E1,5.635066032E-1,-4.430169761E-1,-2.612899244E-1
1.196230613E1,4.382829070E-1,-3.319954872E-1,-1.743968874E-1
1.197145785E1,3.055763543E-1,-2.228065431E-1,-7.391251624E-2
1.198060962E1,1.502684206E-1,-1.279724985E-1,2.626643144E-2
1.198976134E1,-8.551862091E-3,-5.619794875E-2,1.246128380E-1
1.199891311E1,-1.566823274E-1,-7.177455351E-3,2.229592502E-1
1.200806483E1,-2.907632887E-1,4.902049154E-2,3.197785318E-1
1.201721660E1,-4.333961308E-1,1.105633527E-1,4.091149569E-1
1.202636832E1,-6.148177385E-1,1.690519750E-1,4.816530645E-1
1.203552004E1,-8.423583508E-1,2.104368806E-1,5.184566379E-1
1.204467176E1,-1.117545009E0,2.521272004E-1,5.146388412E-1
1.205381077E1,-1.284153700E0,2.185306102E-1,4.726430774E-1
1.206297524E1,-1.075091124E0,-9.468132630E-3,3.399364948E-1
1.207212696E1,-8.835905790E-1,-7.198835015E-1,1.250709742E-1
1.208126597E1,-1.079825282E0,-9.524635673E-1,5.665608495E-2
1.209043050E1,-1.762599707E0,4.999784827E-1,3.591781855E-1
1.209958217E1,-2.334658146E0,1.621646762E0,8.263236284E-1
1.210872124E1,-2.499128819E0,1.539487839E0,1.125638843E0
1.211788566E1,-2.441098452E0,6.975875497E-1,1.107160687E0
1.212703743E1,-2.272046328E0,-5.227325559E-1,8.545753360E-1
1.213617644E1,-1.852699757E0,-9.042066336E-1,5.445703268E-1
1.214534092E1,-1.346307397E0,-5.725166202E-1,2.321219593E-1
1.215449264E1,-1.049130201E0,-3.439069986E-1,-2.901524538E-3
1.216363165E1,-8.063184023E-1,-4.431696832E-1,-5.360184610E-2
1.217279613E1,-5.118899941E-1,-8.518264890E-1,9.910997003E-2
1.218194785E1,-1.742441803E-1,-1.396702290E0,4.175141156E-1
1.219108681E1,1.433963925E-1,-1.936538577E0,7.658497691E-1
1.220025134E1,3.151971996E-1,-2.152472973E0,9.881981611E-1
1.220940306E1,2.063136548E-1,-1.920503736E0,1.014770031E0
1.221854207E1,-1.954711229E-1,-1.446180940E0,8.767185211E-1
1.222770655E1,-7.554653287E-1,-9.747595191E-1,6.927008033E-1
1.223685827E1,-1.253916740E0,-6.465818286E-1,5.363239050E-1
1.224601004E1,-1.558271408E0,-4.016320705E-1,4.283566475E-1
1.225516176E1,-1.634321809E0,-1.433963925E-1,3.837648034E-1
1.226431353E1,-1.543458343E0,8.826743066E-2,4.286620617E-1
1.227345248E1,-1.389372110E0,1.811162084E-1,5.268557668E-1
1.228261696E1,-1.201689243E0,9.620844573E-2,6.186355352E-1
1.229176868E1,-1.019656777E0,-2.000524849E-2,6.969767213E-1
1.230090769E1,-8.736643195E-1,-1.035386100E-1,7.188144922E-1
1.231007217E1,-7.386670709E-1,-1.450762302E-1,6.794148684E-1
1.231922394E1,-6.641436815E-1,-1.240019947E-1,6.293253899E-1
1.232837566E1,-6.461237073E-1,-3.848337755E-2,5.792359114E-1
1.233752738E1,-6.409314871E-1,1.603474095E-2,5.389199853E-1
1.234667915E1,-6.795675755E-1,-1.038440317E-2,5.467082858E-1
1.235583087E1,-7.539382577E-1,-5.971032009E-2,6.291726828E-1
1.236498259E1,-8.150229454E-1,-1.901262105E-1,7.296570539E-1
1.237413436E1,-8.614473343E-1,-2.669402659E-1,8.186880350E-1
1.238327337E1,-9.231429100E-1,-2.330382317E-1,9.133693576E-1
1.239243785E1,-9.900307059E-1,-1.456870735E-1,1.070357084E0
1.240158957E1,-9.202414155E-1,-2.431172132E-1,9.524635673E-1
1.241074129E1,-7.724163532E-1,-1.195733473E-1,7.317950130E-1
1.241989306E1,-7.055285573E-1,1.133121699E-1,6.203153729E-1
1.242904478E1,-6.974348426E-1,1.771457046E-1,5.922164321E-1
1.243819655E1,-7.756233215E-1,2.467822880E-1,5.751127005E-1
1.244734827E1,-1.018435121E0,3.568875194E-1,6.166502833E-1
1.245649998E1,-1.362342119E0,4.931064546E-1,7.608102560E-1
1.246565176E1,-1.657381296E0,5.189147592E-1,9.863656163E-1
1.247480347E1,-1.838650227E0,4.735593498E-1,1.195886254E0
1.248395524E1,-1.803373814E0,4.587462842E-1,1.387844920E0
1.249309420E1,-1.689298153E0,4.963133931E-1,1.564532518E0
1.250225874E1,-1.501920700E0,5.173876286E-1,1.659824729E0
1.251141045E1,-1.364938259E0,5.612159371E-1,1.688839912E0
1.252056217E1,-1.211310148E0,5.541911721E-1,1.676622987E0
1.252971394E1,-1.131136417E0,6.103891134E-1,1.564074397E0
1.253886566E1,-1.082574010E0,7.768449783E-1,1.390288353E0
1.254800467E1,-9.988879561E-1,1.007745266E0,1.217876673E0
1.255716915E1,-9.257390499E-1,1.166870952E0,1.058292866E0
1.256632087E1,-8.961129189E-1,1.148545504E0,9.651386738E-1
1.257545988E1,-8.386932611E-1,1.002553105E0,9.228374958E-1
1.258462436E1,-7.018635273E-1,7.730271816E-1,8.629744649E-1
1.259377608E1,-5.091412067E-1,4.335488379E-1,7.484406233E-1
1.260292785E1,-3.170297146E-1,4.443913698E-2,5.735855699E-1
1.261207957E1,-2.732014358E-1,-1.322484314E-1,3.578037918E-1
1.262123134E1,-4.808894992E-1,8.246438205E-2,1.699682474E-1
1.263037030E1,-8.490777016E-1,5.850389600E-1,1.313321572E-2
1.263953478E1,-1.148851037E0,1.019198656E0,-9.849911928E-2
1.264868655E1,-1.258650780E0,1.223985195E0,-8.979454637E-2
1.265782556E1,-1.182600260E0,1.147934675E0,2.015795931E-2
1.266699004E1,-9.741486907E-1,7.879929543E-1,1.659977436E-1
1.267614176E1,-7.502731681E-1,3.090887070E-1,2.899997234E-1
1.268528077E1,-6.320741773E-1,-1.017060652E-1,3.162661791E-1
1.269444519E1,-6.340594292E-1,-3.936910629E-1,2.406738251E-1
1.270359696E1,-6.184828281E-1,-5.575508475E-1,7.971556485E-2
1.271273592E1,-4.416425824E-1,-6.646018028E-1,-1.223221645E-1
1.272190045E1,-1.394258887E-1,-7.892146707E-1,-3.368822634E-1
1.273105217E1,1.449235082E-1,-8.629744649E-1,-5.277720094E-1
1.274019118E1,3.738385141E-1,-7.493568659E-1,-6.836907864E-1
1.274935566E1,5.239542127E-1,-4.381301999E-1,-8.446490765E-1
1.275850738E1,6.230642200E-1,-1.582094431E-1,-1.106855273E0
1.276764639E1,6.287145615E-1,4.978405312E-2,-1.415943980E0
1.277681087E1,5.803049207E-1,2.053973973E-1,-1.680135369E0
1.278596259E1,5.593833923E-1,3.570402265E-1,-1.854379535E0
1.279511436E1,5.555655956E-1,5.949652195E-1,-1.902331114E0
1.280426608E1,5.499152541E-1,9.118422270E-1,-1.793905735E0
1.281341785E1,5.118899941E-1,1.309961915E0,-1.505585790E0
1.282255686E1,3.784198761E-1,1.597212911E0,-1.159846187E0
1.283172129E1,1.826433241E-1,1.402047157E0,-9.236010313E-1
1.284087306E1,1.101052165E-1,8.258655071E-1,-7.673768401E-1
1.285001202E1,3.408527672E-1,2.009687424E-1,-6.937697530E-1
1.285917655E1,8.582404256E-1,-1.217113137E-1,-6.795675755E-1
1.286832827E1,1.427244663E0,-1.006370857E-1,-7.348492742E-1
1.287746722E1,1.835595965E0,-3.100049868E-2,-8.101361990E-1
1.288663176E1,2.059929609E0,3.512371797E-3,-8.843541145E-1
1.289578347E1,2.204242229E0,2.947338112E-2,-9.370396733E-1
1.290492248E1,2.397117376E0,-3.771981969E-2,-9.269607067E-1
1.291408696E1,2.645426750E0,-2.721324563E-1,-8.640434742E-1
1.292323868E1,2.817838430E0,-4.902049303E-1,-7.869240046E-1
1.293239045E1,2.828222752E0,-5.207473040E-1,-7.142331600E-1
1.294154217E1,2.716590405E0,-3.701734245E-1,-7.157602906E-1
1.295069389E1,2.594726562E0,-1.936385781E-1,-8.119687438E-1
1.295984566E1,2.472557068E0,-4.321744293E-2,-9.796462655E-1
1.296899738E1,2.400629759E0,1.273616552E-1,-1.097539783E0
1.297814915E1,2.411319494E0,1.893626451E-1,-1.128082156E0
1.298728811E1,2.474236727E0,1.721062213E-1,-1.087308168E0
1.299645259E1,2.528144121E0,7.803573459E-2,-9.811733961E-1
1.300560436E1,2.545095205E0,-8.292251825E-2,-8.466343284E-1
1.301475608E1,2.523715496E0,-2.379250079E-1,-7.146912813E-1
1.302390785E1,2.518370628E0,-3.098522723E-1,-6.175665855E-1
1.303305957E1,2.535626888E0,-3.121429384E-1,-5.943543911E-1
1.304219853E1,2.534405231E0,-2.817533016E-1,-6.560499668E-1
1.305136306E1,2.477901936E0,-2.502946556E-1,-7.718055248E-1
1.306051478E1,2.357717752E0,-1.942494214E-1,-8.808417320E-1
1.306965379E1,2.228981733E0,-1.803526580E-1,-9.684983492E-1
1.307881827E1,2.124832153E0,-2.295258641E-1,-9.947647452E-1
1.308796998E1,2.031830788E0,-2.715215981E-1,-9.379559755E-1
1.309712176E1,1.907675982E0,-2.840439677E-1,-8.551861644E-1
1.310627347E1,1.751909971E0,-2.545706034E-1,-7.959339619E-1
1.311542524E1,1.602710485E0,-2.040229887E-1,-7.634063363E-1
1.312457696E1,1.484206080E0,-1.902789176E-1,-7.372926474E-1
1.313372868E1,1.396854997E0,-2.289150059E-1,-7.073611021E-1
1.314288045E1,1.320193648E0,-2.958027720E-1,-6.817055345E-1
1.315203217E1,1.242616057E0,-3.778090179E-1,-6.760551929E-1
1.316118389E1,1.173895717E0,-4.839437306E-1,-6.789567471E-1
1.317033566E1,1.124569774E0,-6.189410090E-1,-6.583406329E-1
1.317948738E1,1.074938416E0,-6.671979427E-1,-6.134433746E-1
1.318863915E1,9.830059409E-1,-6.369609833E-1,-5.451811552E-1
1.319779087E1,8.458707333E-1,-5.650337338E-1,-4.643966258E-1
1.320694259E1,6.665870547E-1,-4.795151055E-1,-3.753656447E-1
1.321609436E1,4.756973088E-1,-3.979669809E-1,-2.759502530E-1
1.322524608E1,3.144336343E-1,-3.364241421E-1,-1.696628332E-1
1.323439785E1,2.041756958E-1,-2.686200738E-1,-6.306997687E-2
1.324354957E1,1.302631795E-1,-1.834068894E-1,3.955236077E-2
1.325270129E1,6.383354217E-2,-9.636115283E-2,1.496575773E-1
1.326185306E1,-2.397575416E-2,-4.184303805E-2,2.472404242E-1
1.327100478E1,-1.391204596E-1,-2.000524849E-2,3.312319219E-1
1.328015655E1,-2.765611112E-1,6.566607859E-3,4.077405334E-1
1.328930827E1,-4.243861437E-1,2.290677279E-2,4.811949134E-1
1.329846004E1,-5.761816502E-1,1.863084175E-2,5.454866290E-1
1.330761176E1,-7.647807598E-1,-1.343864016E-2,5.905365944E-1
1.331676353E1,-1.004843712E0,6.719320081E-3,6.090146899E-1
1.332591525E1,-1.097845197E0,8.017370105E-2,6.035171151E-1
1.333506696E1,-7.832589149E-1,1.710372269E-1,4.792096615E-1
1.334420597E1,-4.014793634E-1,-1.408002973E-1,2.269297540E-1
1.335337045E1,-5.882459283E-1,-4.570664763E-1,1.458397806E-1
1.336252217E1,-1.346918225E0,3.550549746E-1,4.604261220E-1
1.337166118E1,-2.034732103E0,1.530935884E0,9.243646264E-1
1.338082566E1,-2.410708666E0,1.674790502E0,1.197107911E0
1.338997743E1,-2.520050287E0,9.495620728E-1,1.163205862E0
1.339911639E1,-2.327480793E0,1.867665499E-1,9.599464536E-1
1.340828092E1,-1.939592719E0,-8.047912270E-2,7.172874212E-1
1.341743259E1,-1.520398855E0,1.615691036E-1,4.905103445E-1
1.342657165E1,-1.162136912E0,3.616215885E-1,3.347443044E-1
1.343573608E1,-9.458969831E-1,2.718270421E-1,2.783936262E-1
1.344488785E1,-8.657232523E-1,1.252236869E-2,3.321481943E-1
1.345402681E1,-8.293778896E-1,-4.054498672E-1,5.074613690E-1
1.346319134E1,-7.273663878E-1,-9.039012194E-1,7.594358325E-1
1.347234306E1,-5.868715048E-1,-1.199398637E0,9.628480077E-1
1.348148207E1,-5.244123936E-1,-1.174353838E0,1.006065488E0
1.349064655E1,-5.954233408E-1,-9.628480077E-1,8.991671801E-1
1.349979827E1,-7.502731681E-1,-7.174401283E-1,7.108734846E-1
1.350895004E1,-9.220739603E-1,-5.357130170E-1,5.489989519E-1
1.351810176E1,-1.045923233E0,-4.396573007E-1,4.851654470E-1
1.352725347E1,-1.087766290E0,-3.872771561E-1,4.964661002E-1
1.353640525E1,-1.074480295E0,-3.093941510E-1,5.392253995E-1
1.354555696E1,-1.054627776E0,-2.079934925E-1,5.758762360E-1
1.355470868E1,-1.021336675E0,-1.414111406E-1,6.169557571E-1
1.356386045E1,-9.765920639E-1,-1.395785958E-1,6.410841942E-1
1.357301217E1,-9.171871543E-1,-2.220429778E-1,6.331431866E-1
1.358216394E1,-8.478559852E-1,-3.239017725E-1,6.024481058E-1
1.359131566E1,-7.753179073E-1,-3.533751369E-1,5.749599934E-1
1.360046743E1,-7.200362086E-1,-3.045073450E-1,5.636593103E-1
1.360961915E1,-6.946860552E-1,-2.538070381E-1,5.650337338E-1
1.361877087E1,-6.884248853E-1,-2.742704153E-1,5.725166202E-1
1.362792264E1,-6.783458591E-1,-3.538332880E-1,5.694623590E-1
1.363707436E1,-6.788040400E-1,-4.372139275E-1,5.335750580E-1
1.364622613E1,-7.238540053E-1,-4.718795121E-1,4.721849263E-1
1.365537785E1,-7.913526297E-1,-4.877615273E-1,4.240806997E-1
1.366452962E1,-8.913788795E-1,-4.011739492E-1,4.251496792E-1
1.367368134E1,-9.862129092E-1,-2.925958335E-1,4.781406820E-1
1.368283306E1,-1.009730577E0,-1.820324808E-1,5.602996349E-1
1.369198483E1,-9.756757617E-1,2.580829710E-2,6.875085831E-1
1.370113655E1,-9.269607067E-1,2.200577259E-1,7.133168578E-1
1.371028832E1,-8.771766424E-1,3.306210935E-1,6.384881139E-1
1.371944004E1,-8.446490765E-1,3.691044450E-1,5.952706337E-1
1.372859181E1,-8.284615874E-1,3.278722763E-1,5.184566379E-1
1.373774353E1,-8.945857882E-1,2.956500649E-1,4.624113739E-1
1.374689525E1,-1.039509296E0,2.093679011E-1,5.036435723E-1
1.375604702E1,-1.119988441E0,1.253764033E-1,6.210789680E-1
1.376519874E1,-1.210393786E0,2.707580328E-1,7.337802649E-1
1.377435051E1,-1.258956194E0,3.988832533E-1,8.444963098E-1
1.378350222E1,-1.337755442E0,4.795151055E-1,9.668185115E-1
1.379265394E1,-1.453816533E0,5.726693273E-1,1.120293856E0
1.380180571E1,-1.487413049E0,6.685723066E-1,1.295301557E0
1.381095743E1,-1.426328301E0,7.980719209E-1,1.418387294E0
1.382010915E1,-1.310572743E0,9.208522439E-1,1.499629974E0
1.382926092E1,-1.128234863E0,9.374978542E-1,1.497950196E0
1.383839993E1,-9.045121074E-1,9.049702287E-1,1.414569497E0
1.384756441E1,-7.653915882E-1,9.214630723E-1,1.261094213E0
1.385671613E1,-7.305732965E-1,8.973346353E-1,1.103801012E0
1.386585514E1,-7.756233215E-1,7.701256871E-1,9.216157794E-1
1.387501962E1,-8.654178381E-1,5.644228458E-1,7.568397522E-1
1.388417134E1,-9.333745837E-1,2.925958335E-1,6.319214702E-1
1.389332311E1,-9.324583411E-1,8.368607610E-2,5.410579443E-1
1.390247483E1,-8.863393664E-1,-1.282779220E-2,4.767662883E-1
1.391162660E1,-8.018897176E-1,-3.420744836E-2,3.596363366E-1
1.392077832E1,-7.321004272E-1,-4.138490185E-2,2.006633282E-1
1.392993009E1,-6.783458591E-1,-5.329642445E-2,7.345438004E-2
1.393908181E1,-6.461237073E-1,-6.001574174E-2,2.916795574E-2
1.394823353E1,-6.604785919E-1,-4.856235534E-2,3.817795217E-2
1.395738530E1,-7.172874212E-1,-3.649812192E-2,6.642963737E-2
1.396653707E1,-7.438592315E-1,-4.902049154E-2,8.154810965E-2
1.397567603E1,-7.189671993E-1,-5.451811850E-2,6.887302548E-2
1.398484051E1,-6.339067221E-1,-3.176405653E-2,-1.527118147E-4
1.399399228E1,-4.944808483E-1,1.786728203E-2,-1.433963925E-1
1.400313124E1,-3.629959822E-1,8.429691941E-2,-3.103103936E-1
1.401229571E1,-2.502946556E-1,1.580567211E-1,-4.671454430E-1
1.402144749E1,-1.096470803E-1,2.365505993E-1,-6.505523324E-1
1.403059920E1,3.894151375E-2,2.745758295E-1,-8.620582223E-1
1.403975097E1,1.791309565E-1,2.732014358E-1,-1.080283403E0
1.404890269E1,2.968717813E-1,2.788517773E-1,-1.264606595E0
1.405805441E1,3.941491842E-1,2.846548259E-1,-1.375017166E0
1.406720618E1,4.659237564E-1,3.182514310E-1,-1.396549582E0
1.407635790E1,5.147915483E-1,4.175141156E-1,-1.336381078E0
1.408549691E1,5.205945969E-1,6.783458591E-1,-1.220472813E0
1.409466144E1,4.366030693E-1,1.116934180E0,-1.071731567E0
1.410381316E1,2.777827978E-1,1.517191887E0,-9.443698525E-1
1.411295212E1,1.372879148E-1,1.572473526E0,-9.185615778E-1
1.412211660E1,1.374406368E-1,1.089140654E0,-9.713998437E-1
1.413126837E1,4.060607255E-1,3.631486893E-1,-1.010341406E0
1.414040733E1,8.486195803E-1,-9.025268257E-2,-9.495620728E-1
1.414957186E1,1.289193153E0,-1.940967143E-1,-8.590039611E-1
1.415872358E1,1.604084849E0,-1.933331639E-1,-8.141067028E-1
1.416786259E1,1.784895658E0,-2.304421216E-1,-8.170081973E-1
1.417702707E1,1.942036152E0,-3.370349705E-1,-8.359444737E-1
1.418617879E1,2.135369301E0,-4.558447599E-1,-8.199097514E-1
1.419531780E1,2.321677685E0,-4.940227270E-1,-7.879929543E-1
1.420448228E1,2.479123592E0,-3.955236077E-1,-7.589777112E-1
1.421363405E1,2.559908152E0,-1.524063945E-1,-7.102626562E-1
1.422278577E1,2.491187811E0,2.151709497E-1,-6.804838181E-1
1.423193749E1,2.276933193E0,5.427377820E-1,-6.762079000E-1
1.424108926E1,1.985864401E0,7.988355160E-1,-7.382088900E-1
1.425024097E1,1.738776684E0,9.625425935E-1,-8.542698622E-1
1.425939275E1,1.681815267E0,1.000873208E0,-1.014617324E0
1.426854446E1,1.821699262E0,9.851438999E-1,-1.108382344E0
1.427769618E1,2.066190958E0,9.242119193E-1,-1.054016948E0
1.428684795E1,2.299534559E0,8.567132950E-1,-8.686248064E-1
1.429599967E1,2.468586445E0,7.385143638E-1,-6.371136904E-1
1.430513868E1,2.581593275E0,6.117635369E-1,-4.352286756E-1
1.431430316E1,2.635805845E0,4.530959427E-1,-3.645231128E-1
1.432345493E1,2.614731789E0,2.797680497E-1,-4.317162931E-1
1.433259389E1,2.535016060E0,1.728697717E-1,-5.848862529E-1
1.434175842E1,2.428728819E0,6.841489673E-2,-7.608102560E-1
1.435091014E1,2.322899342E0,-1.021642014E-1,-8.884773254E-1
1.436004910E1,2.232799530E0,-2.646495700E-1,-9.451334476E-1
1.436921363E1,2.131551504E0,-4.146125913E-1,-9.029849768E-1
1.437836535E1,2.011672735E0,-5.512896776E-1,-8.170081973E-1
1.438750436E1,1.859877229E0,-6.484143734E-1,-7.594358325E-1
1.439666884E1,1.699377060E0,-6.925480962E-1,-7.409577370E-1
1.440582056E1,1.568350315E0,-7.241594195E-1,-7.485933304E-1
1.441497233E1,1.477181435E0,-7.224795818E-1,-7.626428008E-1
1.442412405E1,1.396854997E0,-7.056813240E-1,-7.528692484E-1
1.443327582E1,1.318208337E0,-6.864396334E-1,-7.137750387E-1
1.444242754E1,1.229941010E0,-6.815528274E-1,-6.618530154E-1
1.445157926E1,1.113879919E0,-7.001836896E-1,-5.888567567E-1
1.446073103E1,9.633061290E-1,-6.704048514E-1,-4.824166298E-1
1.446988275E1,8.023478985E-1,-6.484143734E-1,-3.535278440E-1
1.447903452E1,6.668924689E-1,-6.500942111E-1,-2.371614426E-1
1.448818629E1,5.633538961E-1,-6.100836992E-1,-1.517955512E-1
1.449733801E1,4.674508572E-1,-5.407525301E-1,-7.498150319E-2
1.450648978E1,3.636068404E-1,-4.821111858E-1,8.399149403E-3
1.451564144E1,2.339545041E-1,-4.253024161E-1,9.116895497E-2
1.452479321E1,8.765657991E-2,-3.692571819E-1,1.634016484E-1
1.453394493E1,-5.711421743E-2,-3.210002482E-1,2.154763639E-1
1.454309670E1,-1.965401024E-1,-2.536543310E-1,2.583884001E-1
1.455224847E1,-3.510844707E-1,-1.566823274E-1,3.170297146E-1
1.456140019E1,-5.292991400E-1,-6.444438547E-2,3.987305462E-1
1.457055196E1,-5.480827093E-1,-4.260659590E-2,4.413371384E-1
1.457969092E1,-3.894151375E-2,-3.329117596E-2,2.764083743E-1
1.458885540E1,5.225798488E-1,-3.049654961E-1,-6.688777357E-2
1.459800712E1,1.411057115E-1,-2.516690791E-1,-1.667613089E-1
1.460714613E1,-1.131747246E0,4.708105326E-1,2.127275616E-1
1.461631061E1,-2.449802876E0,1.042410851E0,8.364025950E-1
1.462546238E1,-3.089359999E0,8.951966763E-1,1.369977713E0
1.463460139E1,-2.893125296E0,4.239279926E-1,1.591562510E0
1.464376587E1,-2.126664639E0,3.811686933E-1,1.444195628E0
1.465291759E1,-1.198482275E0,2.383831441E-1,1.047908425E0
1.466205660E1,-7.808154821E-1,1.006370857E-1,6.313106418E-1
1.467122108E1,-1.005301833E0,4.654656053E-1,3.309265077E-1
1.468037285E1,-1.363258362E0,6.638382673E-1,1.821851879E-1
1.468951181E1,-1.617065430E0,6.888830066E-1,2.322746664E-1
1.469867629E1,-1.733584523E0,5.346440673E-1,4.234698713E-1
1.470782806E1,-1.591409802E0,1.024696305E-1,6.780404449E-1
1.471696702E1,-1.261246920E0,-2.050919682E-1,9.255862832E-1
1.472613155E1,-9.123004079E-1,-5.053234100E-1,1.074938416E0
1.473528327E1,-5.822901726E-1,-8.597674966E-1,1.057834744E0
1.474442228E1,-3.203893900E-1,-1.040272832E0,8.767185211E-1
1.475358676E1,-1.856975704E-1,-1.030652046E0,6.253548861E-1
1.476273847E1,-1.971509457E-1,-9.677347541E-1,4.237752855E-1
1.477187749E1,-3.240544796E-1,-8.837432861E-1,3.587200642E-1
1.478104196E1,-5.259394646E-1,-7.391251922E-1,4.384356141E-1
1.479019368E1,-7.681404352E-1,-6.041279435E-1,5.635066032E-1
1.479934545E1,-9.998042583E-1,-4.963133931E-1,6.424586177E-1
1.480849722E1,-1.138161182E0,-3.584146202E-1,6.810947061E-1
1.481764894E1,-1.190846682E0,-2.512109280E-1,6.800256968E-1
1.482680071E1,-1.200773001E0,-1.411057115E-1,6.365028620E-1
1.483595243E1,-1.185654521E0,-1.786728203E-2,5.668662786E-1
1.484510415E1,-1.141673565E0,1.236965731E-1,4.963133931E-1
1.485425587E1,-1.060889006E0,2.186833173E-1,4.546230733E-1
1.486340764E1,-9.571976662E-1,2.110477239E-1,4.504998624E-1
1.487255941E1,-8.535063267E-1,1.340809762E-1,4.384356141E-1
1.488171113E1,-7.774558663E-1,9.620844573E-2,4.359922409E-1
1.489086285E1,-6.997255087E-1,1.496575773E-2,4.482091665E-1
1.490001462E1,-6.462764144E-1,-1.041494608E-1,4.572191834E-1
1.490916639E1,-6.503996253E-1,-1.377460510E-1,4.999784827E-1
1.491831811E1,-6.884248853E-1,-1.895153672E-1,5.491516590E-1
1.492746983E1,-7.284353375E-1,-2.099787444E-1,5.720584393E-1
1.493660884E1,-7.966975570E-1,-8.826743066E-2,5.832064152E-1
1.494577332E1,-1.262773991E0,9.906415343E-1,8.270871639E-1
1.495492504E1,-1.512610555E0,9.361234307E-2,8.307522535E-1
1.496406405E1,-1.194053650E0,-7.259919643E-1,5.251759291E-1
1.497322853E1,-7.085828185E-1,2.977880463E-2,3.539859951E-1
1.498238030E1,-4.984513521E-1,3.191677034E-1,3.315373361E-1
1.499153202E1,-5.657972693E-1,-7.482878864E-3,3.324536085E-1
1.500068379E1,-7.556180358E-1,-1.136175916E-1,3.776563108E-1
1.500983551E1,-9.535325766E-1,3.481829539E-2,5.215108395E-1
1.501898728E1,-1.064859509E0,9.177979827E-2,6.452074051E-1
1.502813900E1,-1.290720224E0,2.528907657E-1,8.133431077E-1
1.503729077E1,-1.606680989E0,5.538857579E-1,1.004996419E0
1.504644249E1,-1.673110604E0,7.244648337E-1,1.191304922E0
1.505559420E1,-1.623937488E0,8.638907075E-1,1.385096192E0
1.506474597E1,-1.519177079E0,8.478559852E-1,1.563616276E0
1.507388499E1,-1.366159916E0,6.520794630E-1,1.657075882E0
1.508304941E1,-1.178324342E0,5.323534012E-1,1.661504507E0
1.509220118E1,-1.003469348E0,4.582881629E-1,1.575985909E0
1.510134019E1,-8.275453448E-1,2.909159958E-1,1.400978208E0
1.511050467E1,-6.534538269E-1,1.165191159E-1,1.121362805E0
1.511965639E1,-5.758762360E-1,7.085828483E-2,8.075400591E-1
1.512879540E1,-6.071822047E-1,7.253811508E-2,6.050441861E-1
1.513795993E1,-7.295043468E-1,1.878355257E-2,5.126535892E-1
1.514711165E1,-8.347227573E-1,-6.322269142E-2,4.937172830E-1
1.515626337E1,-8.791618943E-1,-1.339282542E-1,4.811949134E-1
1.516541514E1,-8.683193922E-1,-2.209739983E-1,4.202629030E-1
1.517456686E1,-8.261709213E-1,-3.206948042E-1,3.046600819E-1
1.518371863E1,-7.669187188E-1,-4.013266563E-1,1.670667231E-1
1.519287035E1,-7.182036638E-1,-4.825693369E-1,4.291202128E-2
1.520202207E1,-7.101099491E-1,-5.172349215E-1,-4.734066129E-2
1.521116113E1,-7.931851745E-1,-4.590517282E-1,-8.643488586E-2
1.522032556E1,-9.338327646E-1,-3.216110766E-1,-4.596625641E-2
1.522947733E1,-1.039356589E0,-1.557660550E-1,6.673506647E-2
1.523861629E1,-1.047450304E0,3.206948051E-3,1.818797737E-1
1.524778082E1,-9.029849768E-1,9.636115283E-2,2.286095917E-1
1.525693254E1,-6.189410090E-1,8.948912472E-2,1.714953631E-1
1.526608431E1,-2.771719396E-1,-5.955760833E-3,-1.114796288E-2
1.527523603E1,8.444963396E-2,-2.011214644E-1,-3.020639718E-1
1.528438780E1,3.674246371E-1,-3.881934285E-1,-6.430694461E-1
1.529352676E1,5.199837089E-1,-4.880669713E-1,-9.802571535E-1
1.530269129E1,5.686988235E-1,-4.903576374E-1,-1.274227381E0
1.531184301E1,5.799994469E-1,-3.906368315E-1,-1.514137626E0
1.532098202E1,6.206207871E-1,-1.204896197E-1,-1.654021621E0
1.533014650E1,7.241594195E-1,2.531961799E-1,-1.689450860E0
1.533929821E1,8.284615874E-1,7.592831254E-1,-1.596296549E0
1.534844998E1,8.081509471E-1,1.346918225E0,-1.394106150E0
1.535760170E1,6.291726828E-1,1.766417503E0,-1.169161677E0
1.536675347E1,3.868190348E-1,1.806122661E0,-1.087308168E0
1.537589249E1,2.173089087E-1,1.489856482E0,-1.156639338E0
1.538505696E1,2.315111160E-1,1.026834249E0,-1.202605486E0
1.539420868E1,4.390464723E-1,5.856497884E-1,-1.134954214E0
1.540334769E1,7.621846795E-1,2.293731421E-1,-1.011410356E0
1.541251217E1,1.160762548E0,8.078455180E-2,-9.425373077E-1
1.542166389E1,1.600878000E0,2.351761982E-2,-9.639169574E-1
1.543081566E1,2.045727491E0,-3.527642787E-2,-9.283351302E-1
1.543996738E1,2.403531313E0,-1.030804738E-1,-8.548807502E-1
1.544911915E1,2.592588425E0,-1.337755471E-1,-7.698202729E-1
1.545827092E1,2.592435837E0,-9.361234307E-2,-6.557445526E-1
1.546742264E1,2.481261492E0,2.702999115E-2,-5.760289431E-1
1.547657441E1,2.366269588E0,2.400629669E-1,-6.135960817E-1
1.548572608E1,2.286095858E0,4.544703662E-1,-7.748597264E-1
1.549487785E1,2.193857908E0,6.090146899E-1,-1.009577751E0
1.550402957E1,2.178128719E0,7.017107606E-1,-1.149003744E0
1.551318134E1,2.278765678E0,7.722636461E-1,-1.172215939E0
1.552233311E1,2.424452782E0,7.340856791E-1,-1.151599765E0
1.553148483E1,2.551661730E0,6.229115129E-1,-1.116323352E0
1.554063660E1,2.618855000E0,5.262449384E-1,-1.057834744E0
1.554978832E1,2.609997511E0,4.266768098E-1,-9.454388618E-1
1.555894004E1,2.550440073E0,3.367295563E-1,-7.931851745E-1
1.556807905E1,2.487675428E0,2.677038014E-1,-6.781931520E-1
1.557724353E1,2.430408478E0,2.012741715E-1,-6.852179170E-1
1.558639524E1,2.404447556E0,9.559759498E-2,-7.603521347E-1
1.559553426E1,2.426743507E0,-2.519745007E-2,-8.170081973E-1
1.560469879E1,2.448123217E0,-1.218640283E-1,-8.735115528E-1
1.561385050E1,2.443999767E0,-2.008160353E-1,-9.071081877E-1
1.562298946E1,2.390398026E0,-2.767138183E-1,-8.903098702E-1
1.563215400E1,2.266090631E0,-4.039227366E-1,-8.159392476E-1
1.564130577E1,2.109866381E0,-4.737120569E-1,-7.339329720E-1
1.565044472E1,1.904316306E0,-4.631749392E-1,-7.214106321E-1
1.565960920E1,1.693115830E0,-4.605788291E-1,-7.534800768E-1
1.566876092E1,1.535670042E0,-4.301891923E-1,-7.753179073E-1
1.567791269E1,1.431062460E0,-3.923166394E-1,-7.510367036E-1
1.568706441E1,1.353484869E0,-3.571929336E-1,-6.844543815E-1
1.569621618E1,1.267508030E0,-2.980934680E-1,-6.013791561E-1
1.570536790E1,1.155264854E0,-2.519744933E-1,-5.161659122E-1
1.571451967E1,1.024543524E0,-2.266243398E-1,-4.193466306E-1
1.572367144E1,8.667922616E-1,-1.546970755E-1,-2.977880239E-1
1.573282316E1,6.833853722E-1,-1.020114943E-1,-1.788255423E-1
1.574197488E1,5.079194903E-1,-1.024696305E-1,-7.330167294E-2
1.575112665E1,3.704788685E-1,-1.302631795E-1,2.748812549E-3
1.576027837E1,2.724378705E-1,-1.530172378E-1,7.055285573E-2
1.576943014E1,2.055501044E-1,-1.582094431E-1,1.450762302E-1
1.577858186E1,1.522536725E-1,-1.664558798E-1,2.264716178E-1
1.578773363E1,9.132166207E-2,-1.481304616E-1,3.037438095E-1
1.579688535E1,-1.420219894E-2,-1.052184403E-1,3.822376728E-1
1.580603707E1,-1.843231618E-1,-7.681404054E-2,4.659237564E-1
1.581518884E1,-4.248442650E-1,-2.260134928E-2,5.563291311E-1
1.582434056E1,-7.192726731E-1,5.192201585E-2,6.470399499E-1
1.583349233E1,-1.049282908E0,1.006370857E-1,7.307260633E-1
1.584263129E1,-1.185349107E0,7.085828483E-2,7.470661998E-1
1.585179582E1,-8.536590338E-1,1.160609815E-2,5.783196688E-1
1.586094759E1,-4.399627447E-1,-3.377985358E-1,2.658712566E-1
1.587008655E1,-5.880932212E-1,-6.026008129E-1,1.111742035E-1
1.587925103E1,-1.476875901E0,9.620844387E-3,4.323271513E-1
1.588840280E1,-2.501114130E0,8.955020905E-1,1.029583097E0
1.589754176E1,-3.052709103E0,1.180615067E0,1.440683246E0
1.590670629E1,-3.116695404E0,5.996993184E-1,1.475043416E0
1.591585800E1,-2.844104767E0,-2.240282297E-1,1.241088867E0
1.592499702E1,-2.299229145E0,-9.518527389E-1,8.699992299E-1
1.593416150E1,-1.619661450E0,-8.667922616E-1,4.782933891E-1
1.594331321E1,-1.060125470E0,-5.095993280E-1,1.937913001E-1
1.595245222E1,-8.226585388E-1,-4.173613787E-1,9.712471068E-2
1.596161670E1,-8.703046441E-1,-2.380777150E-1,2.078407854E-1
1.597076847E1,-1.014159203E0,-2.356343269E-1,4.216373265E-1
1.597990743E1,-1.132663488E0,-5.488462448E-1,6.574243903E-1
1.598907196E1,-1.141673565E0,-1.016297102E0,8.629744649E-1
1.599822374E1,-1.015075445E0,-1.297134161E0,9.684983492E-1
1.600736269E1,-7.973083854E-1,-1.316070437E0,9.498674870E-1
1.601652722E1,-5.824428797E-1,-1.229941010E0,8.389987350E-1
1.602567889E1,-4.801259339E-1,-1.081657767E0,6.826218367E-1
1.603481790E1,-5.114318728E-1,-9.556705356E-1,5.436540842E-1
1.604398243E1,-6.397097707E-1,-7.826480269E-1,4.645493329E-1
1.605313415E1,-8.058602214E-1,-5.383091569E-1,4.709632397E-1
1.606228587E1,-9.845330715E-1,-3.067980409E-1,5.435013771E-1
1.607143764E1,-1.156486630E0,-2.067717910E-1,6.277982593E-1
1.608058936E1,-1.299730301E0,-2.098260373E-1,6.804838181E-1
1.608972837E1,-1.354248405E0,-2.507528067E-1,7.081246972E-1
1.609889285E1,-1.276365399E0,-2.706053257E-1,7.081246972E-1
1.610804462E1,-1.068524599E0,-2.040229887E-1,6.734591126E-1
1.611719634E1,-8.280034661E-1,-4.413371533E-2,6.073349118E-1
1.612634811E1,-6.439857483E-1,-6.108472589E-4,5.902311802E-1
1.613549983E1,-5.163186193E-1,-2.260134928E-2,6.296308041E-1
1.614463884E1,-4.776825607E-1,2.428117767E-2,6.951441765E-1
1.615380332E1,-5.291464329E-1,1.009425074E-1,7.608102560E-1
1.616295509E1,-6.778877378E-1,1.009425074E-1,8.134958148E-1
1.617210681E1,-8.696937561E-1,1.388150454E-1,8.909206986E-1
1.618125853E1,-1.015991688E0,7.055285573E-2,9.210049510E-1
1.619041030E1,-1.102121115E0,1.349972486E-1,9.326110482E-1
1.619954931E1,-9.994988441E-1,-8.704573847E-3,8.419002295E-1
1.620871379E1,-8.222004175E-1,-6.184828654E-2,7.032378912E-1
1.621786551E1,-6.436802745E-1,1.980672181E-1,5.125008225E-1
1.622701728E1,-5.662553906E-1,3.261924386E-1,2.993151546E-1
1.623616900E1,-6.548282504E-1,3.067980409E-1,3.145863414E-1
1.624532077E1,-8.228112459E-1,2.095206082E-1,4.398100376E-1
1.625447254E1,-9.349017143E-1,5.680879578E-2,5.935907960E-1
1.626362426E1,-8.979454637E-1,-4.947862774E-2,6.592568755E-1
1.627277597E1,-7.892146707E-1,-6.154286116E-2,6.265766025E-1
1.628192774E1,-7.858549953E-1,6.780404598E-2,5.848862529E-1
1.629107946E1,-8.851176500E-1,9.941539168E-2,5.329642296E-1
1.630023124E1,-1.080130696E0,1.591257155E-1,6.230642200E-1
1.630938295E1,-1.285986185E0,2.913741469E-1,7.718055248E-1
1.631853472E1,-1.465117097E0,4.062134326E-1,9.316948056E-1
1.632768644E1,-1.587439299E0,4.509579837E-1,1.180004239E0
1.633682545E1,-1.640124917E0,4.709632397E-1,1.374253631E0
1.634598993E1,-1.531088710E0,5.045598149E-1,1.453816533E0
1.635514170E1,-1.353790283E0,5.451811552E-1,1.425106645E0
1.636429342E1,-1.179393291E0,6.397097707E-1,1.359135151E0
1.637344519E1,-1.008508801E0,7.409577370E-1,1.290720224E0
1.638259691E1,-8.918370008E-1,6.882721782E-1,1.194359064E0
1.639174863E1,-8.269344568E-1,5.103628635E-1,1.086849928E0
1.640090040E1,-7.647807598E-1,3.683409095E-1,9.768974781E-1
1.641005212E1,-7.108734846E-1,2.672456801E-1,8.399149776E-1
1.641920389E1,-6.371136904E-1,1.612636745E-1,6.647545099E-1
1.642835561E1,-5.844281316E-1,1.466033459E-1,4.653128982E-1
1.643750738E1,-5.793886185E-1,2.202104330E-1,3.023693860E-1
1.644665910E1,-5.870242119E-1,2.866400778E-1,2.063136548E-1
1.645581087E1,-5.931326747E-1,3.038965166E-1,1.592784226E-1
1.646496259E1,-5.806103349E-1,2.411319613E-1,1.172826737E-1
1.647410160E1,-5.187620521E-1,1.006370857E-1,4.703523964E-2
1.648326608E1,-4.482091665E-1,-9.620844573E-2,-5.497625470E-2
1.649241785E1,-4.152234197E-1,-3.006895781E-1,-1.437018216E-1
1.650156957E1,-4.540122151E-1,-4.106420577E-1,-1.915006191E-1
1.651072134E1,-5.929799676E-1,-3.842229247E-1,-1.699682474E-1
1.651987311E1,-7.569924593E-1,-2.805316150E-1,-8.460234851E-2
1.652901207E1,-7.430956960E-1,-2.139492482E-1,-1.664558798E-2
1.653817660E1,-5.016583204E-1,-1.913478971E-1,-3.878879920E-2
1.654732832E1,-1.971509457E-1,-1.287360638E-1,-1.808107942E-1
1.655648004E1,8.200624585E-2,-6.856760383E-2,-4.523324072E-1
1.656563181E1,2.985515893E-1,4.581354442E-4,-7.855495811E-1
1.657478358E1,4.384356141E-1,6.887302548E-2,-1.072800517E0
1.658392254E1,5.286883116E-1,1.973036677E-1,-1.239714503E0
1.659308707E1,5.503733754E-1,4.709632397E-1,-1.266591787E0
1.660223879E1,4.898995161E-1,8.729007244E-1,-1.230093718E0
1.661137780E1,4.051444530E-1,1.231620789E0,-1.149614573E0
1.662054228E1,2.702999115E-1,1.370283127E0,-1.041952729E0
1.662969400E1,1.214058921E-1,9.701781869E-1,-9.854493141E-1
1.663883301E1,1.559187621E-1,2.562504113E-1,-9.564340711E-1
1.664799754E1,4.960079789E-1,-2.991624475E-1,-9.109259844E-1
1.665714926E1,9.781191945E-1,-4.850127101E-1,-8.530482054E-1
1.666628827E1,1.367076159E0,-5.030327439E-1,-8.319739699E-1
1.667545274E1,1.595380306E0,-5.039489865E-1,-8.707627654E-1
1.668460446E1,1.751451850E0,-4.955498278E-1,-9.391776323E-1
1.669375624E1,1.985711694E0,-5.303681493E-1,-9.967499971E-1
1.670290795E1,2.240435123E0,-5.887040496E-1,-1.067608237E0
1.671205972E1,2.404752970E0,-5.995466113E-1,-1.139688253E0
1.672119874E1,2.436211586E0,-5.271611810E-1,-1.134648800E0
1.673036321E1,2.343515396E0,-3.365768492E-1,-1.056002140E0
1.673951493E1,2.156290770E0,-4.779879749E-2,-9.567395449E-1
1.674865394E1,1.961277843E0,2.854183912E-1,-8.516737819E-1
1.675781842E1,1.761530757E0,6.687250137E-1,-7.892146707E-1
1.676697019E1,1.596296549E0,1.006523609E0,-7.747070193E-1
1.677612191E1,1.527270913E0,1.289651275E0,-7.742488980E-1
1.678527368E1,1.584843159E0,1.525438309E0,-7.556180358E-1
1.679442540E1,1.753284335E0,1.616301894E0,-6.897992492E-1
1.680356436E1,1.977007151E0,1.515206575E0,-5.940489769E-1
1.681272889E1,2.187749386E0,1.319124699E0,-6.035171151E-1
1.682188061E1,2.367033243E0,1.020267606E0,-6.832326651E-1
1.683101962E1,2.471946239E0,8.535063267E-1,-8.203678727E-1
1.684018410E1,2.481872320E0,7.608102560E-1,-9.440644383E-1
1.684933587E1,2.436058760E0,6.236750484E-1,-1.034775257E0
1.685847488E1,2.367491245E0,4.156815708E-1,-1.022252917E0
1.686763936E1,2.306101084E0,2.319692522E-1,-9.498674870E-1
1.687679113E1,2.246237993E0,6.581879407E-2,-8.909206986E-1
1.688593009E1,2.173699856E0,-1.072036922E-1,-8.681666851E-1
1.689509457E1,2.095664263E0,-2.759502530E-1,-8.490777016E-1
1.690424634E1,2.034579515E0,-4.289674759E-1,-8.237275481E-1
1.691338530E1,1.999303102E0,-5.453338623E-1,-8.104416132E-1
1.692254983E1,1.984031916E0,-6.392516494E-1,-8.067765236E-1
1.693170160E1,1.962957621E0,-6.894938350E-1,-8.276980519E-1
1.694084056E1,1.904469013E0,-6.879667044E-1,-8.738170266E-1
1.695000504E1,1.784132123E0,-6.497887969E-1,-9.223793745E-1
1.695915681E1,1.603015900E0,-5.699204803E-1,-9.359707236E-1
1.696830853E1,1.392426372E0,-4.982986450E-1,-8.660287261E-1
1.697746030E1,1.193595529E0,-4.515688419E-1,-7.105680704E-1
1.698661202E1,1.040883780E0,-4.196520746E-1,-5.114318728E-1
1.699576379E1,9.345963001E-1,-4.083513916E-1,-3.405473530E-1
1.700491550E1,8.365553021E-1,-3.881934285E-1,-2.331909388E-1
1.701406722E1,7.186617851E-1,-3.875826001E-1,-1.821851879E-1
1.702321905E1,5.804576278E-1,-3.936910629E-1,-1.513374150E-1
1.703237077E1,4.178195298E-1,-3.539859951E-1,-1.096470803E-1
1.704152248E1,2.429644912E-1,-2.619007528E-1,-3.466558084E-2
1.705067426E1,6.688777357E-2,-1.322484314E-1,7.696675509E-2
1.705982597E1,-1.097997949E-1,-6.719320081E-3,1.971509457E-1
1.706897769E1,-3.202366829E-1,1.108687744E-1,3.042019308E-1
1.707812952E1,-5.885513425E-1,2.295258641E-1,3.981196880E-1
1.708728118E1,-8.722898960E-1,2.872509360E-1,4.784461260E-1
1.709643295E1,-8.881719112E-1,3.275668323E-1,4.711159468E-1
1.710557196E1,-6.697940230E-1,2.615953386E-1,3.064926267E-1
1.711473644E1,-5.355603099E-1,6.872031838E-3,1.385096163E-1
1.712388821E1,-7.789829373E-1,1.466033421E-2,2.302894145E-1
1.713302717E1,-1.631420374E0,6.539120078E-1,6.841489077E-1
1.714219165E1,-2.560824394E0,1.449693203E0,1.176491857E0
1.715134342E1,-2.929165363E0,1.222916245E0,1.442210436E0
1.716048243E1,-2.767596245E0,4.077405483E-2,1.398534775E0
1.716964691E1,-2.382151604E0,-1.065164924E0,1.067302823E0
1.717879863E1,-1.950435281E0,-1.571862698E0,5.796940327E-1
1.718793764E1,-1.658450365E0,-1.396702290E0,1.004843712E-1
1.719710217E1,-1.656617761E0,-1.023779988E0,-2.423536479E-1
1.720625389E1,-1.831930876E0,-6.610894203E-1,-3.439069986E-1
1.721539290E1,-1.840177417E0,-3.407000601E-1,-2.319692522E-1
1.722455738E1,-1.529256105E0,-3.220692277E-1,8.842013776E-2
1.723370910E1,-1.017366052E0,-7.177455425E-1,5.722111464E-1
1.724284816E1,-4.506525695E-1,-1.165649295E0,1.045006990E0
1.725201259E1,2.993151546E-2,-1.270104170E0,1.308587551E0
1.726116436E1,3.011476994E-1,-1.193748236E0,1.286138892E0
1.727030337E1,2.956500649E-1,-1.159693480E0,1.050962687E0
1.727946785E1,5.451811850E-2,-1.220930934E0,7.501204610E-1
1.728861962E1,-3.330644667E-1,-1.267508030E0,5.347967744E-1
1.729775863E1,-7.773031592E-1,-1.205201626E0,4.839437306E-1
1.730692306E1,-1.131747246E0,-1.021031141E0,5.563291311E-1
1.731607483E1,-1.348445296E0,-8.076927662E-1,6.517740488E-1
1.732522655E1,-1.447860718E0,-5.945070982E-1,6.875085831E-1
1.733437832E1,-1.418387294E0,-4.540122151E-1,6.907155514E-1
1.734353009E1,-1.258039951E0,-3.139754832E-1,6.844543815E-1
1.735268181E1,-1.015838981E0,-1.068982705E-1,6.810947061E-1
1.736183358E1,-8.021951914E-1,1.099525094E-1,7.093463540E-1
1.737098530E1,-7.171346545E-1,2.965663373E-1,7.879929543E-1
1.738013707E1,-7.012526393E-1,4.419479966E-1,8.209787011E-1
1.738928879E1,-7.395833135E-1,6.337540150E-1,8.675557971E-1
1.739844050E1,-8.112051487E-1,7.525638342E-1,9.139801860E-1
1.740757957E1,-8.875610828E-1,6.789567471E-1,9.142856598E-1
1.741674405E1,-9.190196991E-1,3.883461356E-1,9.458969831E-1
1.742589577E1,-8.831323981E-1,2.486148328E-1,1.078756213E0
1.743503478E1,-9.784246087E-1,8.180772066E-1,1.568655729E0
1.744419926E1,-8.402203918E-1,-1.299577504E-1,1.499477267E0
1.745335097E1,-6.360446811E-1,-6.792621613E-1,8.437327743E-1
1.746248998E1,-6.007682681E-1,-1.546970755E-1,1.620272398E-1
1.747165446E1,-7.151494026E-1,-1.065928489E-1,-1.435490996E-1
1.748080624E1,-9.066500664E-1,-5.074613690E-1,-9.513945878E-2
1.748994524E1,-1.058598280E0,-6.992673874E-1,7.605048269E-2
1.749910972E1,-1.118003249E0,-5.263976455E-1,3.710896969E-1
1.750826150E1,-1.086849928E0,-2.550287247E-1,7.437065244E-1
1.751741321E1,-1.049588323E0,-1.029277667E-1,9.458969831E-1
1.752656498E1,-1.037218690E0,-5.940489471E-2,9.802571535E-1
1.753571670E1,-1.145949483E0,2.657185495E-1,9.407047629E-1
1.754486842E1,-1.418692708E0,7.047650218E-1,9.885035753E-1
1.755402019E1,-1.637986898E0,6.784985662E-1,1.141520858E0
1.756317196E1,-1.722741961E0,1.887518018E-1,1.218793035E0
1.757232368E1,-1.763210654E0,4.430169761E-1,1.386317849E0
1.758147545E1,-1.792531252E0,8.608365059E-1,1.600725293E0
1.759062717E1,-1.797418118E0,8.680139780E-1,1.722741961E0
1.759977894E1,-1.741067410E0,7.499676943E-1,1.754505992E0
1.760893071E1,-1.545596242E0,7.731798887E-1,1.717244387E0
1.761808243E1,-1.250098944E0,8.049439788E-1,1.566823244E0
1.762723415E1,-9.950701594E-1,7.171346545E-1,1.336533785E0
1.763638592E1,-8.932114244E-1,5.451811552E-1,1.097387075E0
1.764553769E1,-9.116895199E-1,4.207210541E-1,8.886300325E-1
1.765468941E1,-9.695672989E-1,3.663556576E-1,7.146912813E-1
1.766384113E1,-1.036302328E0,3.216110766E-1,5.383091569E-1
1.767299290E1,-1.059361815E0,2.298312783E-1,3.678827584E-1
1.768214462E1,-9.909469485E-1,1.678302884E-1,2.041756958E-1
1.769129639E1,-9.002361298E-1,1.505738497E-1,6.139015034E-2
1.770044811E1,-8.393041492E-1,1.299577504E-1,-2.428117767E-2
1.770959988E1,-8.325847983E-1,8.093725890E-2,-5.543438718E-2
1.771875160E1,-9.229902029E-1,4.963133857E-2,-2.794626169E-2
1.772790337E1,-1.054627776E0,4.138490185E-2,6.032116711E-2
1.773704238E1,-1.017671585E0,6.948387623E-2,1.606528312E-1
1.774620686E1,-8.046385646E-1,1.640124917E-1,1.878355294E-1
1.775535858E1,-5.719057322E-1,3.043546379E-1,1.014006436E-1
1.776451035E1,-3.597890437E-1,3.912476599E-1,-1.157555580E-1
1.777366212E1,-1.536280811E-1,4.014793634E-1,-3.665083647E-1
1.778281384E1,-6.108472589E-4,4.578300118E-1,-5.242596865E-1
1.779195285E1,9.040539712E-2,5.752654076E-1,-5.529694557E-1
1.780111733E1,1.328592747E-1,7.009472251E-1,-5.179984570E-1
1.781026905E1,1.372879148E-1,8.238802552E-1,-5.063923597E-1
1.781942082E1,1.360662282E-1,9.219212532E-1,-5.723638535E-1
1.782857254E1,1.195733473E-1,1.025612593E0,-6.856760383E-1
1.783772431E1,1.177408099E-1,1.020878434E0,-8.119687438E-1
1.784686332E1,2.739650011E-1,7.527165413E-1,-9.029849768E-1
1.785602780E1,6.603258848E-1,2.890834510E-1,-9.413156509E-1
1.786517957E1,1.132816195E0,-1.644706279E-1,-9.364288449E-1
1.787431853E1,1.506349325E0,-5.320479870E-1,-9.316948056E-1
1.788348306E1,1.745190620E0,-8.127322793E-1,-9.762866497E-1
1.789263478E1,1.863695025E0,-8.591566682E-1,-1.062721491E0
1.790177379E1,1.841704488E0,-7.207997441E-1,-1.106397152E0
1.791093827E1,1.702889442E0,-5.859552622E-1,-1.064706802E0
1.792009004E1,1.476417780E0,-5.335750580E-1,-9.869764447E-1
1.792924181E1,1.284306407E0,-4.963133931E-1,-9.590302110E-1
1.793839353E1,1.231468081E0,-3.442124426E-1,-1.016907930E0
1.794754530E1,1.306449533E0,-5.650337040E-2,-1.131289124E0
1.795669702E1,1.441599488E0,2.996205688E-1,-1.200925708E0
1.796584874E1,1.564990640E0,6.253548861E-1,-1.187487125E0
1.797500050E1,1.656923175E0,9.097042680E-1,-1.070357084E0
1.798413952E1,1.684411287E0,1.128692985E0,-8.797727823E-1
1.799330400E1,1.679677248E0,1.277739763E0,-6.332958937E-1
1.800245571E1,1.718313336E0,1.391510010E0,-3.863608837E-1
1.801159472E1,1.802762985E0,1.495506763E0,-1.672194302E-1
1.802075926E1,1.955169320E0,1.440072417E0,-7.207997888E-2
1.802991097E1,2.192025423E0,1.313627005E0,-1.380514801E-1
1.803904993E1,2.436517000E0,1.225206852E0,-3.579564989E-1
1.804821446E1,2.652909756E0,1.082879424E0,-6.598677635E-1
1.805736624E1,2.845326424E0,8.429692388E-1,-8.958075047E-1
1.806650519E1,2.946727276E0,6.528429985E-1,-1.034775257E0
1.807566967E1,2.967495918E0,4.982986450E-1,-1.098608851E0
1.808482144E1,2.913130522E0,3.185568452E-1,-1.114185452E0
1.809396045E1,2.813715219E0,2.406738251E-1,-1.086086392E0
1.810312493E1,2.688796997E0,1.829487532E-1,-1.000262380E0
1.811227670E1,2.555632114E0,7.360709459E-2,-9.046648145E-1
1.812141566E1,2.420634985E0,-8.857285231E-2,-8.432746530E-1
1.813058019E1,2.326106310E0,-2.307475507E-1,-8.125795722E-1
1.813973191E1,2.280140162E0,-3.266505599E-1,-8.018897176E-1
1.814887092E1,2.263647318E0,-4.068242610E-1,-8.104416132E-1
1.815803540E1,2.238449812E0,-4.703523815E-1,-8.325847983E-1
1.816718717E1,2.168049574E0,-4.990622103E-1,-9.191724062E-1
1.817632618E1,2.044658422E0,-4.900522232E-1,-1.042258143E0
1.818549066E1,1.892404795E0,-4.640912116E-1,-1.098150611E0
1.819464243E1,1.720756769E0,-4.604261220E-1,-1.043785214E0
1.820379415E1,1.550330400E0,-4.944808483E-1,-9.040539265E-1
1.821294592E1,1.398992896E0,-5.404471159E-1,-7.261446714E-1
1.822209764E1,1.265370131E0,-5.606050491E-1,-5.665608048E-1
1.823124936E1,1.128234863E0,-5.729747415E-1,-4.520269632E-1
1.824040113E1,9.761339426E-1,-5.602996349E-1,-3.675773442E-1
1.824955285E1,7.936432958E-1,-5.234960914E-1,-2.913741469E-1
1.825870462E1,5.816792846E-1,-5.079194903E-1,-2.165453583E-1
1.826785639E1,3.480302393E-1,-4.640912116E-1,-1.437018216E-1
1.827700811E1,9.254335612E-2,-3.284831047E-1,-6.261184067E-2
1.828615983E1,-1.711899489E-1,-1.617218107E-1,2.886253223E-2
1.829531160E1,-4.440859556E-1,-1.481304597E-2,1.104106456E-1
1.830446332E1,-7.145385742E-1,8.322793990E-2,1.811162084E-1
1.831361509E1,-9.509364963E-1,1.368297935E-1,2.637332976E-1
1.832276681E1,-1.151752472E0,2.272351831E-1,3.501681983E-1
1.833191858E1,-1.354095697E0,3.651339412E-1,4.170559645E-1
1.834105759E1,-1.326760292E0,1.959292591E-1,4.039227366E-1
1.835022207E1,-9.613208771E-1,-5.413633585E-1,1.957765520E-1
1.835937379E1,-5.346440673E-1,-1.530630469E0,-1.027750522E-1
1.836851280E1,-7.388197780E-1,-7.672241330E-1,-3.390202299E-2
1.837767733E1,-1.695559263E0,1.483137131E0,5.560237169E-1
1.838682905E1,-2.666806459E0,2.275100708E0,1.174659252E0
1.839596806E1,-3.240239382E0,1.061041713E0,1.465269804E0
1.840513254E1,-3.461976767E0,-5.413633585E-1,1.407392025E0
1.841428431E1,-3.240850210E0,-1.600572586E0,1.158777237E0
1.842342332E1,-2.532267332E0,-1.670819998E0,7.882983685E-1
1.843258780E1,-1.648218632E0,-1.188556075E0,3.080197275E-1
1.844173952E1,-7.933378816E-1,-8.477032781E-1,-1.014006436E-1
1.845087853E1,3.970507067E-3,-8.400676847E-1,-1.861557066E-1
1.846004301E1,5.897729993E-1,-1.174659252E0,3.374931216E-2
1.846919478E1,9.694145918E-1,-1.707012653E0,4.208737612E-1
1.847833379E1,1.160151601E0,-2.204700470E0,8.031114340E-1
1.848749827E1,1.113727212E0,-2.345806122E0,9.946120381E-1
1.849664998E1,7.798992395E-1,-2.131856918E0,9.561286569E-1
1.850578905E1,1.627907902E-1,-1.640430331E0,8.212841153E-1
1.851495353E1,-6.035171151E-1,-9.390249252E-1,6.919372082E-1
1.852410524E1,-1.336075664E0,-3.805578351E-1,6.180247068E-1
1.853325702E1,-1.867360115E0,-1.756185852E-2,5.963396430E-1
1.854240874E1,-2.146975517E0,2.338017821E-1,5.909947157E-1
1.855156050E1,-2.216764688E0,5.189147592E-1,5.946598053E-1
1.856069952E1,-2.084821701E0,7.656970620E-1,6.612421870E-1
1.856986400E1,-1.767028451E0,8.255600929E-1,7.429429889E-1
1.857901577E1,-1.335312128E0,7.078192830E-1,7.919634581E-1
1.858815472E1,-8.964183331E-1,5.602996349E-1,7.927270532E-1
1.859731920E1,-5.502206683E-1,4.504998624E-1,7.713474035E-1
1.860647097E1,-3.912476599E-1,4.042281806E-1,7.499676943E-1
1.861560999E1,-4.301891923E-1,3.703261614E-1,7.142331600E-1
1.862477446E1,-5.940489769E-1,3.465031087E-1,7.099572420E-1
1.863392618E1,-7.710419297E-1,3.426853120E-1,7.417212725E-1
1.864307795E1,-8.742751479E-1,3.093941510E-1,7.533273697E-1
1.865222967E1,-8.950439692E-1,2.309002578E-1,7.171346545E-1
1.866138144E1,-8.651124239E-1,1.673721522E-1,6.343649030E-1
1.867053321E1,-8.290724158E-1,1.120904684E-1,5.271611810E-1
1.867968493E1,-8.211314082E-1,7.635590620E-3,4.588989913E-1
1.868883670E1,-8.444963098E-1,-6.826218218E-2,4.563029110E-1
1.869798842E1,-8.670976758E-1,-4.764608666E-2,4.989095032E-1
1.870714019E1,-8.793146014E-1,-2.748812735E-2,5.702258945E-1
1.871629191E1,-8.864920735E-1,-6.352811307E-2,6.203153729E-1
1.872544368E1,-8.896990418E-1,-7.192726433E-2,6.520794630E-1
1.873459540E1,-8.913788795E-1,-1.817270555E-2,6.661289334E-1
1.874374717E1,-9.280297160E-1,6.856760383E-2,6.902574301E-1
1.875289894E1,-9.846857786E-1,1.139230132E-1,7.281299233E-1
1.876205066E1,-9.568922520E-1,1.114796251E-1,7.223268747E-1
1.877120238E1,-9.265025854E-1,2.122694254E-1,7.511894107E-1
1.878035415E1,-1.038745761E0,3.167243004E-1,8.541171551E-1
1.878950592E1,-1.212684512E0,3.164188862E-1,1.003774762E0
1.879865764E1,-1.419914484E0,4.592044353E-1,1.065623045E0
1.880780941E1,-1.619814277E0,5.720584393E-1,1.166870952E0
1.881696113E1,-1.743816257E0,7.159129977E-1,1.345238328E0
1.882611290E1,-1.780314326E0,7.660024762E-1,1.545901656E0
1.883525186E1,-1.699224353E0,7.221741676E-1,1.707776189E0
1.884441639E1,-1.498866439E0,6.956022978E-1,1.762905240E0
1.885356811E1,-1.299272060E0,7.162184119E-1,1.729461312E0
1.886270717E1,-1.115865231E0,8.035695553E-1,1.620730519E0
1.887187160E1,-9.862129092E-1,9.219212532E-1,1.470156670E0
1.888102337E1,-9.026795626E-1,9.820896983E-1,1.263079405E0
1.889016238E1,-8.663341403E-1,9.248227477E-1,1.076618314E0
1.889932686E1,-8.754968047E-1,8.266290426E-1,9.587247968E-1
1.890847863E1,-9.144383669E-1,7.191199064E-1,9.103151560E-1
1.891761764E1,-9.347490072E-1,5.286883116E-1,9.060391784E-1
1.892678212E1,-9.512419105E-1,2.912214398E-1,9.078717232E-1
1.893593384E1,-9.610154629E-1,8.918370306E-2,8.805363178E-1
1.894507290E1,-9.593356252E-1,-7.620319724E-2,8.104416132E-1
1.895423733E1,-9.678874612E-1,-2.350234836E-1,7.120952010E-1
1.896338910E1,-9.727742672E-1,-3.994941115E-1,5.821374655E-1
1.897254082E1,-9.848384857E-1,-5.735855699E-1,4.430169761E-1
1.898169264E1,-1.007287145E0,-7.464553714E-1,2.982461751E-1
1.899084436E1,-1.026376128E0,-9.478822351E-1,1.137702987E-1
1.899998332E1,-1.027750492E0,-1.086849928E0,-1.261399537E-1
1.900914785E1,-9.533798695E-1,-1.173284888E0,-3.776563108E-1
1.901829957E1,-8.295305967E-1,-1.045617819E0,-4.715740979E-1
1.902743858E1,-8.362498879E-1,-6.788040400E-1,-3.607053161E-1
1.903660311E1,-8.470924497E-1,-3.411581814E-1,-1.198787764E-1
1.904575483E1,-6.777350307E-1,-3.542914242E-2,1.577513069E-1
1.905489384E1,-3.260397315E-1,1.572931707E-1,2.870981991E-1
1.906405832E1,1.174353883E-1,2.066190839E-1,1.050657257E-1
1.907321009E1,4.995203316E-1,2.564031482E-1,-2.776300907E-1
1.908234905E1,6.836907864E-1,4.523324072E-1,-6.678087711E-1
1.909151358E1,6.864396334E-1,7.656970620E-1,-9.561286569E-1
1.910066530E1,6.067240238E-1,1.142284393E0,-1.129303813E0
1.910980431E1,4.720322192E-1,1.502531528E0,-1.214058876E0
1.911896879E1,3.303156495E-1,1.667307615E0,-1.284917235E0
1.912812056E1,2.516690791E-1,1.484664321E0,-1.390899181E0
1.913725957E1,2.651077211E-1,1.107924223E0,-1.449693203E0
1.914642405E1,3.897205591E-1,7.130114436E-1,-1.382652760E0
1.915557582E1,6.386408210E-1,2.999260128E-1,-1.231620789E0
1.916471478E1,9.744541049E-1,-7.941014320E-2,-1.136786699E0
1.917387931E1,1.266591787E0,-3.064926267E-1,-1.081963181E0
1.918303108E1,1.499324560E0,-3.866663277E-1,-1.018129706E0
1.919218280E1,1.692352295E0,-3.732276857E-1,-9.165763259E-1
1.920133452E1,1.782452345E0,-3.252761662E-1,-8.829796910E-1
1.921048629E1,1.767333865E0,-2.736595869E-1,-9.136747718E-1
1.921962530E1,1.729766726E0,-2.648022771E-1,-9.352071285E-1
1.922878978E1,1.733431816E0,-2.451024652E-1,-9.791881442E-1
1.923794150E1,1.723352790E0,-5.971032009E-2,-1.033248186E0
1.924709327E1,1.687923670E0,2.087570578E-1,-1.079367161E0
1.925624504E1,1.625922680E0,4.588989913E-1,-1.076923728E0
1.926539676E1,1.555827975E0,6.681141853E-1,-9.958337545E-1
1.927454853E1,1.540862203E0,8.457180262E-1,-8.848122358E-1
1.928370025E1,1.564990640E0,9.915578365E-1,-7.516475320E-1
1.929285202E1,1.597518325E0,1.059209108E0,-5.677825212E-1
1.930199103E1,1.651731014E0,1.074785709E0,-4.434750974E-1
1.931115551E1,1.746412277E0,1.015991688E0,-4.182776511E-1
1.932030722E1,1.909814000E0,9.307785034E-1,-4.256078303E-1
1.932944629E1,2.118876457E0,8.283088803E-1,-4.760027230E-1
1.933861071E1,2.351150990E0,6.287145615E-1,-6.262711287E-1
1.934776248E1,2.586632729E0,4.330907166E-1,-8.313631415E-1
1.935690150E1,2.771108627E0,3.173351586E-1,-1.038898468E0
1.936606597E1,2.872203827E0,2.141019702E-1,-1.152821541E0
1.937521774E1,2.896485090E0,1.345391124E-1,-1.162442327E0
1.938435670E1,2.863193750E0,3.771981969E-2,-1.112505555E0
1.939352124E1,2.784699917E0,-9.849911928E-2,-1.056765795E0
1.940267295E1,2.694905281E0,-2.112004459E-1,-1.029888511E0
1.941181196E1,2.608470440E0,-3.329117596E-1,-1.018740535E0
1.942097644E1,2.536543131E0,-4.169032574E-1,-1.022863746E0
1.943012821E1,2.482635975E0,-4.532486796E-1,-1.058750987E0
1.943926722E1,2.407501698E0,-4.868452549E-1,-1.133579850E0
1.944843170E1,2.301367044E0,-4.909684956E-1,-1.238798261E0
1.945758347E1,2.168354988E0,-5.271611810E-1,-1.360662222E0
1.946673519E1,2.034426689E0,-6.097782850E-1,-1.447708011E0
1.947588696E1,1.908592224E0,-6.497887969E-1,-1.476570487E0
1.948503868E1,1.803831935E0,-6.697940230E-1,-1.457787037E0
1.949419045E1,1.744579792E0,-6.847597957E-1,-1.384943485E0
1.950334217E1,1.706096411E0,-6.517740488E-1,-1.282015681E0
1.951249394E1,1.650662065E0,-6.105418205E-1,-1.190235853E0
1.952164571E1,1.571557283E0,-6.152759194E-1,-1.132663488E0
1.953079743E1,1.460230350E0,-6.074876189E-1,-1.084101200E0
1.953994920E1,1.325538516E0,-5.942016840E-1,-1.014311910E0
1.954910097E1,1.212989926E0,-5.790832043E-1,-9.607100487E-1
1.955825269E1,1.129303813E0,-6.091674566E-1,-9.239065051E-1
1.956740441E1,1.062721491E0,-6.386408210E-1,-8.878664970E-1
1.957655618E1,9.982771277E-1,-6.271874309E-1,-8.278507590E-1
1.958570790E1,9.329164624E-1,-5.984776020E-1,-7.311841846E-1
1.959485967E1,8.536590338E-1,-6.030589342E-1,-6.261184216E-1
1.960401139E1,7.351546884E-1,-6.155813336E-1,-5.396835804E-1
1.961316321E1,5.877877474E-1,-5.795413256E-1,-4.967715442E-1
1.962231493E1,4.393518865E-1,-5.916055441E-1,-4.679090083E-1
1.963146665E1,3.121429384E-1,-5.760289431E-1,-4.321744442E-1
1.964061842E1,2.031067163E-1,-5.441122055E-1,-3.779617548E-1
1.964977014E1,1.143811494E-1,-5.179984570E-1,-2.954973578E-1
1.965892191E1,4.871506989E-2,-4.585935771E-1,-1.873773932E-1
1.966807363E1,-1.496575773E-2,-3.684936166E-1,-6.077930331E-2
1.967722540E1,-6.169557199E-2,-2.939702570E-1,7.421794534E-2
1.968636441E1,-5.100574717E-2,-2.990097404E-1,1.678302884E-1
1.969552894E1,-2.031067200E-2,-3.471139669E-1,1.699682474E-1
1.970468066E1,-4.443913698E-2,-4.437805414E-1,9.407047927E-2
1.971381962E1,-1.046075895E-1,-5.606050491E-1,-1.618745178E-2
1.972298415E1,-2.275405973E-1,-6.400152445E-1,-9.025268257E-2
1.973213587E1,-3.735330999E-1,-6.403206587E-1,-8.826743066E-2
1.974127488E1,-4.320217371E-1,-6.447492838E-1,4.993676394E-2
1.975043936E1,-3.258870244E-1,-6.433748603E-1,3.206948042E-1
1.975959113E1,-1.285833418E-1,-5.937435627E-1,6.131379604E-1
1.976873014E1,-1.879882365E-1,-6.276455522E-1,7.740961909E-1
1.977789462E1,-7.091936469E-1,-6.366555691E-1,8.553388715E-1
1.978704639E1,-1.417776465E0,-5.251759291E-1,9.875873327E-1
1.979618535E1,-1.888586998E0,-1.753131598E-1,1.100135922E0
1.980534988E1,-1.902178407E0,2.064663768E-1,1.070967913E0
1.981450160E1,-1.501615286E0,2.179197669E-1,9.016105533E-1
1.982364061E1,-9.976662993E-1,-2.153236568E-1,6.936170459E-1
1.983280514E1,-8.000571728E-1,-2.994678617E-1,6.503996253E-1
1.984195686E1,-8.550334573E-1,1.162136942E-1,7.988355160E-1
1.985109587E1,-1.010035992E0,3.521534503E-1,9.801044464E-1
1.986026035E1,-1.151752472E0,9.208522737E-2,1.090515018E0
1.986941212E1,-1.187028885E0,-2.628170252E-1,1.116781473E0
1.987855113E1,-1.169772506E0,-3.081724346E-1,1.068066478E0
1.988771561E1,-1.099525094E0,-3.782671690E-1,9.544488192E-1
1.989686733E1,-9.542961121E-1,-5.822901726E-1,8.206732869E-1
1.990600634E1,-7.466080785E-1,-7.185090780E-1,7.175928354E-1
1.991517087E1,-5.150969625E-1,-6.821636558E-1,6.759024858E-1
1.992432259E1,-3.300102353E-1,-5.745018721E-1,6.936170459E-1
1.993346160E1,-2.394521236E-1,-5.103628635E-1,7.302678823E-1
1.994262608E1,-2.675510943E-1,-4.001049399E-1,7.482879162E-1
1.995177785E1,-3.997995257E-1,-2.202104330E-1,7.362236381E-1
1.996091686E1,-6.059604883E-1,-4.169032723E-2,7.053758502E-1
1.997008134E1,-8.145648241E-1,7.360709459E-2,6.824691296E-1
1.997923311E1,-9.669712186E-1,1.493521482E-1,6.897992492E-1
1.998838483E1,-1.009425044E0,2.011214644E-1,7.065975666E-1
1.999753660E1,-9.330691695E-1,2.067717910E-1,7.125533223E-1
2.000668832E1,-7.849387527E-1,1.870719790E-1,6.985038519E-1
2.001584009E1,-6.397097707E-1,1.708845198E-1,6.749862432E-1
2.002499186E1,-5.454866290E-1,1.154501289E-1,6.519267559E-1
2.003414358E1,-5.082249045E-1,3.771981969E-2,6.277982593E-1
2.004329535E1,-5.083776116E-1,-5.650337320E-3,6.010736823E-1
2.005244707E1,-5.309789777E-1,-2.886253223E-2,5.708367825E-1
2.006159884E1,-5.584670901E-1,-4.398100078E-2,5.431959033E-1
2.007075056E1,-5.792359114E-1,-5.008947477E-2,5.308262706E-1
2.007990233E1,-6.062659025E-1,-6.459710002E-2,5.447230339E-1
2.008905410E1,-6.215370893E-1,-8.735115826E-2,5.801522136E-1
2.009820582E1,-6.019899845E-1,-1.560714692E-1,5.937435627E-1
2.010735759E1,-5.822901726E-1,-2.211267054E-1,5.798467398E-1
2.011650931E1,-6.103891134E-1,-1.921114624E-1,6.009209752E-1
2.012566108E1,-6.293253899E-1,-1.569877416E-1,6.508577466E-1
2.013481280E1,-6.024481058E-1,-1.417165697E-1,6.839962006E-1
2.014396457E1,-5.812211633E-1,-5.543438718E-2,7.299624681E-1
2.015311629E1,-5.738909841E-1,-2.137965523E-3,7.806627750E-1
2.016226806E1,-5.593833923E-1,-4.657710344E-2,8.131904006E-1
2.017141983E1,-5.318952799E-1,-3.497100621E-2,8.347227573E-1
2.018055884E1,-4.886777997E-1,-1.049130186E-1,8.180772066E-1
2.018972332E1,-4.402681589E-1,-2.492256761E-1,7.261446714E-1
2.019887504E1,-4.158342779E-1,-3.732276857E-1,5.896202922E-1
2.020802681E1,-4.500417113E-1,-4.792096615E-1,4.752391577E-1
2.021717858E1,-5.248705149E-1,-5.740436912E-1,4.248442650E-1
2.022633030E1,-5.896202922E-1,-6.296308041E-1,4.207210541E-1
2.023546931E1,-6.423059106E-1,-5.439594984E-1,4.605788291E-1
2.024463379E1,-6.526902914E-1,-4.324798584E-1,4.915793240E-1
2.025378556E1,-6.290199757E-1,-2.635805905E-1,5.166240931E-1
2.026293728E1,-5.942016840E-1,-2.657185495E-2,5.351021886E-1
2.027208905E1,-5.543438792E-1,1.939440072E-1,5.442649126E-1
2.028124082E1,-5.271611810E-1,3.266505599E-1,5.407525301E-1
2.029039254E1,-5.349494815E-1,3.235963285E-1,5.157077909E-1
2.029954431E1,-5.714476109E-1,2.756448388E-1,4.891359508E-1
2.030869603E1,-6.239804626E-1,2.936648130E-1,4.656183124E-1
2.031784780E1,-6.623111367E-1,2.483094037E-1,4.482091665E-1
2.032699952E1,-6.814001203E-1,1.270562261E-1,4.249969721E-1
2.033615129E1,-6.615476012E-1,-1.695101149E-2,4.094203711E-1
2.034530306E1,-6.119162440E-1,-1.067455560E-1,3.726168275E-1
2.035445478E1,-5.485408306E-1,-1.461452097E-1,3.211529553E-1
2.036360655E1,-5.065450668E-1,-1.513374150E-1,3.348970115E-1
2.037275827E1,-4.761554301E-1,-1.963873953E-1,3.894151151E-1
2.038191004E1,-4.381301999E-1,-1.417165697E-1,4.524851143E-1
2.039106181E1,-3.765873313E-1,-8.307522535E-2,4.749337435E-1
2.040021353E1,-3.145863414E-1,-3.313846514E-2,4.466820657E-1
2.040936530E1,-2.269297540E-1,-1.328592747E-2,3.849864900E-1
2.041851702E1,-1.183516532E-1,9.315420873E-3,3.026748300E-1
2.042766879E1,-2.061609551E-2,1.160609815E-2,2.087570578E-1
2.043682050E1,-4.428642616E-2,-1.695101149E-2,1.780619770E-1
2.044597228E1,-1.713426560E-1,2.137965523E-3,1.618745178E-1
2.045512405E1,-3.210002482E-1,7.528692484E-2,1.412584335E-1
2.046427577E1,-4.288147688E-1,2.101314515E-1,1.293469071E-1
2.047342754E1,-4.824166298E-1,3.521534503E-1,1.081199646E-1
2.048257926E1,-5.346440673E-1,4.827220440E-1,8.689302206E-2
2.049173103E1,-5.845808387E-1,5.639647245E-1,7.727217674E-2
2.050088275E1,-5.883986354E-1,5.635066032E-1,7.727217674E-2
2.051002176E1,-5.372401476E-1,4.949389994E-1,9.910997003E-2
2.051918629E1,-4.657710493E-1,4.030064642E-1,1.589729935E-1
2.052833801E1,-4.078932703E-1,2.895416021E-1,2.350234836E-1
2.053747702E1,-3.831539452E-1,1.264453828E-1,2.964136302E-1
2.054664155E1,-3.692571819E-1,-5.726693198E-2,3.211529553E-1
2.055579327E1,-3.587200642E-1,-2.031067163E-1,2.980934680E-1
2.056494504E1,-3.324536085E-1,-3.509317636E-1,2.208212912E-1
2.057409676E1,-3.005368412E-1,-4.453076422E-1,1.496575773E-1
2.058324853E1,-2.680092454E-1,-4.886777997E-1,1.316375881E-1
2.059238754E1,-2.466295809E-1,-4.746283293E-1,1.580567211E-1
2.060155202E1,-2.374668717E-1,-4.190412164E-1,2.075353563E-1
2.061070379E1,-2.379250079E-1,-3.373403847E-1,2.837385535E-1
2.061985550E1,-2.101314515E-1,-2.942756712E-1,3.339807391E-1
2.062900728E1,-1.656923145E-1,-2.309002578E-1,3.422271907E-1
2.063815905E1,-1.157555580E-1,-1.447708011E-1,3.211529553E-1
2.064731077E1,-8.139539510E-2,-5.375456065E-2,3.005368412E-1
2.065646249E1,-8.444963396E-2,7.024743594E-3,2.974826097E-1
2.066561426E1,-1.185043678E-1,2.687728032E-2,3.100049794E-1
2.067476603E1,-1.548497826E-1,2.015795931E-2,3.206948042E-1
2.068391775E1,-1.882936656E-1,2.565558441E-2,3.295520842E-1
2.069306952E1,-2.160872221E-1,1.969982497E-2,3.477247953E-1
2.070222124E1,-2.350234836E-1,5.192201585E-3,3.555130959E-1
2.071137301E1,-2.591519356E-1,1.908897609E-2,3.571929336E-1
2.072052472E1,-2.858765125E-1,4.611896724E-2,3.503209054E-1
2.072967650E1,-3.132119179E-1,7.437065244E-2,3.469612300E-1
2.073882827E1,-3.387148082E-1,9.849911928E-2,3.449759781E-1
2.074797998E1,-3.634541333E-1,1.097997949E-1,3.442124426E-1
2.075713176E1,-3.721587062E-1,1.145338640E-1,3.319954872E-1
2.076628347E1,-3.516952991E-1,1.204896197E-1,3.107685447E-1
2.077543524E1,-3.141281903E-1,1.362189353E-1,2.816005945E-1
2.078458702E1,-2.709107697E-1,1.427855492E-1,2.507528067E-1
2.079373879E1,-2.345653474E-1,1.481304616E-1,2.223484069E-1
2.080289050E1,-2.029540092E-1,1.408002973E-1,1.919587553E-1
2.081204222E1,-1.618745178E-1,1.183516532E-1,1.466033459E-1
2.082119400E1,-1.119377613E-1,8.460234851E-2,8.887827396E-2
2.083034577E1,-6.215370819E-2,5.176930502E-2,2.641914412E-2
2.083949749E1,-2.596100792E-2,3.298575059E-2,-3.497100621E-2
2.084864926E1,-1.969982497E-2,4.245388508E-2,-7.834116369E-2
2.085780103E1,-3.680354729E-2,9.956810623E-2,-8.643488586E-2
2.086695275E1,-5.283828825E-2,1.754658818E-1,-9.208522737E-2
2.087610452E1,-6.520794332E-2,2.483094037E-1,-1.178935245E-1
2.088525624E1,-7.773031294E-2,2.904578745E-1,-1.178935245E-1
2.089440801E1,-9.345962852E-2,3.127537966E-1,-1.033858955E-1
2.090355972E1,-1.128540337E-1,3.356605768E-1,-8.536590636E-2
2.091271150E1,-1.476723254E-1,3.574983478E-1,-6.597150117E-2
2.092186327E1,-1.960819662E-1,3.814741075E-1,-4.260659590E-2
2.093101498E1,-2.396048307E-1,3.532224298E-1,-2.336490713E-2
2.094016676E1,-2.651077211E-1,3.055763543E-1,-1.359135192E-2
2.094931847E1,-2.626643181E-1,2.345653474E-1,-1.664558798E-2
2.095847024E1,-2.237228155E-1,1.621799469E-1,-2.550287358E-2
2.096762202E1,-1.513374150E-1,1.244601309E-1,-2.244863659E-2
2.097677374E1,-8.292251825E-2,1.269035190E-1,-7.941014133E-3
2.098592550E1,-3.863608837E-2,1.294996142E-1,1.374406368E-2
2.099507728E1,-2.275406010E-2,1.151447073E-1,3.344388679E-2
2.100422900E1,-3.619270027E-2,1.032331884E-1,4.856235534E-2
2.101338071E1,-6.688777357E-2,7.605048269E-2,6.001574174E-2
2.102253254E1,-9.483403713E-2,4.413371533E-2,5.864133686E-2
2.103168426E1,-1.064401343E-1,3.069507517E-2,4.749337584E-2
2.104083597E1,-1.021642014E-1,3.848337755E-2,2.916795574E-2
2.104998775E1,-9.055810422E-2,6.139015034E-2,1.832541823E-2
2.105913946E1,-8.383878320E-2,6.795676053E-2,2.321219631E-2
2.106829124E1,-8.429691941E-2,5.482354015E-2,2.993151546E-2
2.107744301E1,-8.276980370E-2,2.412846684E-2,2.932066843E-2
2.108659472E1,-6.474980712E-2,-4.886778072E-3,2.092151903E-2
2.109574650E1,-3.481829539E-2,-3.313846514E-2,1.084253844E-2
2.110489821E1,1.221694518E-3,-5.131116882E-2,6.108472589E-4
2.111404998E1,1.588202827E-2,-4.886778072E-2,-4.734066315E-3
2.112320176E1,1.588202827E-2,-4.459185153E-2,1.374406274E-3
2.113235353E1,1.282779220E-2,-5.650337040E-2,1.481304597E-2
2.114150524E1,2.794626169E-2,-9.147437662E-2,2.473931387E-2
2.115065696E1,6.642963737E-2,-1.256818175E-1,2.687728032E-2
2.115980879E1,1.128540337E-1,-1.432436854E-1,1.557660475E-2
2.116896050E1,1.556133330E-1,-1.612636745E-1,-4.275931045E-3
2.117811228E1,2.052446753E-1,-1.853921413E-1,-2.779355086E-2
2.118726400E1,2.596100867E-1,-1.927223057E-1,-5.971032009E-2
2.119641571E1,3.092414141E-1,-1.982199401E-1,-1.009425074E-1
2.120556748E1,3.348970115E-1,-2.163926363E-1,-1.525591016E-1
2.121471926E1,3.407000601E-1,-2.255553454E-1,-2.043284029E-1
2.122387097E1,3.439069986E-1,-2.144073844E-1,-2.611372173E-1
2.123302275E1,3.571929336E-1,-2.254026383E-1,-3.161134422E-1
2.124217446E1,4.010212123E-1,-2.863346636E-1,-3.608580232E-1
2.125132624E1,4.938700199E-1,-3.738385141E-1,-4.010212123E-1
2.126047801E1,6.410841942E-1,-4.828747511E-1,-4.439332485E-1
2.126962972E1,8.452599049E-1,-6.261184216E-1,-4.972296655E-1
2.127876874E1,1.062568784E0,-6.904101372E-1,-5.635066032E-1
2.128793327E1,1.179545999E0,-6.482616663E-1,-6.268820167E-1
2.129708504E1,1.148851037E0,-6.502469182E-1,-6.490252018E-1
2.130622400E1,9.501729012E-1,-3.051182032E-1,-6.048914790E-1
2.131538847E1,7.029324770E-1,9.895725548E-2,-5.567872524E-1
2.132454024E1,5.132644176E-1,2.896943092E-1,-5.491516590E-1
2.133369202E1,3.958290219E-1,4.202629030E-1,-5.842754245E-1
2.134284374E1,3.611634374E-1,6.639909744E-1,-6.519267559E-1
2.135199550E1,4.188885093E-1,1.002553105E0,-7.024743557E-1
2.136113446E1,4.636330605E-1,1.301562786E0,-6.827745438E-1