"Time (s)","Gyroscope x (rad/s)","Gyroscope y (rad/s)","Gyroscope z (rad/s)"
1.012577601E1,-3.771981969E-2,3.283303976E-2,-9.926267900E-3
1.013492731E1,-4.275930673E-2,4.550812021E-2,-1.298050396E-2
1.014407866E1,-4.840964451E-2,4.963133857E-2,-1.252236869E-2
1.015322996E1,-4.642439261E-2,4.245388508E-2,-1.007897966E-2
1.016238132E1,-4.260659590E-2,2.504473738E-2,-2.596100792E-3
1.017153262E1,-3.695625812E-2,8.857285604E-3,4.581354442E-4
1.018068398E1,-3.390202299E-2,8.246437646E-3,2.901524538E-3
1.018983528E1,-3.466558084E-2,1.359135192E-2,5.955760833E-3
1.019898658E1,-3.649812192E-2,1.359135192E-2,2.290677279E-3
1.020813793E1,-3.833066672E-2,1.481304597E-2,-6.261184346E-3
1.021728924E1,-3.894151375E-2,2.504473738E-2,-1.236965694E-2
1.022644059E1,-3.970507160E-2,3.405473381E-2,-1.175880991E-2
1.023559189E1,-3.649812192E-2,3.054236248E-2,-7.482878864E-3
1.024474319E1,-3.512371704E-2,1.175880991E-2,-3.206948051E-3
1.025389455E1,-3.069507517E-2,-8.704573847E-3,-1.374406274E-3
1.026304585E1,-3.008422814E-2,-1.282779220E-2,4.581354442E-4
1.027219720E1,-3.130592033E-2,-6.872031838E-3,2.290677279E-3
1.028134851E1,-3.008422814E-2,-1.985253533E-3,3.512371797E-3
1.029049981E1,-2.962609194E-2,2.137965523E-3,1.068982761E-3
1.029965116E1,-3.268032894E-2,1.114796288E-2,-1.374406274E-3
1.030880246E1,-2.901524492E-2,1.236965694E-2,-2.596100792E-3
1.031795382E1,-2.153236605E-2,8.704573847E-3,-3.054236295E-3
1.032710512E1,-1.725643501E-2,9.926267900E-3,-6.719320081E-3
1.033625648E1,-1.725643501E-2,1.542389300E-2,-8.551862091E-3
1.034540778E1,-1.863084175E-2,1.786728203E-2,-6.108472589E-3
1.035455908E1,-1.847812906E-2,5.803049076E-3,-3.054236295E-3
1.036371043E1,-1.725643501E-2,3.054236295E-4,-1.832541777E-3
1.037286174E1,-1.908897609E-2,3.970507067E-3,6.108472589E-4
1.038201309E1,-2.275406010E-2,7.024743594E-3,1.221694518E-3
1.039116439E1,-2.657185495E-2,7.635590620E-3,-7.635590737E-4
1.040031569E1,-3.344388679E-2,2.275406010E-2,-3.817795310E-3
1.040946705E1,-3.726168349E-2,3.649812192E-2,-6.261184346E-3
1.041861835E1,-3.848337755E-2,4.306473210E-2,-7.482878864E-3
1.042776970E1,-3.909422457E-2,3.939964995E-2,-8.093725890E-3
1.043692101E1,-3.787253052E-2,3.405473381E-2,-9.315420873E-3
1.044607231E1,-3.527642787E-2,2.748812735E-2,-1.053711493E-2
1.045522366E1,-3.344388679E-2,2.321219631E-2,-8.704573847E-3
1.046437496E1,-3.038965166E-2,2.199050039E-2,-5.039489828E-3
1.047352632E1,-2.596100792E-2,1.725643501E-2,-1.374406274E-3
1.048267762E1,-2.351761982E-2,1.114796288E-2,1.832541777E-3
1.049182892E1,-2.153236605E-2,5.192201585E-3,-1.221694518E-3
1.050098028E1,-1.771457121E-2,-1.527118147E-3,-4.275931045E-3
1.051013158E1,-1.282779220E-2,-2.748812549E-3,-6.719320081E-3
1.051928293E1,-1.099525020E-2,4.581354558E-3,-7.330167107E-3
1.052843424E1,-1.053711493E-2,1.664558798E-2,-4.886778072E-3
1.053758559E1,-3.206948051E-3,1.969982497E-2,-2.290677279E-3
1.054673689E1,5.039489828E-3,6.413896102E-3,-1.679830020E-3
1.055588819E1,4.428642802E-3,-9.162709117E-3,-1.068982761E-3
1.056503955E1,5.803049076E-3,-2.305948362E-2,-2.290677279E-3
1.057419085E1,4.581354558E-3,-2.672456764E-2,-7.788302377E-3
1.058334220E1,2.748812549E-3,-1.282779220E-2,-1.084253844E-2
1.059249351E1,-1.679830020E-3,3.359660041E-3,-9.620844387E-3
1.060164481E1,-8.093725890E-3,1.481304597E-2,-9.773556143E-3
1.061079616E1,-9.926267900E-3,1.847812906E-2,-8.551862091E-3
1.061994746E1,-1.175880991E-2,1.420219894E-2,-4.275931045E-3
1.062909877E1,-1.527118124E-2,-6.872031838E-3,-3.054236295E-3
1.063825012E1,-1.740914769E-2,-3.512371704E-2,-6.108472589E-3
1.064740142E1,-2.107422985E-2,-4.611896724E-2,-1.160609815E-2
1.065655278E1,-2.473931387E-2,-3.695625812E-2,-1.343864016E-2
1.066570408E1,-3.054236248E-2,-1.527118124E-2,-1.114796288E-2
1.067485543E1,-3.268032894E-2,6.413896102E-3,-8.704573847E-3
1.068400674E1,-3.084778599E-2,1.786728203E-2,-7.482878864E-3
1.069315804E1,-2.718270384E-2,1.786728203E-2,-6.261184346E-3
1.070230939E1,-2.015795931E-2,2.137965523E-3,-4.886778072E-3
1.071146069E1,-1.649287529E-2,-1.282779220E-2,-4.886778072E-3
1.072061205E1,-1.695101149E-2,-1.893626526E-2,-6.108472589E-3
1.072976335E1,-1.328592747E-2,-1.832541823E-2,-6.108472589E-3
1.073891465E1,-1.282779220E-2,-3.817795310E-3,-6.719320081E-3
1.074806601E1,-1.236965694E-2,1.481304597E-2,-5.497625098E-3
1.075721731E1,-1.252236869E-2,2.748812735E-2,-4.275931045E-3
1.076636866E1,-1.068982668E-2,3.222219273E-2,-4.886778072E-3
1.077551996E1,-8.246437646E-3,3.100049868E-2,-6.108472589E-3
1.078467127E1,-1.527118147E-3,3.176405653E-2,-3.512371797E-3
1.079382262E1,2.290677279E-3,2.993151546E-2,-1.679830020E-3
1.080297392E1,6.719320081E-3,1.664558798E-2,7.635590737E-4
1.081212528E1,6.719320081E-3,5.803049076E-3,1.527118147E-4
1.082127658E1,5.497625098E-3,4.581354558E-3,-3.512371797E-3
1.083042793E1,3.665083554E-3,1.603474095E-2,-7.177455351E-3
1.083957924E1,-1.985253533E-3,2.748812735E-2,-5.955760833E-3
1.084873054E1,-5.192201585E-3,3.115320951E-2,-3.665083554E-3
1.085788189E1,-8.857285604E-3,3.405473381E-2,-2.443389036E-3
1.086703319E1,-1.252236869E-2,3.054236248E-2,-1.221694518E-3
1.087618450E1,-1.801999472E-2,2.809897438E-2,6.108472589E-4
1.088533585E1,-1.924168877E-2,2.687728032E-2,1.221694518E-3
1.089448715E1,-1.053711493E-2,2.336490713E-2,0.000000000E0
1.090363851E1,-7.482878864E-3,1.313321572E-2,1.832541777E-3
1.091278981E1,-6.566607859E-3,-6.719320081E-3,4.428642802E-3
1.092194111E1,-3.970507067E-3,-3.329117596E-2,1.985253533E-3
1.093109246E1,-6.872031838E-3,-4.657710344E-2,-2.901524538E-3
1.094024377E1,-1.007897966E-2,-4.001049697E-2,-4.886778072E-3
1.094939512E1,-1.267508045E-2,-2.305948362E-2,-2.443389036E-3
1.095854642E1,-9.773556143E-3,1.068982761E-3,1.221694518E-3
1.096769772E1,-7.482878864E-3,1.786728203E-2,6.719320081E-3
1.097684908E1,-5.803049076E-3,2.214321308E-2,9.773556143E-3
1.098600038E1,-2.596100792E-3,1.313321572E-2,1.175880991E-2
1.099515174E1,5.650337320E-3,-6.108472589E-3,1.114796288E-2
1.100430304E1,8.857285604E-3,-2.122694254E-2,8.093725890E-3
1.101345434E1,9.009997360E-3,-3.038965166E-2,1.374406274E-3
1.102260569E1,7.024743594E-3,-2.733541466E-2,-4.123218823E-3
1.103175700E1,4.581354558E-3,-1.527118124E-2,-7.788302377E-3
1.104090835E1,-4.581354442E-4,3.970507067E-3,-6.566607859E-3
1.105005965E1,-5.650337320E-3,1.420219894E-2,-4.123218823E-3
1.105921095E1,-1.420219894E-2,1.298050396E-2,6.108472589E-4
1.106836231E1,-2.641914412E-2,-7.635590737E-4,1.221694518E-3
1.107751361E1,-3.054236248E-2,-1.954711229E-2,1.068982761E-3
1.108666496E1,-3.481829539E-2,-3.222219273E-2,4.581354442E-4
1.109581627E1,-3.359659761E-2,-3.649812192E-2,-1.527118147E-4
1.110496762E1,-3.298575059E-2,-3.038965166E-2,-7.635590737E-4
1.111411892E1,-3.603998944E-2,-2.015795931E-2,-1.985253533E-3
1.112327022E1,-3.741439432E-2,-8.093725890E-3,-2.596100792E-3
1.113242158E1,-3.756710514E-2,2.137965523E-3,-7.635590737E-4
1.114157288E1,-3.573456407E-2,5.803049076E-3,-1.527118147E-4
1.115072424E1,-3.130592033E-2,-3.054236295E-4,-1.985253533E-3
1.115987554E1,-2.886253223E-2,-6.261184346E-3,-1.374406274E-3
1.116902684E1,-2.947338112E-2,-6.261184346E-3,-7.635590737E-4
1.117817819E1,-3.206948191E-2,7.024743594E-3,1.068982761E-3
1.118732950E1,-3.038965166E-2,2.565558441E-2,1.068982761E-3
1.119648080E1,-2.611372061E-2,3.833066672E-2,-7.635590737E-4
1.120563215E1,-2.626643144E-2,4.138490185E-2,-1.374406274E-3
1.121478345E1,-2.993151546E-2,3.955236077E-2,-2.596100792E-3
1.122393481E1,-2.794626169E-2,2.932066843E-2,-1.985253533E-3
1.123308611E1,-2.473931387E-2,1.542389300E-2,-0.000000000E0
1.124223741E1,-1.908897609E-2,4.581354558E-3,3.665083554E-3
1.125138877E1,-1.664558798E-2,-7.635590737E-4,4.886778072E-3
1.126054007E1,-1.603474095E-2,5.803049076E-3,4.275931045E-3
1.126969142E1,-1.374406368E-2,1.847812906E-2,4.275931045E-3
1.127884272E1,-1.252236869E-2,2.336490713E-2,4.275931045E-3
1.128799403E1,-1.068982668E-2,2.809897438E-2,6.719320081E-3
1.129714538E1,-8.246437646E-3,2.336490713E-2,6.108472589E-3
1.130629668E1,-6.872031838E-3,1.603474095E-2,6.108472589E-3
1.131544804E1,-6.261184346E-3,6.413896102E-3,4.275931045E-3
1.132459934E1,-1.298050396E-2,9.162708884E-4,1.221694518E-3
1.133375064E1,-2.153236605E-2,-5.039489828E-3,-1.221694518E-3
1.134290200E1,-3.130592033E-2,3.054236295E-4,-1.985253533E-3
1.135205330E1,-3.634541109E-2,6.413896102E-3,-1.985253533E-3
1.136120465E1,-3.695625812E-2,6.413896102E-3,-3.206948051E-3
1.137035595E1,-3.512371704E-2,5.803049076E-3,-3.817795310E-3
1.137950726E1,-3.023693897E-2,5.192201585E-3,-5.039489828E-3
1.138865861E1,-2.641914412E-2,5.803049076E-3,-3.817795310E-3
1.139780991E1,-2.336490713E-2,5.803049076E-3,-3.665083554E-3
1.140696127E1,-1.847812906E-2,7.024743594E-3,-3.665083554E-3
1.141611257E1,-1.420219894E-2,7.024743594E-3,-2.443389036E-3
1.142526387E1,-1.175880991E-2,7.635590620E-3,-1.832541777E-3
1.143441522E1,-1.114796288E-2,3.359660041E-3,0.000000000E0
1.144356653E1,-1.282779220E-2,-3.054236295E-4,6.108472589E-4
1.145271783E1,-1.481304597E-2,2.748812549E-3,1.832541777E-3
1.146186918E1,-1.603474095E-2,1.313321572E-2,1.832541777E-3
1.147102048E1,-1.924168877E-2,2.443389036E-2,3.054236295E-3
1.148017184E1,-1.435491070E-2,3.237490356E-2,0.000000000E0
1.148932314E1,-1.313321572E-2,3.649812192E-2,-3.054236295E-3
1.149847444E1,-1.572931744E-2,4.016320780E-2,-4.275931045E-3
1.150762580E1,-2.122694254E-2,3.894151375E-2,-4.275931045E-3
1.151677710E1,-2.046338283E-2,2.932066843E-2,-1.832541777E-3
1.152592845E1,-1.542389300E-2,1.359135192E-2,0.000000000E0
1.153507976E1,-1.298050396E-2,6.413896102E-3,4.886778072E-3
1.154423106E1,-1.908897609E-2,1.527118147E-3,6.108472589E-3
1.155338241E1,-2.825168520E-2,-2.596100792E-3,4.123218823E-3
1.156253371E1,-3.451287001E-2,-3.206948051E-3,2.290677279E-3
1.157168507E1,-3.573456407E-2,9.162708884E-4,4.581354442E-4
1.158083637E1,-3.084778599E-2,7.635590620E-3,-1.527118147E-4
1.158998772E1,-2.718270384E-2,9.926267900E-3,-2.596100792E-3
1.159913903E1,-2.397575416E-2,8.857285604E-3,-1.832541777E-3
1.160829033E1,-1.969982497E-2,3.970507067E-3,-6.108472589E-4
1.161744168E1,-1.603474095E-2,-2.596100792E-3,4.275931045E-3
1.162659298E1,-1.908897609E-2,-7.482878864E-3,7.330167107E-3
1.163574429E1,-2.137965336E-2,-1.343864016E-2,9.773556143E-3
1.164489564E1,-2.137965336E-2,-1.527118124E-2,1.038440317E-2
1.165404694E1,-2.580829710E-2,-9.773556143E-3,8.551862091E-3
1.166319830E1,-3.145863488E-2,2.748812549E-3,5.344913341E-3
1.167234960E1,-3.329117596E-2,1.175880991E-2,1.679830020E-3
1.168150090E1,-3.588727489E-2,1.542389300E-2,-5.650337320E-3
1.169065226E1,-3.634541109E-2,1.236965694E-2,-8.704573847E-3
1.169980356E1,-3.023693897E-2,9.926267900E-3,-6.872031838E-3
1.170895491E1,-2.718270384E-2,7.635590620E-3,-2.596100792E-3
1.171810621E1,-2.641914412E-2,-3.054236295E-4,2.290677279E-3
1.172725752E1,-2.397575416E-2,-3.817795310E-3,6.719320081E-3
1.173640887E1,-2.580829710E-2,-2.596100792E-3,7.941014133E-3
1.174556017E1,-2.779355086E-2,4.581354558E-3,5.344913341E-3
1.175471153E1,-2.779355086E-2,1.007897966E-2,2.290677279E-3
1.176386283E1,-2.290677279E-2,1.359135192E-2,-6.108472589E-4
1.177301413E1,-2.351761982E-2,1.359135192E-2,-2.443389036E-3
1.178216548E1,-2.779355086E-2,1.236965694E-2,-5.650337320E-3
1.179131679E1,-3.451287001E-2,1.527118147E-3,-6.261184346E-3
1.180046809E1,-3.924693540E-2,-8.093725890E-3,-1.985253533E-3
1.180961944E1,-3.863608837E-2,-1.114796288E-2,-7.635590737E-4
1.181877075E1,-4.306473210E-2,-9.315420873E-3,4.581354442E-4
1.182792210E1,-4.978405312E-2,2.137965523E-3,1.679830020E-3
1.183707340E1,-5.741964281E-2,1.908897609E-2,9.162708884E-4
1.184622470E1,-5.940489471E-2,2.748812735E-2,3.054236295E-4
1.185537606E1,-5.879404768E-2,3.283303976E-2,-5.192201585E-3
1.186452736E1,-6.169557199E-2,2.489202656E-2,-1.252236869E-2
1.187367871E1,-5.909947306E-2,9.315420873E-3,-1.985253580E-2
1.188283002E1,-5.268557742E-2,-8.246437646E-3,-2.718270384E-2
1.189198137E1,-5.589252338E-2,-9.162708884E-4,-3.268032894E-2
1.190113267E1,-7.101099193E-2,3.573456407E-2,-3.084778599E-2
1.191028398E1,-8.551861346E-2,7.482878864E-2,-3.283303976E-2
1.191943533E1,-8.368607610E-2,8.628217876E-2,-4.138490185E-2
1.192858663E1,-7.727217674E-2,6.765133142E-2,-5.604523420E-2
1.193773793E1,-7.834116369E-2,5.115845799E-2,-7.009471953E-2
1.194688929E1,-7.589777559E-2,4.749337584E-2,-8.536590636E-2
1.195604059E1,-6.902574003E-2,4.993676394E-2,-9.987352788E-2
1.196519194E1,-6.520794332E-2,5.100574717E-2,-1.145338640E-1
1.197434325E1,-5.711421743E-2,4.856235534E-2,-1.285833418E-1
1.198349455E1,-4.153761268E-2,3.665083647E-2,-1.388150454E-1
1.199264590E1,-6.261184346E-3,2.397575416E-2,-1.385096163E-1
1.200179720E1,2.825168520E-2,1.557660475E-2,-1.278197914E-1
1.201094856E1,6.139015034E-2,1.695101149E-2,-1.068982705E-1
1.202009986E1,8.719844371E-2,7.482878864E-3,-7.742489129E-2
1.202925116E1,1.047603041E-1,-2.382304333E-2,-5.222744122E-2
1.203840252E1,1.165191159E-1,-4.840964451E-2,-3.619270027E-2
1.204755382E1,1.256818175E-1,-3.436015919E-2,-2.947338112E-2
1.205670517E1,1.282779276E-1,1.679829881E-2,-2.702999115E-2
1.206585648E1,1.301104724E-1,8.918370306E-2,-3.023693897E-2
1.207500778E1,1.308740228E-1,1.456870735E-1,-3.573456407E-2
1.208415913E1,1.269035190E-1,1.757712960E-1,-4.795150831E-2
1.209331043E1,1.220167428E-1,1.769929975E-1,-6.261184067E-2
1.210246179E1,1.223221645E-1,1.516428292E-1,-7.605048269E-2
1.211161309E1,1.120904684E-1,1.275143623E-1,-7.971556485E-2
1.212076439E1,9.361234307E-2,1.136175916E-1,-7.559234649E-2
1.212991575E1,7.605048269E-2,8.704573661E-2,-6.230641901E-2
1.213906705E1,5.955760926E-2,5.329642445E-2,-5.207473040E-2
1.214821840E1,3.206948191E-2,2.443389036E-2,-4.169032723E-2
1.215736970E1,-5.344913341E-3,-6.872031838E-3,-3.527642787E-2
1.216652101E1,-3.894151375E-2,-4.138490185E-2,-3.497100621E-2
1.217567236E1,-6.566607952E-2,-7.024743408E-2,-4.001049697E-2
1.218482366E1,-8.658760041E-2,-8.780929446E-2,-4.199574888E-2
1.219397496E1,-1.000262350E-1,-8.780929446E-2,-4.382828996E-2
1.220312632E1,-1.081199646E-1,-7.467607409E-2,-5.375456065E-2
1.221227762E1,-1.101052165E-1,-6.505523622E-2,-6.108472496E-2
1.222142898E1,-1.033858955E-1,-5.787777901E-2,-6.719319522E-2
1.223058028E1,-9.345962852E-2,-5.787777901E-2,-7.253811508E-2
1.223973158E1,-7.971556485E-2,-7.467607409E-2,-7.910472155E-2
1.224888293E1,-6.047387794E-2,-8.506047726E-2,-8.444963396E-2
1.225803424E1,-3.100049868E-2,-7.650861889E-2,-8.735115826E-2
1.226718554E1,1.374406368E-2,-4.688252881E-2,-8.765657991E-2
1.227633689E1,6.948387623E-2,-8.246437646E-3,-8.414421231E-2
1.228548819E1,1.165191159E-1,3.588727489E-2,-7.788302749E-2
1.229463955E1,1.382041872E-1,9.437590092E-2,-6.429167092E-2
1.230379085E1,1.470614821E-1,1.385096163E-1,-5.024218559E-2
1.231294215E1,1.437018216E-1,1.540862173E-1,-4.107947648E-2
1.232209351E1,1.307213157E-1,1.565296054E-1,-3.268032894E-2
1.233124481E1,1.010952219E-1,1.608055383E-1,-2.305948362E-2
1.234039616E1,6.841489673E-2,1.583621502E-1,-1.908897609E-2
1.234954746E1,4.947862774E-2,1.438545287E-1,-2.718270384E-2
1.235869877E1,4.169032723E-2,1.310267299E-1,-4.917320609E-2
1.236785012E1,5.039490014E-2,1.261399537E-1,-7.528692484E-2
1.237700142E1,6.047387794E-2,1.212531775E-1,-9.116895497E-2
1.238615278E1,6.551336497E-2,1.122431830E-1,-9.849911928E-2
1.239530408E1,6.306997687E-2,1.061347127E-1,-9.788827598E-2
1.240445538E1,4.947862774E-2,1.128540337E-1,-9.239064902E-2
1.241360674E1,2.596100792E-2,1.169772521E-1,-8.826743066E-2
1.242275804E1,-1.068982761E-3,1.036913246E-1,-8.536590636E-2
1.243190939E1,-2.870982140E-2,8.017370105E-2,-8.139539510E-2
1.244106069E1,-4.734066129E-2,4.337015375E-2,-8.017370105E-2
1.245021200E1,-5.879404768E-2,9.009997360E-3,-7.788302749E-2
1.245936335E1,-6.734590977E-2,-5.497625098E-3,-7.543963939E-2
1.246851465E1,-6.612421572E-2,0.000000000E0,-7.360709459E-2
1.247766601E1,-4.474456236E-2,1.389677543E-2,-7.284353673E-2
1.248681731E1,-7.788302377E-3,2.122694254E-2,-7.009471953E-2
1.249596861E1,3.588727489E-2,2.672456764E-2,-6.978929788E-2
1.250511996E1,8.765657991E-2,3.161134571E-2,-6.887302548E-2
1.251427127E1,1.467560530E-1,2.993151546E-2,-6.719319522E-2
1.252342257E1,2.159345001E-1,1.679829881E-2,-6.551336497E-2
1.253257392E1,2.899997234E-1,-5.344913341E-3,-5.650337040E-2
1.254172522E1,3.573456407E-1,-2.321219631E-2,-3.573456407E-2
1.255087658E1,4.150707126E-1,-1.527118124E-2,0.000000000E0
1.256002788E1,4.811949134E-1,1.466033421E-2,5.360184610E-2
1.256916642E1,6.013791561E-1,3.191677108E-2,1.209477559E-1
1.257833054E1,7.968502641E-1,6.566607859E-3,1.866138428E-1
1.258748184E1,1.027597785E0,-4.398100078E-2,2.412846684E-1
1.259663314E1,1.265828252E0,-1.014006436E-1,2.771719396E-1
1.260578450E1,1.489856482E0,-1.310267299E-1,2.825168669E-1
1.261493580E1,1.681051612E0,-1.302631795E-1,2.545706034E-1
1.262408715E1,1.807649732E0,-8.918370306E-2,2.388412803E-1
1.263323845E1,1.860488057E0,8.551862091E-3,2.360924631E-1
1.264238976E1,1.860029936E0,1.188097894E-1,2.458660156E-1
1.265154111E1,1.860029936E0,1.827960461E-1,2.556395829E-1
1.266069241E1,1.933484316E0,1.846285909E-1,2.536543310E-1
1.266984377E1,2.016101360E0,1.203369126E-1,2.469350100E-1
1.267899507E1,2.044047594E0,1.908897609E-2,2.472404242E-1
1.268814637E1,2.033968687E0,-8.047912270E-2,2.020377368E-1
1.269729772E1,2.043436766E0,-1.391204596E-1,1.588202864E-1
1.270644903E1,2.079934835E0,-2.270824611E-1,1.420219839E-1
1.271560033E1,2.177975893E0,-3.787252903E-1,1.525591016E-1
1.272475168E1,2.297091007E0,-5.935907960E-1,1.652341783E-1
1.273390298E1,2.381082535E0,-8.315158486E-1,1.640124917E-1
1.274305434E1,2.422620296E0,-1.070204377E0,1.572931707E-1
1.275220564E1,2.463546991E0,-1.242921472E0,1.742441803E-1
1.276134424E1,2.506764412E0,-1.324927688E0,1.672194302E-1
1.277050830E1,2.543720722E0,-1.365396380E0,1.156028435E-1
1.277965960E1,2.586174488E0,-1.395175099E0,6.398624927E-2
1.278879819E1,2.639623642E0,-1.426481009E0,2.962609194E-2
1.279796226E1,2.679176092E0,-1.438545346E0,1.038440317E-2
1.280711877E1,2.686811686E0,-1.380209327E0,2.443389036E-3
1.281626491E1,2.669402599E0,-1.245059371E0,4.795150831E-2
1.282541621E1,2.649244547E0,-1.213600755E0,6.490252167E-2
1.283456752E1,2.620534658E0,-1.354248405E0,6.108472589E-4
1.284370611E1,2.595948219E0,-1.444653749E0,-1.233911440E-1
1.285287017E1,2.579455376E0,-1.342031479E0,-2.267770469E-1
1.286202153E1,2.570139885E0,-1.101815701E0,-2.843494117E-1
1.287117283E1,2.565253019E0,-8.812998533E-1,-3.072561622E-1
1.288032413E1,2.548607588E0,-7.293516397E-1,-3.061871827E-1
1.288947548E1,2.492409468E0,-6.571189165E-1,-2.913741469E-1
1.289862679E1,2.416969776E0,-6.452074051E-1,-2.718270421E-1
1.290777814E1,2.328397036E0,-6.951441765E-1,-2.156290859E-1
1.291692944E1,2.236464500E0,-7.010999322E-1,-1.710372269E-1
1.292608075E1,2.147280931E0,-6.589514613E-1,-1.423274130E-1
1.293523210E1,2.057486296E0,-6.378772259E-1,-1.204896197E-1
1.294438340E1,1.984795451E0,-6.355865598E-1,-9.834641218E-2
1.295352200E1,1.938829184E0,-6.820109487E-1,-8.948912472E-2
1.296268606E1,1.911341071E0,-7.693621516E-1,-1.000262350E-1
1.297183741E1,1.860488057E0,-8.105943203E-1,-1.308740228E-1
1.298097595E1,1.777412772E0,-7.933378816E-1,-1.516428292E-1
1.299014002E1,1.683036923E0,-7.857022882E-1,-1.718007922E-1
1.299929132E1,1.596449256E0,-7.426375747E-1,-1.998997629E-1
1.300844267E1,1.504516840E0,-6.482616663E-1,-2.141019702E-1
1.301759398E1,1.416249394E0,-5.688515306E-1,-2.118112892E-1
1.302674528E1,1.332563281E0,-4.610369802E-1,-1.934858710E-1
1.303589663E1,1.251320601E0,-3.530697227E-1,-1.556133330E-1
1.304504793E1,1.155722976E0,-2.849602401E-1,-1.081199646E-1
1.305419929E1,1.061957955E0,-2.428117841E-1,-6.001574174E-2
1.306335059E1,9.727742672E-1,-2.078407854E-1,-1.908897609E-2
1.307250189E1,8.779402375E-1,-1.632489264E-1,1.863084175E-2
1.308165325E1,7.879929543E-1,-1.127013192E-1,4.795150831E-2
1.309080455E1,6.974348426E-1,-6.566607952E-2,6.856760383E-2
1.309995590E1,6.033644080E-1,-2.428117767E-2,8.261708915E-2
1.310910720E1,5.143333673E-1,6.413896102E-3,9.407047927E-2
1.311825851E1,4.428642690E-1,-1.053711493E-2,1.168245375E-1
1.312740986E1,3.964398801E-1,-7.375980914E-2,1.354553849E-1
1.313656116E1,3.683409095E-1,-1.684411317E-1,1.371352077E-1
1.314571252E1,3.376458287E-1,-2.486148328E-1,1.340809762E-1
1.315486382E1,2.893888950E-1,-2.866400778E-1,1.264453828E-1
1.316401512E1,2.518217862E-1,-2.929012477E-1,1.023169160E-1
1.317315371E1,2.316638231E-1,-2.325800955E-1,8.689302206E-2
1.318231778E1,1.646233350E-1,-1.801999360E-1,1.070509851E-1
1.319146908E1,6.184828654E-2,-2.225011140E-1,1.485885978E-1
1.320062043E1,-6.337540597E-2,-3.110739589E-1,1.892099380E-1
1.320977174E1,-1.910424829E-1,-3.619270027E-1,2.055501044E-1
1.321892304E1,-2.695363462E-1,-3.492519259E-1,2.073826492E-1
1.322806163E1,-2.289150059E-1,-3.414636254E-1,1.971509457E-1
1.323722569E1,-1.426328421E-1,-3.437542915E-1,2.021904439E-1
1.324637705E1,-1.076618284E-1,-3.411581814E-1,2.426590770E-1
1.325551559E1,-1.603474021E-1,-2.512109280E-1,2.788517773E-1
1.326467965E1,-3.135173619E-1,-4.428642802E-3,2.788517773E-1
1.327383101E1,-4.309527278E-1,2.345653474E-1,2.667875290E-1
1.328298231E1,-5.303681493E-1,3.744493723E-1,3.167243004E-1
1.329213366E1,-7.256865501E-1,5.186093450E-1,4.459185004E-1
1.330128496E1,-9.848384857E-1,7.285880446E-1,6.369609833E-1
1.331043632E1,-1.312099934E0,9.910996556E-1,8.400676847E-1
1.331958762E1,-1.729308605E0,1.521162391E0,9.932376146E-1
1.332873892E1,-2.016406775E0,1.805206418E0,9.909469485E-1
1.333787752E1,-2.025111437E0,1.712663054E0,7.380561829E-1
1.334704158E1,-2.205311298E0,1.995332599E0,5.034908652E-1
1.335619288E1,-2.413915634E0,1.953947663E0,3.474193811E-1
1.336533148E1,-2.274489880E0,1.551857471E0,2.687727809E-1
1.337449554E1,-2.024195194E0,1.484817028E0,2.858765125E-1
1.338364684E1,-1.973800182E0,1.253153205E0,3.468085229E-1
1.339278543E1,-1.908744931E0,1.065470338E0,3.852919042E-1
1.340194950E1,-1.795127392E0,9.457442760E-1,4.161396921E-1
1.341110085E1,-1.673263311E0,7.627955079E-1,4.201101959E-1
1.342023939E1,-1.560562015E0,6.177192926E-1,4.259132445E-1
1.342940345E1,-1.440835953E0,4.726430774E-1,4.133908749E-1
1.343855481E1,-1.310420036E0,3.034383655E-1,3.735330999E-1
1.344769335E1,-1.242768764E0,1.646233350E-1,2.947337925E-1
1.345685741E1,-1.213448048E0,1.433963925E-1,2.351761907E-1
1.346600877E1,-1.188556075E0,1.181989461E-1,2.463241518E-1
1.347514731E1,-1.184585571E0,5.864133686E-2,2.829749882E-1
1.348431142E1,-1.164580345E0,1.014006436E-1,2.819060087E-1
1.349346272E1,-1.147018433E0,1.490467340E-1,2.690782249E-1
1.350261403E1,-1.143506050E0,1.510319859E-1,3.223746419E-1
1.351176538E1,-1.158471823E0,2.014268786E-1,4.010212123E-1
1.352091668E1,-1.141368151E0,2.696890533E-1,4.474456310E-1
1.353006798E1,-1.091431379E0,2.516690791E-1,4.599680007E-1
1.353921934E1,-1.036455035E0,1.692046970E-1,4.439332485E-1
1.354837064E1,-1.004691005E0,6.139015034E-2,4.485146105E-1
1.355752200E1,-9.797990322E-1,3.558185324E-2,4.541649222E-1
1.356667330E1,-9.856020808E-1,5.344913341E-3,4.492781460E-1
1.357582460E1,-1.021794796E0,-1.099525020E-2,4.411844313E-1
1.358497595E1,-1.039662004E0,5.879404768E-2,4.249969721E-1
1.359412726E1,-1.030957460E0,1.269035190E-1,4.147652984E-1
1.360327856E1,-1.002705812E0,1.360662282E-1,4.210264683E-1
1.361242991E1,-9.568922520E-1,9.880454093E-2,4.482091665E-1
1.362158121E1,-9.187142849E-1,2.183778957E-2,4.637857676E-1
1.363073257E1,-9.249754548E-1,-8.964183182E-2,4.570664763E-1
1.363987111E1,-9.078717232E-1,-6.215370819E-2,4.175141156E-1
1.364903517E1,-8.773293495E-1,5.879404768E-2,3.663556576E-1
1.365818653E1,-8.814526200E-1,1.901262105E-1,3.345915973E-1
1.366733783E1,-8.838959932E-1,4.057552814E-1,3.324536085E-1
1.367648913E1,-8.916842937E-1,5.920637250E-1,3.347443044E-1
1.368564048E1,-9.072608948E-1,7.528692484E-1,3.205420971E-1
1.369479179E1,-9.258917570E-1,8.473978639E-1,2.945810854E-1
1.370394314E1,-9.446752667E-1,8.893936276E-1,2.797680497E-1
1.371309444E1,-9.678874612E-1,8.681666851E-1,2.753393948E-1
1.372223304E1,-9.972081780E-1,7.855495811E-1,2.527380586E-1
1.373139710E1,-1.037065983E0,6.436802745E-1,2.139492482E-1
1.374054840E1,-1.073258638E0,4.947862923E-1,1.760767251E-1
1.374969970E1,-1.104106426E0,3.775036037E-1,1.240019947E-1
1.375885106E1,-1.135565042E0,2.687727809E-1,7.437065244E-2
1.376800236E1,-1.178324342E0,1.878355294E-1,1.252236869E-2
1.377715371E1,-1.235285878E0,1.843231618E-1,-6.734590977E-2
1.378630502E1,-1.270562291E0,2.394521236E-1,-1.598892659E-1
1.379545632E1,-1.286138892E0,3.339807391E-1,-1.740914732E-1
1.380460767E1,-1.312099934E0,4.815003574E-1,-1.779092699E-1
1.381375898E1,-1.331494331E0,6.676560640E-1,-1.940967143E-1
1.382291028E1,-1.338519096E0,8.338065147E-1,-2.060082406E-1
1.383206163E1,-1.342031479E0,9.411629438E-1,-1.956238300E-1
1.384121293E1,-1.346154690E0,9.918632507E-1,-1.743968874E-1
1.385036429E1,-1.354248405E0,9.907942414E-1,-1.432436854E-1
1.385950283E1,-1.361578584E0,9.721634388E-1,-1.256818175E-1
1.386866689E1,-1.376086116E0,9.341381788E-1,-1.293469071E-1
1.387781825E1,-1.403727055E0,8.761076927E-1,-1.612636745E-1
1.388696955E1,-1.417929173E0,8.373188972E-1,-2.247917950E-1
1.389612085E1,-1.408919215E0,8.255600929E-1,-2.967190444E-1
1.390527220E1,-1.390593767E0,8.018897176E-1,-3.613161445E-1
1.391441075E1,-1.394411564E0,7.731798887E-1,-4.272876680E-1
1.392357481E1,-1.378071427E0,7.748597264E-1,-4.998257756E-1
1.393272616E1,-1.306449533E0,8.029587269E-1,-5.696150661E-1
1.394186470E1,-1.194206357E0,8.168554902E-1,-6.287145615E-1
1.395102882E1,-1.025154471E0,8.012788892E-1,-6.555918455E-1
1.396018012E1,-7.293516397E-1,7.601994276E-1,-6.565080881E-1
1.396931871E1,-1.496575773E-1,5.228852630E-1,-6.943806410E-1
1.397848278E1,8.034168482E-1,4.873034060E-1,-7.840224504E-1
1.398763408E1,2.024347782E0,1.034317136E0,-7.238540053E-1
1.399677267E1,3.160065651E0,1.420525312E0,-5.934380889E-1
1.400593674E1,3.537569284E0,1.248113632E0,-4.411844313E-1
1.401508804E1,3.788016558E0,7.792884111E-1,-3.981196880E-1
1.402422663E1,4.041059971E0,3.820849657E-1,-5.138752460E-1
1.403339069E1,4.224619865E0,1.250709742E-1,-5.422796607E-1
1.404254200E1,4.306320667E0,3.095468581E-1,-4.104893506E-1
1.405168059E1,4.408942699E0,7.609629631E-1,-2.360924631E-1
1.406084465E1,4.629764080E0,1.140604496E0,-4.306473210E-2
1.406999595E1,4.783545017E0,9.994988441E-1,1.907370538E-1
1.407913455E1,4.898231506E0,6.464291215E-1,4.611896873E-1
1.408829866E1,5.061785698E0,5.871769190E-1,6.838434935E-1
1.409744991E1,5.172959805E0,4.648547769E-1,7.672241330E-1
1.410658851E1,5.030632496E0,3.313846514E-2,6.187883019E-1
1.411575257E1,4.773923874E0,-4.317162931E-1,4.982986450E-1
1.412490392E1,4.553713799E0,-7.075138092E-1,4.920374751E-1
1.413404246E1,4.402681828E0,-5.499152541E-1,4.865398407E-1
1.414320653E1,4.289522171E0,-3.220692277E-1,5.375455618E-1
1.415235788E1,4.241112709E0,-3.695625961E-1,5.749599934E-1
1.416149642E1,4.172697544E0,-6.189410090E-1,6.394043565E-1
1.417066048E1,3.905604601E0,-7.876875401E-1,7.403468490E-1
1.417981184E1,3.506263256E0,-9.999569654E-1,8.878664970E-1
1.418895038E1,3.239781141E0,-1.444042921E0,9.999569654E-1
1.419811450E1,3.091345310E0,-2.014421463E0,9.747595191E-1
1.420726580E1,2.936342716E0,-2.591977596E0,8.031114340E-1
1.421640434E1,2.739344597E0,-2.914505005E0,5.424323678E-1
1.422556840E1,2.520355701E0,-3.065842390E0,3.115321100E-1
1.423471976E1,2.240435123E0,-3.125858068E0,1.690519750E-1
1.424385835E1,1.907523274E0,-3.003841400E0,6.948387623E-2
1.425302241E1,1.575833201E0,-2.683604717E0,-1.603474095E-2
1.426217371E1,1.341267824E0,-2.142852068E0,-2.977880463E-2
1.427131226E1,1.131594539E0,-1.487718463E0,7.696675509E-2
1.428047637E1,9.371923804E-1,-9.871291518E-1,2.712161839E-1
1.428962767E1,7.102626562E-1,-8.086090684E-1,3.739912212E-1
1.429876627E1,4.847072959E-1,-9.310839176E-1,3.199312389E-1
1.430793033E1,3.428380191E-1,-1.036455035E0,2.457133085E-1
1.431708163E1,2.527380586E-1,-8.134958148E-1,2.541124523E-1
1.432622022E1,1.609582454E-1,-3.723114133E-1,3.275668323E-1
1.433538429E1,3.985778242E-2,5.207473040E-2,3.941491842E-1
1.434453559E1,-1.159082651E-1,3.055763543E-1,4.143071473E-1
1.435368689E1,-2.834331393E-1,2.991624475E-1,3.941491842E-1
1.436283825E1,-4.581354558E-1,6.444438547E-2,3.822376728E-1
1.437198955E1,-6.239804626E-1,-2.249445021E-1,4.007157981E-1
1.438114090E1,-7.750124335E-1,-4.535540938E-1,4.224008918E-1
1.439029220E1,-9.483403563E-1,-5.647283196E-1,4.164451063E-1
1.439944351E1,-1.134343386E0,-5.241069198E-1,4.046863019E-1
1.440858210E1,-1.338519096E0,-3.480302393E-1,3.842229247E-1
1.441774616E1,-1.657381296E0,-9.605573118E-2,3.542914093E-1
1.442689746E1,-2.140866995E0,2.157817930E-1,3.371876776E-1
1.443603606E1,-2.620840073E0,6.442911625E-1,3.970507085E-1
1.444520012E1,-2.889918327E0,1.028972149E0,5.602996349E-1
1.445435148E1,-2.620840073E0,1.202452779E0,7.385143638E-1
1.446349002E1,-1.859877229E0,1.405712247E0,9.153546095E-1
1.447265408E1,-1.028514028E0,2.189887524E0,1.237729311E0
1.448180543E1,-1.121210098E0,2.451482773E0,1.629435062E0
1.449094398E1,-2.187596798E0,1.270409584E0,1.465880752E0
1.450010804E1,-2.671540499E0,1.087155461E0,8.432746530E-1
1.450925939E1,-1.836206913E0,1.896222591E0,2.745758295E-1
1.451839793E1,-1.169925213E0,3.086305857E-1,9.361234307E-2
1.452756200E1,-1.390593767E0,-7.802046537E-1,3.500154912E-1
1.453671335E1,-1.663031697E0,-1.710372418E-2,5.001311898E-1
1.454585189E1,-1.567586780E0,4.149180055E-1,4.900522232E-1
1.455501595E1,-1.414874911E0,4.332434237E-1,6.413896084E-1
1.456416731E1,-1.423274159E0,2.733541429E-1,9.071081877E-1
1.457330585E1,-1.363105655E0,2.803788781E-1,9.831586480E-1
1.458246996E1,-1.185043693E0,3.329117596E-2,9.034430981E-1
1.459162127E1,-1.093874693E0,-3.498627543E-1,7.119424939E-1
1.460075981E1,-1.041800022E0,-5.430431962E-1,4.395045936E-1
1.460992392E1,-1.016449809E0,-5.204418898E-1,2.174616307E-1
1.461907523E1,-9.883508682E-1,-2.803788781E-1,8.429691941E-2
1.462821377E1,-9.619317055E-1,9.254335612E-2,4.581354558E-2
1.463737788E1,-9.822424054E-1,5.601469278E-1,7.223268598E-2
1.464652918E1,-1.017060637E0,1.060430884E0,1.217113137E-1
1.465566778E1,-1.093569279E0,1.326302052E0,1.826433241E-1
1.466483184E1,-1.187028885E0,1.424495816E0,2.099787444E-1
1.467398314E1,-1.217418551E0,1.381583810E0,2.031067163E-1
1.468312174E1,-1.204896212E0,1.164580345E0,1.716480851E-1
1.469228580E1,-1.187639832E0,7.081246972E-1,9.498675168E-2
1.470143710E1,-1.144116879E0,2.257080674E-1,-1.969982497E-2
1.471057569E1,-1.116781473E0,-1.542389393E-1,-1.322484314E-1
1.471973976E1,-1.098761559E0,-3.468085229E-1,-1.893626451E-1
1.472889106E1,-1.124722481E0,-3.515425920E-1,-1.760767251E-1
1.473804241E1,-1.192373872E0,-3.153499067E-1,-1.453816444E-1
1.474719371E1,-1.187487125E0,-1.481304616E-1,-6.734590977E-2
1.475634502E1,-1.184738278E0,-1.511846948E-2,4.795150831E-2
1.476549637E1,-1.284153700E0,8.276980370E-2,1.687465608E-1
1.477464767E1,-1.390746474E0,1.895153672E-1,2.478512824E-1
1.478379898E1,-1.446639061E0,3.486410677E-1,2.907632887E-1
1.479295033E1,-1.457176089E0,4.958552718E-1,3.124483824E-1
1.480210163E1,-1.458550572E0,5.934380889E-1,2.965663373E-1
1.481125293E1,-1.430604339E0,6.450546980E-1,2.661767006E-1
1.482040429E1,-1.359440565E0,5.613686442E-1,2.344126403E-1
1.482955559E1,-1.384485364E0,4.703523815E-1,2.195995897E-1
1.483870689E1,-1.426175594E0,5.051707029E-1,2.357870489E-1
1.484784548E1,-1.407697558E0,5.554128885E-1,2.750339806E-1
1.485700955E1,-1.344016671E0,3.545968235E-1,3.561239541E-1
1.486616090E1,-1.324927688E0,1.293469071E-1,3.967452943E-1
1.487531220E1,-1.359135151E0,-8.826743066E-2,3.607053161E-1
1.488446351E1,-1.318819284E0,-2.295258641E-1,2.809897363E-1
1.489361486E1,-1.277587056E0,-2.431172132E-1,1.915006191E-1
1.490275340E1,-1.306602240E0,-9.910997003E-2,6.062658876E-2
1.491191746E1,-1.349514365E0,1.348445266E-1,-7.055285573E-2
1.492106882E1,-1.342184186E0,3.248180151E-1,-1.493521482E-1
1.493022012E1,-1.319430113E0,4.905103445E-1,-1.847812980E-1
1.493937142E1,-1.315765023E0,6.529957056E-1,-2.246390730E-1
1.494852278E1,-1.295912504E0,7.806627750E-1,-2.593046725E-1
1.495767408E1,-1.279724956E0,8.541171551E-1,-2.812951505E-1
1.496682538E1,-1.284000993E0,9.144383669E-1,-2.849602401E-1
1.497597674E1,-1.276976228E0,9.510892034E-1,-2.843494117E-1
1.498512804E1,-1.252084136E0,9.379559755E-1,-2.860292196E-1
1.499427939E1,-1.227344871E0,9.162709117E-1,-2.870981991E-1
1.500343069E1,-1.211920977E0,9.132166505E-1,-2.936648130E-1
1.501258200E1,-1.200620294E0,9.035958052E-1,-3.179459870E-1
1.502173335E1,-1.209019423E0,9.093988538E-1,-3.584146202E-1
1.503088465E1,-1.214517117E0,9.176452756E-1,-4.140017331E-1
1.504003595E1,-1.206881523E0,9.168817401E-1,-4.639385045E-1
1.504918731E1,-1.200314879E0,8.890882134E-1,-4.895940721E-1
1.505833861E1,-1.156944752E0,8.614473343E-1,-4.947862923E-1
1.506747715E1,-1.044243336E0,8.162446618E-1,-5.109737515E-1
1.507664127E1,-8.590039611E-1,7.159129977E-1,-5.346440673E-1
1.508579257E1,-5.853443742E-1,5.789304972E-1,-5.271611810E-1
1.509493116E1,-1.860029846E-1,3.490992188E-1,-4.734066129E-1
1.510409523E1,3.281776905E-1,-2.962609194E-2,-4.194993675E-1
1.511324653E1,9.310839176E-1,-4.666872919E-1,-4.253024161E-1
1.512238512E1,1.517802715E0,-7.518002391E-1,-5.222744346E-1
1.513154918E1,2.083294630E0,-7.007945180E-1,-6.734591126E-1
1.514070049E1,2.399408102E0,-3.532224298E-1,-8.301414251E-1
1.514983908E1,2.464005232E0,1.064401343E-1,-8.741224408E-1
1.515900314E1,2.511498451E0,6.357392669E-1,-8.209787011E-1
1.516815444E1,2.724531412E0,7.116370797E-1,-7.884510756E-1
1.517729304E1,3.041103125E0,1.728697717E-1,-7.716528177E-1
1.518645710E1,3.278875351E0,-5.650337338E-1,-7.792884111E-1
1.519560840E1,3.413414478E0,-1.004691005E0,-7.744016051E-1
1.520475976E1,3.586589575E0,-1.100135922E0,-7.406523228E-1
1.521391106E1,3.858722210E0,-9.211576581E-1,-7.102626562E-1
1.522306241E1,4.146889210E0,-6.462764144E-1,-6.620057225E-1
1.523220095E1,4.389700890E0,-4.008685052E-1,-5.712949038E-1
1.524136502E1,4.577994823E0,-1.554606259E-1,-4.327852726E-1
1.525051637E1,4.621059418E0,4.963133857E-2,-2.292204350E-1
1.525966767E1,4.521185875E0,1.443126649E-1,-1.145338640E-2
1.526881898E1,4.282497406E0,8.628217876E-2,1.621799469E-1
1.527797033E1,4.065799236E0,-5.955760926E-2,2.670929730E-1
1.528710887E1,4.028079510E0,9.941539168E-2,3.949127495E-1
1.529627293E1,4.036936760E0,3.956763148E-1,4.717268050E-1
1.530542429E1,4.013877392E0,4.619532526E-1,4.958552718E-1
1.531456283E1,3.972797871E0,1.511846930E-1,5.557183027E-1
1.532372689E1,3.832150221E0,-4.285093546E-1,6.076403260E-1
1.533287825E1,3.613161564E0,-1.178018928E0,5.900784731E-1
1.534201679E1,3.406084299E0,-1.882631302E0,4.822639227E-1
1.535118085E1,3.216874361E0,-2.301061630E0,3.329117596E-1
1.536033220E1,3.026442766E0,-2.394674063E0,1.942494214E-1
1.536947075E1,2.828375578E0,-2.312362194E0,9.025268257E-2
1.537863481E1,2.615342617E0,-2.248986959E0,6.490252167E-2
1.538778616E1,2.431782961E0,-2.265479803E0,6.108472496E-2
1.539692470E1,2.258302212E0,-2.202104330E0,6.108472589E-4
1.540608877E1,2.026333094E0,-2.006327868E0,-7.574506104E-2
1.541524012E1,1.728392363E0,-1.624242902E0,-1.073564067E-1
1.542437866E1,1.378376842E0,-1.132052660E0,-1.371352077E-1
1.543354278E1,1.115712523E0,-6.872031689E-1,-1.832541823E-1
1.544269408E1,9.174925685E-1,-2.767138183E-1,-2.258607745E-1
1.545183262E1,7.136223316E-1,6.444438547E-2,-2.562504113E-1
1.546099674E1,5.089884996E-1,2.696890533E-1,-2.247917950E-1
1.547014804E1,3.266505599E-1,3.498627543E-1,-1.241547018E-1
1.547928658E1,1.418692768E-1,2.785463631E-1,1.374406368E-2
1.548845069E1,-3.665083647E-2,1.159082651E-1,1.226275861E-1
1.549760200E1,-1.884463727E-1,4.779879749E-2,1.698155403E-1
1.550674054E1,-3.755183518E-1,1.542389393E-1,1.873773932E-1
1.551590465E1,-5.783196688E-1,3.335226178E-1,2.260134816E-1
1.552505595E1,-7.860077024E-1,4.425588250E-1,2.745758295E-1
1.553420726E1,-1.089140654E0,4.640912116E-1,3.486410677E-1
1.554335861E1,-1.460535765E0,3.746020794E-1,4.506525695E-1
1.555250991E1,-1.789171576E0,2.809897363E-1,5.338805318E-1
1.556164845E1,-1.948450089E0,3.235963285E-1,5.308262706E-1
1.557081257E1,-1.790698767E0,4.970769584E-1,4.781406820E-1
1.557996387E1,-1.612942219E0,7.412631512E-1,6.044333577E-1
1.558910246E1,-1.756185889E0,9.862129092E-1,8.932114244E-1
1.559826653E1,-1.893779159E0,1.133579850E0,1.199398637E0
1.560741783E1,-2.147891760E0,8.501466513E-1,1.404796004E0
1.561655642E1,-2.365811348E0,8.454126120E-1,1.343405843E0
1.562572048E1,-2.348707676E0,1.475501537E0,1.110978484E0
1.563487179E1,-2.205464125E0,1.958376288E0,9.197832346E-1
1.564401038E1,-2.204242229E0,1.281252146E0,8.477032781E-1
1.565317444E1,-2.171714783E0,7.664605975E-1,9.436063170E-1
1.566232575E1,-2.147128105E0,6.238277555E-1,9.804098606E-1
1.567146434E1,-1.924321532E0,3.096995652E-1,8.339592218E-1
1.568062840E1,-1.677539229E0,4.107947648E-2,6.001574397E-1
1.568977970E1,-1.604390383E0,-2.692309320E-1,4.341596961E-1
1.569891830E1,-1.470920205E0,-4.839437306E-1,3.419217467E-1
1.570808236E1,-1.323706031E0,-5.205945969E-1,2.976353168E-1
1.571723366E1,-1.306144118E0,-3.875826001E-1,2.531961799E-1
1.572637226E1,-1.323095202E0,-1.065928489E-1,1.551551968E-1
1.573553632E1,-1.340962410E0,1.485885978E-1,6.810946763E-2
1.574468762E1,-1.381125689E0,3.822376728E-1,4.810422286E-2
1.575383892E1,-1.410598993E0,6.395570636E-1,7.162184268E-2
1.576299028E1,-1.431825995E0,8.435800672E-1,1.391204596E-1
1.577214158E1,-1.461299300E0,9.944593310E-1,2.241809368E-1
1.578128017E1,-1.481762767E0,1.032789946E0,3.156553209E-1
1.579044424E1,-1.443737507E0,9.523108602E-1,3.959817290E-1
1.579959554E1,-1.414111376E0,7.652388811E-1,4.701996744E-1
1.580873413E1,-1.439919710E0,3.941491842E-1,5.129590034E-1
1.581789819E1,-1.435796499E0,6.154286116E-2,5.187620521E-1
1.582704950E1,-1.430451512E0,-1.884463727E-1,5.221216679E-1
1.583620085E1,-1.401436329E0,-4.692834020E-1,5.095993280E-1
1.584535215E1,-1.371504784E0,-6.308525205E-1,4.640912116E-1
1.585450345E1,-1.377002478E0,-7.372926474E-1,3.689517379E-1
1.586364205E1,-1.360662222E0,-7.901309133E-1,2.664821148E-1
1.587280611E1,-1.314695954E0,-7.765395641E-1,1.863084137E-1
1.588195741E1,-1.279877663E0,-6.042806506E-1,1.496575773E-1
1.589109601E1,-1.273921967E0,-2.777827978E-1,1.336228400E-1
1.590026007E1,-1.279266834E0,5.176930502E-2,1.052184403E-1
1.590941137E1,-1.251473308E0,3.565820754E-1,5.818320066E-2
1.591856273E1,-1.231620789E0,5.147915483E-1,-9.009997360E-3
1.592771403E1,-1.186265349E0,5.627430081E-1,-8.551861346E-2
1.593686533E1,-1.122279167E0,6.235223413E-1,-1.620272398E-1
1.594601668E1,-1.095554590E0,6.870504618E-1,-2.292204350E-1
1.595516799E1,-1.103037477E0,8.061656952E-1,-2.909159958E-1
1.596431929E1,-1.095096469E0,9.633061290E-1,-3.277195692E-1
1.597345788E1,-1.077229142E0,1.119530320E0,-3.283303976E-1
1.598262194E1,-1.069135427E0,1.151447058E0,-3.104631305E-1
1.599177325E1,-1.053711534E0,1.151599765E0,-2.866400778E-1
1.600091184E1,-1.045006990E0,1.063637733E0,-2.681619525E-1
1.601007590E1,-1.052337170E0,9.684983492E-1,-2.406738251E-1
1.601922720E1,-1.084101200E0,8.583931327E-1,-2.139492482E-1
1.602837856E1,-1.131136417E0,7.855495811E-1,-1.696628332E-1
1.603752986E1,-1.188403368E0,7.010999322E-1,-1.455343664E-1
1.604668116E1,-1.241241574E0,6.029062271E-1,-1.299577504E-1
1.605583252E1,-1.291025639E0,5.131117105E-1,-1.137702987E-1
1.606498382E1,-1.325691223E0,4.534013867E-1,-1.151447073E-1
1.607413512E1,-1.343711257E0,4.063661397E-1,-1.171299592E-1
1.608328648E1,-1.348750710E0,4.256078303E-1,-1.299577504E-1
1.609243778E1,-1.342489600E0,4.344651103E-1,-1.525591016E-1
1.610158908E1,-1.359898686E0,4.489727318E-1,-1.692046970E-1
1.611074043E1,-1.361883998E0,4.836383164E-1,-2.113531530E-1
1.611989174E1,-1.350736022E0,4.967715442E-1,-2.496838123E-1
1.612904309E1,-1.318666577E0,5.063923597E-1,-2.959555089E-1
1.613818163E1,-1.272089362E0,5.743491650E-1,-3.500154912E-1
1.614734569E1,-1.214975238E0,6.923953891E-1,-3.997995257E-1
1.615649705E1,-1.139688253E0,7.646280527E-1,-4.419479966E-1
1.616564835E1,-1.077534556E0,7.994463444E-1,-4.873034060E-1
1.617479965E1,-1.007745266E0,8.764131069E-1,-5.462501645E-1
1.618395101E1,-9.023740888E-1,9.071081877E-1,-6.047387719E-1
1.619308955E1,-7.496622801E-1,8.197570443E-1,-6.487197876E-1
1.620225361E1,-5.118899941E-1,6.954495907E-1,-6.487197876E-1
1.621140496E1,-1.290414780E-1,5.131117105E-1,-5.977140665E-1
1.622054351E1,4.277457893E-1,1.905843467E-1,-5.435013771E-1
1.622970757E1,1.087613583E0,-2.082989216E-1,-5.086830258E-1
1.623885892E1,1.670361876E0,-3.217637837E-1,-4.934118688E-1
1.624799746E1,1.938065648E0,-1.123958975E-1,-5.192201734E-1
1.625716153E1,2.154916525E0,4.275930673E-2,-5.288410187E-1
1.626631288E1,2.353747129E0,2.405211031E-1,-5.971031785E-1
1.627545142E1,2.649549961E0,-1.374406274E-3,-6.461237073E-1
1.628461548E1,2.957111597E0,-5.691569448E-1,-7.736380696E-1
1.629376684E1,3.173198700E0,-1.011104941E0,-9.355126023E-1
1.630290538E1,3.291092396E0,-8.771766424E-1,-9.791881442E-1
1.631206944E1,3.420591831E0,-6.572716236E-1,-8.863393664E-1
1.632122080E1,3.631792307E0,-5.448757410E-1,-7.426375747E-1
1.633035934E1,3.962718964E0,-3.921639323E-1,-6.401679516E-1
1.633952340E1,4.356410027E0,-1.780619770E-1,-4.495835900E-1
1.634867476E1,4.545467377E0,-3.787253052E-2,-1.217113137E-1
1.635781330E1,4.424672127E0,-2.623589039E-1,1.945548505E-1
1.636697736E1,4.359616756E0,-5.787777901E-1,3.654393852E-1
1.637612871E1,4.281886578E0,-6.946860552E-1,1.762294322E-1
1.638526726E1,4.096647263E0,-4.650074840E-1,-5.726693198E-2
1.639443132E1,3.996162653E0,-1.349972486E-1,-3.924693540E-2
1.640358267E1,3.936299801E0,2.241809368E-1,1.218640283E-1
1.641272121E1,3.866663218E0,3.469612300E-1,2.982461751E-1
1.642188533E1,3.810617924E0,1.980672181E-1,4.653128982E-1
1.643103663E1,3.672108412E0,-2.933593988E-1,5.758762360E-1
1.644017517E1,3.428380251E0,-9.926267862E-1,6.375718117E-1
1.644933924E1,3.187553644E0,-1.618745208E0,5.844281316E-1
1.645849059E1,2.973451853E0,-2.095053434E0,4.573718905E-1
1.646762913E1,2.754004955E0,-2.384900331E0,3.675773442E-1
1.647679319E1,2.564489603E0,-2.390398026E0,2.874036431E-1
1.648594455E1,2.361535549E0,-2.149724245E0,2.461714447E-1
1.649508309E1,2.118112803E0,-1.931957126E0,2.504473627E-1
1.650424715E1,1.924321532E0,-1.912410021E0,2.501419485E-1
1.651339851E1,1.713579297E0,-1.930888176E0,2.420482337E-1
1.652253705E1,1.394564271E0,-1.779398084E0,1.511846930E-1
1.653170111E1,1.032331824E0,-1.398992896E0,2.855710872E-2
1.654085246E1,7.153021693E-1,-7.777612805E-1,-4.734066129E-2
1.654999101E1,4.598152637E-1,-1.075091213E-1,-3.619270027E-2
1.655915507E1,2.498365343E-1,3.895678520E-1,3.344388679E-2
1.656830642E1,1.105633527E-1,5.572454333E-1,1.220167428E-1
1.657745773E1,2.397575416E-2,4.037700295E-1,2.101314515E-1
1.658660903E1,-5.604523420E-2,1.484358907E-1,2.866400778E-1
1.659576038E1,-1.925695986E-1,6.261184346E-3,3.510844707E-1
1.660489892E1,-4.416425824E-1,7.284353673E-2,3.938437700E-1
1.661406304E1,-7.194253802E-1,2.443388999E-1,4.173613787E-1
1.662321434E1,-9.153546095E-1,3.616215885E-1,4.385883212E-1
1.663235288E1,-9.666658044E-1,2.988570333E-1,4.309527278E-1
1.664151694E1,-9.713998437E-1,9.972081333E-2,3.865135908E-1
1.665066830E1,-1.063637733E0,-2.229592577E-2,3.077143133E-1
1.665980684E1,-1.230093718E0,1.212531775E-1,2.875563502E-1
1.666897090E1,-1.567128658E0,6.971294284E-1,5.314370990E-1
1.667812226E1,-1.987238884E0,1.037982225E0,9.385668039E-1
1.668726080E1,-2.192330837E0,5.186093450E-1,1.384027123E0
1.669642486E1,-2.161330223E0,1.846285909E-1,1.612789512E0
1.670557621E1,-1.919740200E0,9.788827300E-1,1.403879762E0
1.671471476E1,-2.073521137E0,1.513984919E0,8.099834919E-1
1.672387887E1,-2.393299580E0,1.531699538E0,4.205683470E-1
1.673303017E1,-2.120861769E0,5.512896776E-1,2.912214398E-1
1.674216871E1,-1.712815762E0,1.415638477E-1,4.294256270E-1
1.675133278E1,-1.814063668E0,1.102579311E-1,6.656708121E-1
1.676048413E1,-1.839108348E0,4.069769979E-1,7.262973785E-1
1.676962267E1,-1.774664044E0,4.156815708E-1,6.094728708E-1
1.677878674E1,-1.718007922E0,-2.199050039E-2,5.187620521E-1
1.678793809E1,-1.569877505E0,2.519745007E-2,5.202891231E-1
1.679707663E1,-1.460535765E0,1.995943487E-1,5.349494815E-1
1.680624069E1,-1.455038190E0,2.803788781E-1,5.318952799E-1
1.681539205E1,-1.426633716E0,4.931064546E-1,5.167768002E-1
1.682454335E1,-1.371657491E0,6.334486008E-1,5.085303187E-1
1.683369465E1,-1.352415800E0,6.768187881E-1,5.005893111E-1
1.684284601E1,-1.346001983E0,7.256865501E-1,5.012001991E-1
1.685198455E1,-1.300646544E0,8.066238165E-1,5.357130170E-1
1.686114861E1,-1.283695459E0,9.784246087E-1,5.479300022E-1
1.687029996E1,-1.363105655E0,8.515210748E-1,4.668400288E-1
1.687945127E1,-1.383874416E0,5.622848868E-1,3.240544796E-1
1.688860257E1,-1.334395885E0,5.192201734E-1,2.266243398E-1
1.689775392E1,-1.279114127E0,4.793623984E-1,1.971509457E-1
1.690690523E1,-1.256512761E0,5.399889946E-1,1.423274130E-1
1.691605653E1,-1.290262103E0,4.585935771E-1,1.122431830E-1
1.692520788E1,-1.286291599E0,3.089359999E-1,6.780404598E-2
1.693435918E1,-1.261705041E0,1.919587553E-1,4.123219103E-2
1.694351048E1,-1.249946237E0,9.330692142E-2,8.643488586E-2
1.695266179E1,-1.231773496E0,9.788827598E-2,1.421747059E-1
1.696181314E1,-1.264759302E0,1.165191159E-1,1.884463727E-1
1.697096444E1,-1.295301557E0,8.108997345E-2,1.979145110E-1
1.698011575E1,-1.298508525E0,9.910997003E-2,1.954711229E-1
1.698925434E1,-1.304464340E0,1.533226669E-1,1.831014603E-1
1.699841840E1,-1.319735527E0,2.229592502E-1,1.293469071E-1
1.700756970E1,-1.327829242E0,3.909422457E-1,7.711946964E-2
1.701672106E1,-1.300799251E0,5.636593103E-1,3.695625812E-2
1.702587236E1,-1.302784443E0,6.726955175E-1,5.192201585E-3
1.703502371E1,-1.361731291E0,7.194253802E-1,-1.542389300E-2
1.704417502E1,-1.402810693E0,7.301151752E-1,-6.765133142E-2
1.705332632E1,-1.388303161E0,7.195780873E-1,-1.334701329E-1
1.706247767E1,-1.388913989E0,6.591041684E-1,-1.792836636E-1
1.707162898E1,-1.416402102E0,6.589514613E-1,-2.081461996E-1
1.708078033E1,-1.441141367E0,6.864396334E-1,-2.669402659E-1
1.708993158E1,-1.466186166E0,7.191199064E-1,-3.556658030E-1
1.709908293E1,-1.501615286E0,6.923953891E-1,-4.121691883E-1
1.710823424E1,-1.526201844E0,6.897992492E-1,-4.294256270E-1
1.711738554E1,-1.520246148E0,7.314895988E-1,-4.428642690E-1
1.712653689E1,-1.499935389E0,7.495095730E-1,-4.573718905E-1
1.713568819E1,-1.494437814E0,7.518002391E-1,-4.683671296E-1
1.714483950E1,-1.491230845E0,7.427902818E-1,-4.889832437E-1
1.715399085E1,-1.484969735E0,7.426375747E-1,-5.091412067E-1
1.716314215E1,-1.482068181E0,7.614210844E-1,-5.121954083E-1
1.717229345E1,-1.475654244E0,7.922688723E-1,-4.895940721E-1
1.718144481E1,-1.473363638E0,8.176190853E-1,-4.785988331E-1
1.719059611E1,-1.434880257E0,8.441908956E-1,-4.789042473E-1
1.719974741E1,-1.328592777E0,8.774821162E-1,-4.561502039E-1
1.720888601E1,-1.161831498E0,9.084826112E-1,-4.563029110E-1
1.721805007E1,-9.498674870E-1,9.190196991E-1,-4.566083252E-1
1.722720137E1,-7.232431769E-1,8.067765236E-1,-4.567610323E-1
1.723633996E1,-4.553866386E-1,5.314370990E-1,-4.022429287E-1
1.724550403E1,-1.681357026E-1,1.930277348E-1,-2.942756712E-1
1.725465533E1,1.233911440E-1,-6.383354217E-2,-1.606528312E-1
1.726379392E1,4.453076422E-1,-1.449235082E-1,-4.550812021E-2
1.727295798E1,9.167290330E-1,-1.727170646E-1,4.764608666E-2
1.728210929E1,1.329814434E0,-2.270824611E-1,1.281252056E-1
1.729124788E1,1.540404081E0,-2.922904193E-1,1.882936656E-1
1.730041194E1,1.733279109E0,-4.981459379E-1,1.617218107E-1
1.730956325E1,1.910119414E0,-8.567132950E-1,-8.536590636E-2
1.731870184E1,2.163773775E0,-1.177408099E0,-3.536805511E-1
1.732786590E1,2.572430611E0,-1.340351582E0,-5.943543911E-1
1.733701720E1,2.959860325E0,-1.419456363E0,-8.009734750E-1
1.734615580E1,3.179918051E0,-1.245975733E0,-8.967237473E-1
1.735531986E1,3.351260662E0,-7.843278646E-1,-8.133431077E-1
1.736447116E1,3.541692495E0,-3.252761662E-1,-6.157340407E-1
1.737360976E1,3.761291981E0,5.421269313E-2,-4.130854607E-1
1.738277382E1,3.976462841E0,3.203893900E-1,-2.510582209E-1
1.739192512E1,4.090233326E0,4.694361091E-1,-7.452336699E-2
1.740106371E1,4.129785538E0,5.274665952E-1,9.422318637E-2
1.741022778E1,4.114666939E0,3.226800561E-1,2.744231224E-1
1.741937908E1,4.071449757E0,-1.475196183E-1,4.069769979E-1
1.742851767E1,3.865441561E0,-5.766398311E-1,3.202366829E-1
1.743768174E1,3.667526960E0,-3.706315756E-1,6.108472496E-2
1.744683304E1,3.622629642E0,-8.124268800E-2,-1.145338640E-2
1.745597163E1,3.646147251E0,-1.009425074E-1,1.644706279E-1
1.746513569E1,3.618811846E0,-3.194731176E-1,2.542651594E-1
1.747428700E1,3.525810480E0,-6.704048514E-1,3.924693763E-1
1.748342559E1,3.319802046E0,-1.088224411E0,4.164451063E-1
1.749258965E1,3.127690792E0,-1.462826490E0,4.086568058E-1
1.750174095E1,2.983836174E0,-1.839108348E0,3.791834414E-1
1.751087955E1,2.819365501E0,-2.167438745E0,3.110739589E-1
1.752004361E1,2.606790781E0,-2.343515396E0,2.327328026E-1
1.752919491E1,2.370698214E0,-2.315721989E0,1.846285909E-1
1.753833351E1,2.138270855E0,-2.156596184E0,1.395785958E-1
1.754749757E1,1.895764470E0,-1.966775417E0,7.360709459E-2
1.755664887E1,1.627755284E0,-1.801235914E0,3.817795310E-3
1.756578746E1,1.363716483E0,-1.663947940E0,-8.612946421E-2
1.757495153E1,1.128540277E0,-1.458550572E0,-1.508792788E-1
1.758410283E1,8.603783846E-1,-1.081199646E0,-1.847812980E-1
1.759324142E1,5.503733754E-1,-7.148439884E-1,-2.171562016E-1
1.760240549E1,2.791571915E-1,-5.152496696E-1,-2.215848416E-1
1.761155679E1,5.726693198E-2,-3.936910629E-1,-1.835595965E-1
1.762070814E1,-7.269082218E-2,-2.350234836E-1,-8.322793990E-2
1.762985944E1,-9.926267713E-2,4.581354558E-2,7.513421029E-2
1.763901075E1,-1.107160673E-1,3.698680103E-1,2.170034945E-1
1.764814934E1,-2.232646793E-1,5.940489769E-1,2.814478874E-1
1.765731340E1,-4.349232614E-1,5.998520255E-1,3.092414141E-1
1.766646470E1,-7.276718020E-1,3.975088596E-1,2.988570333E-1
1.767561606E1,-9.724688530E-1,1.372879148E-1,2.722851634E-1
1.768476736E1,-1.039356589E0,3.588727489E-2,2.418955117E-1
1.769391866E1,-1.112963676E0,3.848337829E-1,3.058817685E-1
1.770305726E1,-1.429687977E0,9.003888369E-1,5.346440673E-1
1.771222132E1,-1.962346792E0,1.117697716E0,8.580876589E-1
1.772137262E1,-2.411319494E0,1.005454540E0,1.144575000E0
1.773051121E1,-2.581593275E0,7.634063363E-1,1.243685007E0
1.773967528E1,-2.263799906E0,9.871291518E-1,9.891144037E-1
1.774882663E1,-2.026333094E0,1.506502032E0,5.740436912E-1
1.775796517E1,-2.133383989E0,1.362800241E0,3.975088596E-1
1.776712924E1,-2.117349386E0,5.688515306E-1,4.561502039E-1
1.777628054E1,-1.975327373E0,3.610107303E-1,5.457920432E-1
1.778541913E1,-1.942494273E0,4.694361091E-1,5.441122055E-1
1.779458319E1,-1.907523274E0,3.593308926E-1,5.555655956E-1
1.780373450E1,-1.837123156E0,3.591781855E-1,6.458182931E-1
1.781288580E1,-1.739540339E0,5.137225389E-1,7.221741676E-1
1.782203715E1,-1.611109614E0,4.062134326E-1,7.401941419E-1
1.783118845E1,-1.520246148E0,4.043808877E-1,6.833853722E-1
1.784032705E1,-1.491536260E0,4.908157587E-1,5.694623590E-1
1.784949111E1,-1.430451512E0,5.302154422E-1,4.585935771E-1
1.785864241E1,-1.386317849E0,6.529957056E-1,4.106420577E-1
1.786778095E1,-1.375322580E0,8.252546191E-1,3.874298632E-1
1.787694507E1,-1.321109891E0,9.686510563E-1,3.626905680E-1
1.788609637E1,-1.299577594E0,9.142856598E-1,3.329117596E-1
1.789524767E1,-1.289040446E0,7.889092565E-1,2.903051674E-1
1.790439903E1,-1.279724956E0,7.476770282E-1,2.281514555E-1
1.791355033E1,-1.279724956E0,7.124006152E-1,1.517955512E-1
1.792270163E1,-1.293927193E0,6.748335361E-1,8.460234851E-2
1.793185299E1,-1.292858243E0,6.360446811E-1,5.405998230E-2
1.794100429E1,-1.252847672E0,4.981459379E-1,6.429167092E-2
1.795015559E1,-1.218793035E0,3.373403847E-1,6.032116711E-2
1.795930694E1,-1.191915751E0,1.794363856E-1,4.596625641E-2
1.796845825E1,-1.156639338E0,9.468132630E-3,4.214845970E-2
1.797759679E1,-1.147629261E0,-1.878355257E-2,4.337015375E-2
1.798676090E1,-1.170994163E0,3.069507517E-2,5.115845799E-2
1.799591220E1,-1.191152096E0,-3.924693540E-2,3.390202299E-2
1.800505075E1,-1.193748236E0,-2.565558441E-2,5.803049076E-3
1.801421481E1,-1.166412830E0,8.429691941E-2,2.473931387E-2
1.802336616E1,-1.162595034E0,2.579302490E-1,6.688777357E-2
1.803251746E1,-1.214517117E0,4.929537475E-1,7.849387079E-2
1.804166877E1,-1.267508030E0,7.501204610E-1,8.842013776E-2
1.805082012E1,-1.243532300E0,8.255600929E-1,9.147437662E-2
1.805997142E1,-1.189166903E0,7.689039707E-1,5.650337040E-2
1.806912272E1,-1.163358569E0,7.264500856E-1,-4.428642802E-3
1.807827408E1,-1.189319611E0,6.303943992E-1,-7.773031294E-2
1.808742538E1,-1.218793035E0,6.076403260E-1,-1.786728203E-1
1.809657668E1,-1.280030489E0,5.879405141E-1,-2.597627938E-1
1.810572804E1,-1.354859233E0,5.851916671E-1,-3.151971996E-1
1.811487934E1,-1.407392025E0,6.168029904E-1,-3.472666740E-1
1.812403064E1,-1.470462084E0,6.407787800E-1,-3.593308926E-1
1.813318200E1,-1.522689462E0,6.865923405E-1,-3.506263196E-1
1.814233330E1,-1.539945960E0,6.613948941E-1,-3.306210935E-1
1.815148460E1,-1.490925431E0,5.589252710E-1,-3.338280320E-1
1.816063595E1,-1.426481009E0,4.740174711E-1,-3.643703759E-1
1.816977450E1,-1.373490095E0,4.208737612E-1,-4.165978432E-1
1.817893856E1,-1.335922956E0,3.910949528E-1,-4.676035643E-1
1.818808991E1,-1.344780207E0,3.788780272E-1,-5.244123936E-1
1.819722845E1,-1.388303161E0,5.769452453E-1,-5.596888065E-1
1.820639252E1,-1.483137131E0,8.435800672E-1,-5.836645365E-1
1.821554382E1,-1.572473526E0,1.063943267E0,-5.919110179E-1
1.822469517E1,-1.636765242E0,1.305533290E0,-6.029062271E-1
1.823384648E1,-1.642873645E0,1.497186661E0,-6.048914790E-1
1.824299783E1,-1.576902151E0,1.499171853E0,-5.902311802E-1
1.825213637E1,-1.374711752E0,1.338060975E0,-5.460974574E-1
1.826130043E1,-9.697200060E-1,9.956810474E-1,-4.593571424E-1
1.827045174E1,-3.184041381E-1,3.103103936E-1,-2.812951505E-1
1.827959033E1,3.987305462E-1,-5.305208564E-1,-1.068982668E-2
1.828875439E1,1.016602516E0,-1.170841455E0,9.544488788E-2
1.829790569E1,1.672957897E0,-1.390288353E0,-2.916795574E-2
1.830704429E1,2.274184227E0,-1.198787689E0,-3.095468581E-1
1.831620835E1,2.588312626E0,-6.872031689E-1,-6.235223413E-1
1.832535970E1,2.613509893E0,-3.063398898E-1,-7.945595980E-1
1.833449825E1,2.658865452E0,-1.956238300E-1,-8.357917666E-1
1.834366231E1,2.789739370E0,-3.396310806E-1,-8.990144730E-1
1.835281361E1,3.079281092E0,-6.664343476E-1,-9.148964882E-1
1.836195220E1,3.507790327E0,-7.423321605E-1,-7.623373866E-1
1.837111627E1,4.029911995E0,-7.200362086E-1,-5.271611810E-1
1.838026757E1,4.353050232E0,-7.030851841E-1,-3.258870244E-1
1.838940616E1,4.510648727E0,-5.723638535E-1,-2.356343269E-1
1.839857022E1,4.600901604E0,-3.782671690E-1,-2.455606014E-1
1.840772153E1,4.601817608E0,-2.040229887E-1,-2.383831441E-1
1.841686012E1,4.511565208E0,2.290677279E-2,-8.460234851E-2
1.842602418E1,4.426352024E0,3.909422457E-2,2.090624720E-1
1.843517549E1,4.422839642E0,-1.470614821E-1,4.094203711E-1
1.844431408E1,4.439179897E0,-3.976615667E-1,5.648810267E-1
1.845347814E1,4.336404800E0,-7.253811359E-1,6.200099587E-1
1.846262950E1,4.080917835E0,-7.934905887E-1,5.644228458E-1
1.847176804E1,3.919654131E0,-7.485933304E-1,5.560237169E-1
1.848093210E1,3.819169760E0,-8.790091872E-1,5.259394646E-1
1.849008340E1,3.676537037E0,-1.103648305E0,4.940227270E-1
1.849922200E1,3.523366928E0,-1.439919710E0,5.322006941E-1
1.850838606E1,3.386689901E0,-1.885990858E0,5.505260825E-1
1.851753736E1,3.251692772E0,-2.281208992E0,5.028799772E-1
1.852667595E1,3.064162493E0,-2.488591671E0,3.949127495E-1
1.853584002E1,2.805315971E0,-2.441098452E0,2.929012477E-1
1.854499132E1,2.552425385E0,-2.245474577E0,2.133384049E-1
1.855412991E1,2.284568787E0,-1.893015623E0,1.495048702E-1
1.856329398E1,2.004953384E0,-1.479166627E0,8.200624585E-2
1.857244528E1,1.735264301E0,-1.142895222E0,3.344388679E-2
1.858158382E1,1.442363143E0,-8.564078808E-1,2.565558441E-2
1.859074793E1,1.123806238E0,-6.365028620E-1,8.551862091E-3
1.859989924E1,8.174663186E-1,-5.056288242E-1,1.359135192E-2
1.860905054E1,5.493044257E-1,-3.842229247E-1,5.008947477E-2
1.861820189E1,3.341334462E-1,-1.837123185E-1,1.082726792E-1
1.862735319E1,1.805053651E-1,8.994726092E-2,1.594311297E-1
1.863650450E1,7.024743408E-2,3.452814221E-1,1.872246861E-1
1.864565585E1,-6.551336497E-2,5.005893111E-1,1.788255423E-1
1.865480715E1,-2.658712566E-1,4.621059597E-1,1.236965731E-1
1.866395845E1,-5.288410187E-1,2.528907657E-1,5.604523420E-2
1.867310976E1,-8.246437907E-1,5.940489471E-2,1.267508045E-2
1.868226111E1,-1.117697716E0,1.130067464E-2,9.926267900E-3
1.869139965E1,-1.282626510E0,5.573981255E-2,3.374931216E-2
1.870056371E1,-1.105175376E0,6.612421572E-2,1.985253533E-3
1.870971507E1,-8.348754644E-1,1.786728203E-1,-1.328592747E-2
1.871885366E1,-1.128998399E0,6.578825116E-1,1.742441803E-1
1.872801767E1,-2.105132341E0,1.364632726E0,4.062134326E-1
1.873716903E1,-2.777064323E0,1.665933132E0,5.369347334E-1
1.874630762E1,-2.633973360E0,1.218029380E0,7.360709310E-1
1.875547163E1,-2.455605984E0,5.500679612E-1,1.068830013E0
1.876462299E1,-2.056722641E0,1.492147088E0,1.252847672E0
1.877376153E1,-1.899734974E0,1.660435557E0,9.246700406E-1
1.878292559E1,-2.351303816E0,5.586197972E-1,4.118637741E-1
1.879207694E1,-2.218291759E0,1.126707792E0,1.418692768E-1
1.880121548E1,-1.843995214E0,9.813261032E-1,1.024696305E-1
1.881037955E1,-1.908897638E0,6.879667044E-1,1.821851879E-1
1.881953085E1,-2.028012991E0,7.966975570E-1,2.826695740E-1
1.882866944E1,-1.893015623E0,9.767447710E-1,3.494046330E-1
1.883783351E1,-1.784132123E0,7.666133046E-1,3.729222417E-1
1.884698481E1,-1.694643021E0,4.865398407E-1,3.579564989E-1
1.885613616E1,-1.569113851E0,4.654656053E-1,3.112266660E-1
1.886528746E1,-1.479013920E0,4.738647640E-1,2.605263591E-1
1.887443877E1,-1.454121947E0,5.364766121E-1,2.257080674E-1
1.888357736E1,-1.417623758E0,6.624638438E-1,2.052446753E-1
1.889274142E1,-1.370741248E0,7.305732965E-1,2.078407854E-1
1.890189272E1,-1.374100924E0,7.040014863E-1,2.035648525E-1
1.891104408E1,-1.348903418E0,7.780666947E-1,1.829487532E-1
1.892019538E1,-1.329509020E0,8.310576677E-1,1.690519750E-1
1.892934668E1,-1.305227876E0,8.871029615E-1,1.466033459E-1
1.893849804E1,-1.229788303E0,1.017213345E0,1.036913246E-1
1.894764934E1,-1.220014691E0,8.458707333E-1,2.443389036E-2
1.895680064E1,-1.254374862E0,6.771242023E-1,-8.796200156E-2
1.896595194E1,-1.276059866E0,6.598677635E-1,-1.846285909E-1
1.897510330E1,-1.312252641E0,6.094728708E-1,-2.666348219E-1
1.898425460E1,-1.313627005E0,6.358919740E-1,-2.898470163E-1
1.899339314E1,-1.300646544E0,4.764608741E-1,-2.512109280E-1
1.900255726E1,-1.300799251E0,2.513636351E-1,-1.551551968E-1
1.901170856E1,-1.306296825E0,1.336228400E-1,-7.024743408E-2
1.902084710E1,-1.322026134E0,6.215370819E-2,4.886778072E-3
1.903001121E1,-1.343253136E0,-1.527118147E-3,5.360184610E-2
1.903916252E1,-1.340809703E0,-2.428117767E-2,9.880454093E-2
1.904831382E1,-1.323095202E0,-1.374406274E-3,8.918370306E-2
1.905746517E1,-1.333937645E0,3.649812192E-2,7.498150319E-2
1.906661648E1,-1.378529549E0,8.338065445E-2,5.207473040E-2
1.907575502E1,-1.405864954E0,1.731752008E-1,4.566083103E-2
1.908491908E1,-1.435338378E0,3.020639718E-1,5.085303262E-2
1.909407043E1,-1.466644287E0,4.537068009E-1,2.305948362E-2
1.910320898E1,-1.485275149E0,5.076140761E-1,-6.749862432E-2
1.911237304E1,-1.511083364E0,4.639385045E-1,-1.433963925E-1
1.912152439E1,-1.557813168E0,4.636330605E-1,-1.803526580E-1
1.913067569E1,-1.554148197E0,4.718795121E-1,-2.084516287E-1
1.913982700E1,-1.527270913E0,4.448495209E-1,-2.246390730E-1
1.914897835E1,-1.522842169E0,3.712424338E-1,-2.429644912E-1
1.915811689E1,-1.550024867E0,3.031329513E-1,-2.321219593E-1
1.916728095E1,-1.580109119E0,2.803788781E-1,-2.066190839E-1
1.917643226E1,-1.626075387E0,3.724641204E-1,-1.808107942E-1
1.918558361E1,-1.700140595E0,5.170822144E-1,-1.594311297E-1
1.919473491E1,-1.754658699E0,5.387672782E-1,-1.615691036E-1
1.920388621E1,-1.757254839E0,4.338542521E-1,-1.780619770E-1
1.921303757E1,-1.773136854E0,3.588727713E-1,-2.165453583E-1
1.922218887E1,-1.809024215E0,3.374931216E-1,-2.730487287E-1
1.923134017E1,-1.808413267E0,3.452814221E-1,-3.113794029E-1
1.924049153E1,-1.743816257E0,3.681881726E-1,-3.165715933E-1
1.924964283E1,-1.643026471E0,3.846810758E-1,-2.901524603E-1
1.925879413E1,-1.557355046E0,3.813214004E-1,-2.803788781E-1
1.926793272E1,-1.463742733E0,4.825693369E-1,-3.000787199E-1
1.927709679E1,-1.369214177E0,5.500679612E-1,-3.481829464E-1
1.928624814E1,-1.255749226E0,4.981459379E-1,-4.120164812E-1
1.929538668E1,-1.114032745E0,4.715740979E-1,-4.844018817E-1
1.930455075E1,-9.181034565E-1,4.103366435E-1,-5.042544007E-1
1.931370205E1,-6.287145615E-1,1.638597846E-1,-4.752391577E-1
1.932284064E1,-1.522536725E-1,-2.212794125E-1,-4.001049399E-1
1.933200470E1,5.227325559E-1,-7.244648337E-1,-2.289150059E-1
1.934115601E1,1.276365399E0,-1.026223421E0,-1.476723254E-1
1.935029460E1,1.920961976E0,-9.710944295E-1,-1.907370538E-1
1.935945866E1,2.167591572E0,-1.062874198E0,-3.397837877E-1
1.936860996E1,2.228523493E0,-1.111436605E0,-4.847072959E-1
1.937774856E1,2.277544022E0,-1.261705041E0,-7.119424939E-1
1.938691262E1,2.422772884E0,-1.770235300E0,-1.057376623E0
1.939606392E1,2.680245161E0,-1.829945683E0,-1.328440070E0
1.940520246E1,2.971771955E0,-1.021183848E0,-1.271478534E0
1.941436658E1,3.359812737E0,-1.928750277E-1,-1.040883780E0
1.942351788E1,3.798706293E0,2.768665254E-1,-8.458707333E-1
1.943265642E1,4.196367741E0,5.031854510E-1,-7.492041588E-1
1.944182054E1,4.414134979E0,7.380561829E-1,-7.062921524E-1
1.945097184E1,4.378705978E0,1.046534061E0,-5.564818382E-1
1.946011038E1,4.146430969E0,1.381736517E0,-2.591519356E-1
1.946927444E1,4.022428989E0,1.591257095E0,6.154286116E-2
1.947842580E1,4.179874897E0,1.545290828E0,3.894151151E-1
1.948756434E1,4.434751034E0,1.224443316E0,7.145385742E-1
1.949672840E1,4.486520290E0,6.313106418E-1,9.454388618E-1
1.950587976E1,4.330296040E0,-1.262926757E-1,9.810206890E-1
1.951501830E1,4.147042274E0,-7.388197780E-1,9.709417224E-1
1.952418236E1,4.076488972E0,-1.324164152E0,9.599464536E-1
1.953333371E1,4.048695564E0,-1.843231559E0,8.904625773E-1
1.954247226E1,3.950349331E0,-2.222414970E0,7.453863621E-1
1.955163632E1,3.768927574E0,-2.547538519E0,6.044333577E-1
1.956078762E1,3.572234869E0,-2.834484100E0,4.798205197E-1
1.956992621E1,3.385315418E0,-2.896026850E0,3.637595475E-1
1.957909028E1,3.207864285E0,-2.727432966E0,2.770192325E-1
1.958824158E1,2.982767105E0,-2.461714506E0,2.122694254E-1
1.959738017E1,2.728043795E0,-2.092762709E0,1.858502775E-1
1.960654424E1,2.452093601E0,-1.689450860E0,1.835595965E-1
1.961569554E1,2.106659412E0,-1.299119353E0,1.704263836E-1
1.962483413E1,1.702431321E0,-9.599464536E-1,1.349972486E-1
1.963399819E1,1.284000993E0,-6.649072170E-1,6.948387623E-2
1.964314950E1,9.182561636E-1,-3.347443044E-1,4.046862945E-2
1.965230080E1,6.533011198E-1,-4.031591862E-2,1.079672500E-1
1.966145215E1,4.734066129E-1,5.680879578E-2,2.018850148E-1
1.967060345E1,3.489464819E-1,-5.879404768E-2,2.811424434E-1
1.967975476E1,2.440334857E-1,-2.130329758E-1,3.469612300E-1
1.968890611E1,1.014006436E-1,-2.202104330E-1,4.059080184E-1
1.969805741E1,-9.009996802E-2,-1.156028435E-1,4.337015450E-1
1.970719595E1,-3.367295563E-1,3.588727489E-2,4.306473136E-1
1.971636007E1,-6.322268844E-1,1.420219839E-1,4.272876680E-1
1.972551137E1,-9.924740791E-1,1.595838517E-1,4.346178174E-1
1.973464991E1,-1.423884988E0,2.084516287E-1,4.741701782E-1
1.974381398E1,-1.943257809E0,4.315635860E-1,5.448757410E-1
1.975296533E1,-2.370545387E0,6.328377724E-1,5.917583108E-1
1.976210387E1,-2.103299856E0,6.843016148E-1,5.410579443E-1
1.977126793E1,-1.939287305E0,1.021336675E0,7.105680704E-1
1.978041929E1,-2.107575655E0,1.578429341E0,1.138924718E0
1.978955783E1,-2.212946892E0,1.302173615E0,1.586523056E0
1.979872189E1,-2.487370014E0,9.709417224E-1,1.587286592E0
1.980787325E1,-2.569834471E0,1.512610555E0,8.370134830E-1
1.981701179E1,-2.214932203E0,1.327065706E0,2.351761907E-1
1.982617585E1,-1.773747683E0,-4.828747511E-1,1.027750522E-1
1.983532715E1,-1.482984424E0,-8.270871639E-1,4.140017331E-1
1.984446575E1,-1.532921195E0,-8.506047726E-2,6.354338527E-1
1.985362981E1,-1.660282850E0,2.800734639E-1,5.451811552E-1
1.986278111E1,-1.710677743E0,5.755708218E-1,4.566083252E-1
1.987191970E1,-1.678913713E0,7.359182239E-1,4.866925478E-1
1.988108377E1,-1.562852740E0,8.930587173E-1,5.703786016E-1
1.989023507E1,-1.509250879E0,9.433009028E-1,5.865660906E-1
1.989938642E1,-1.470309377E0,8.509102464E-1,5.002838969E-1
1.990853773E1,-1.382347345E0,7.667660117E-1,3.946073353E-1
1.991768903E1,-1.328287363E0,6.762079000E-1,3.310792148E-1
1.992684033E1,-1.322942495E0,7.140804529E-1,2.950392365E-1
1.993599168E1,-1.333479524E0,8.102889061E-1,2.515163720E-1
1.994514298E1,-1.305227876E0,8.463288546E-1,2.021904439E-1
1.995429429E1,-1.270714998E0,8.776348233E-1,1.719534993E-1
1.996344564E1,-1.239256382E0,7.944068313E-1,1.563768983E-1
1.997259694E1,-1.184890985E0,6.021426916E-1,1.073564067E-1
1.998174825E1,-1.159846187E0,4.567610323E-1,3.924693540E-2
1.999089955E1,-1.142895222E0,3.816268146E-1,-2.702999115E-2
2.000005090E1,-1.084712029E0,2.979407609E-1,-5.909947306E-2
2.000920220E1,-1.028361320E0,2.840439677E-1,-8.979454637E-2
2.001835351E1,-9.998042583E-1,2.486148328E-1,-7.238540053E-2
2.002750486E1,-1.004843712E0,2.415900975E-1,-4.077405483E-2
2.003665616E1,-9.973608851E-1,2.910687327E-1,6.872031838E-3
2.004580746E1,-9.866710305E-1,3.547495604E-1,8.200624585E-2
2.005495877E1,-9.538379908E-1,4.706578255E-1,1.322484314E-1
2.006409736E1,-9.669712186E-1,5.053234100E-1,8.887827396E-2
2.007326142E1,-9.865183234E-1,5.039489865E-1,5.696150661E-2
2.008241272E1,-9.802571535E-1,5.564818382E-1,5.390727147E-2
2.009156408E1,-1.033400893E0,6.329904795E-1,6.566607952E-2
2.010071538E1,-1.055849433E0,8.231166601E-1,2.321219631E-2
2.010986668E1,-1.037676811E0,8.367080092E-1,-5.299099907E-2
2.011901799E1,-1.059361815E0,7.172874212E-1,-9.208522737E-2
2.012816934E1,-1.135259628E0,7.291989326E-1,-7.192726433E-2
2.013732064E1,-1.213753462E0,8.105943203E-1,-4.810422286E-2
2.014647194E1,-1.253458619E0,7.664605975E-1,-6.184828654E-2
2.015562330E1,-1.283848286E0,6.507050395E-1,-7.711946964E-2
2.016477460E1,-1.332105160E0,4.691306949E-1,-7.681404054E-2
2.017391314E1,-1.362800241E0,3.202366829E-1,-8.719844371E-2
2.018307726E1,-1.377918720E0,2.423536479E-1,-1.233911440E-1
2.019222856E1,-1.415485859E0,1.771457046E-1,-1.498102844E-1
2.020137986E1,-1.543458343E0,8.536590636E-2,-1.676775664E-1
2.021053116E1,-1.647760510E0,1.181989461E-1,-1.849340051E-1
2.021968252E1,-1.670514584E0,1.030804738E-1,-1.911951900E-1
2.022883382E1,-1.659366608E0,1.024696305E-1,-1.918060333E-1
2.023798512E1,-1.706249118E0,1.240019947E-1,-2.379250079E-1
2.024713648E1,-1.771762490E0,1.759240031E-1,-3.122956753E-1
2.025628778E1,-1.801541328E0,2.461714447E-1,-3.822376728E-1
2.026543908E1,-1.821546555E0,3.501681983E-1,-4.202629030E-1
2.027459038E1,-1.861404300E0,4.868452549E-1,-4.443913698E-1
2.028374174E1,-1.887670755E0,6.036698222E-1,-4.660764635E-1
2.029289304E1,-1.911799192E0,7.643226385E-1,-4.798205197E-1
2.030204434E1,-1.970440507E0,9.126058221E-1,-4.869979918E-1
2.031118293E1,-1.996859670E0,1.044396043E0,-5.037962794E-1
2.032034700E1,-1.966470003E0,1.101052165E0,-5.036435723E-1
2.032949830E1,-1.828265905E0,1.002553105E0,-4.873034060E-1
2.033863689E1,-1.519635320E0,7.889092565E-1,-4.080459774E-1
2.034780095E1,-1.111436605E0,4.882196784E-1,-2.632751763E-1
2.035695226E1,-5.346440673E-1,1.313321572E-2,-8.964183182E-2
2.036609085E1,2.554868758E-1,-5.801522136E-1,-2.993151546E-2
2.037525491E1,1.146560311E0,-7.539382577E-1,-1.658450365E-1
2.038440621E1,1.812383771E0,-6.867450476E-1,-3.578037918E-1
2.039354481E1,2.174158096E0,-9.304730892E-1,-5.548020005E-1
2.040270887E1,2.252193928E0,-1.180920482E0,-8.483141065E-1
2.041186017E1,2.389939785E0,-1.391204596E0,-1.204438090E0
2.042099871E1,2.695516348E0,-1.401894450E0,-1.461146593E0
2.043016283E1,2.995747566E0,-7.740961909E-1,-1.464964390E0
2.043931413E1,3.204046488E0,3.985778242E-2,-1.258345366E0
2.044845267E1,3.642024040E0,4.373666346E-1,-1.021642089E0
2.045761674E1,4.119706631E0,5.343386531E-1,-7.875348330E-1
2.046676809E1,4.541954994E0,6.502469182E-1,-5.758762360E-1
2.047590663E1,4.734371662E0,6.838434935E-1,-3.779617548E-1
2.048507069E1,4.764455795E0,8.938222528E-1,-1.812689304E-1
2.049422205E1,4.644271851E0,1.025459886E0,1.275143623E-1
2.050336059E1,4.453992844E0,9.000834227E-1,4.808894992E-1
2.051252465E1,4.348468781E0,6.132906675E-1,6.826218367E-1
2.052167595E1,4.294408798E0,4.240806997E-1,7.195780873E-1
2.053081455E1,4.209653854E0,-3.329117596E-2,7.339329720E-1
2.053997861E1,4.042129040E0,-4.973823726E-1,6.525375843E-1
2.054912991E1,3.839327812E0,-7.646280527E-1,6.421532035E-1
2.055826851E1,3.720059872E0,-1.023321867E0,6.664343476E-1
2.056743257E1,3.611787081E0,-1.402505279E0,6.867450476E-1
2.057658387E1,3.390049458E0,-1.904927135E0,6.720846891E-1
2.058572246E1,3.200228691E0,-2.349623919E0,5.838172436E-1
2.059488653E1,3.056068897E0,-2.665279388E0,4.993676245E-1
2.060403783E1,2.843188524E0,-2.820739985E0,4.417952895E-1
2.061317642E1,2.578080893E0,-2.946116447E0,3.898732662E-1
2.062234049E1,2.347638845E0,-2.987653971E0,3.297048211E-1
2.063149179E1,2.142699480E0,-2.769581556E0,2.463241518E-1
2.064063033E1,1.931193590E0,-2.369018316E0,1.522536725E-1
2.064979444E1,1.663031697E0,-1.914242625E0,6.093201414E-2
2.065894575E1,1.375017166E0,-1.454427361E0,1.221694518E-2
2.066808429E1,1.112352848E0,-9.564340711E-1,3.924693540E-2
2.067724835E1,8.634325862E-1,-3.875826001E-1,1.342336833E-1
2.068639970E1,6.691831946E-1,5.176930502E-2,2.515163720E-1
2.069553825E1,5.502206683E-1,2.809897363E-1,3.457395434E-1
2.070470231E1,4.799732268E-1,3.232909143E-1,3.984251320E-1
2.071385366E1,4.556920528E-1,2.112004459E-1,4.172086716E-1
2.072299220E1,4.210264683E-1,9.712471068E-2,3.773508966E-1
2.073215627E1,2.959555089E-1,1.437018216E-1,2.970244884E-1
2.074130757E1,1.482831687E-1,2.130329758E-1,2.110477239E-1
2.075044616E1,7.803573459E-2,1.035386100E-1,1.447708011E-1
2.075961023E1,-7.513421029E-2,-7.559234649E-2,1.479777545E-1
2.076876153E1,-4.453076422E-1,-1.343863904E-1,2.212794125E-1
2.077790012E1,-9.287932515E-1,-1.374406368E-2,2.964136302E-1
2.078706418E1,-1.498561025E0,1.994416267E-1,3.484883606E-1
2.079621548E1,-2.056875467E0,5.532749295E-1,4.688252807E-1
2.080535408E1,-2.287317514E0,5.546492934E-1,5.948125124E-1
2.081451814E1,-2.095206022E0,6.810947061E-1,8.183826208E-1
2.082366944E1,-1.650356531E0,1.317444801E0,1.119224906E0
2.083280804E1,-1.541931152E0,1.439614296E0,1.183363795E0
2.084197210E1,-1.880035162E0,1.269951463E0,9.000834227E-1
2.085112340E1,-2.374363184E0,1.239409089E0,5.137225389E-1
2.086026194E1,-2.069550514E0,9.086353183E-1,2.571666837E-1
2.086942601E1,-1.503447771E0,3.374931216E-1,2.108950168E-1
2.087857736E1,-1.542847514E0,1.401894391E-1,3.115321100E-1
2.088771590E1,-1.658908486E0,7.595885396E-1,3.689517379E-1
2.089687996E1,-1.543305635E0,8.999307156E-1,4.569137394E-1
2.090603127E1,-1.431673288E0,5.222744346E-1,6.192464232E-1
2.091516986E1,-1.429535270E0,4.107947946E-1,7.762341499E-1
2.092433392E1,-1.382347345E0,4.381301999E-1,7.838697433E-1
2.093348523E1,-1.265370131E0,3.261924386E-1,6.389462352E-1
2.094263658E1,-1.237729311E0,1.197260618E-1,4.902049303E-1
2.095178788E1,-1.219251156E0,9.391776472E-2,3.981196880E-1
2.096093918E1,-1.183669329E0,1.957765520E-1,3.750602305E-1
2.097007778E1,-1.186876178E0,3.362714052E-1,3.988832533E-1
2.097924184E1,-1.241852522E0,4.876088202E-1,4.239279926E-1
2.098839314E1,-1.237729311E0,6.346703172E-1,4.526378214E-1
2.099753174E1,-1.167939901E0,8.796200752E-1,4.731011987E-1
2.100669575E1,-1.151599765E0,1.038287640E0,3.796415627E-1
2.101584710E1,-1.133121610E0,1.220625520E0,1.440072358E-1
2.102498564E1,-1.060430884E0,1.570793748E0,-1.328592747E-2
2.103414970E1,-9.283351302E-1,1.992125630E0,-7.925742865E-2
2.104330106E1,-9.588775039E-1,2.399255276E0,4.291202128E-2
2.105243960E1,-1.120293856E0,1.975938201E0,3.603998944E-2
2.106160366E1,-1.083795786E0,6.423059106E-1,-1.319430023E-1
2.107075496E1,-1.001789451E0,-2.040229887E-1,-1.038440317E-1
2.107989356E1,-1.160762548E0,-7.050704360E-1,-9.666658193E-2
2.108905762E1,-1.187028885E0,-7.560762167E-1,-3.342861533E-1
2.109820892E1,-1.020725727E0,-4.431696832E-1,-3.852919042E-1
2.110734752E1,-9.900307059E-1,-2.220429778E-1,-2.338017821E-1
2.111651158E1,-1.060125470E0,1.582094431E-1,-2.174616307E-1
2.112566288E1,-1.094027400E0,4.724903405E-1,-2.777827978E-1
2.113480148E1,-1.136175871E0,6.542174220E-1,-3.191677034E-1
2.114396554E1,-1.233300567E0,7.728744745E-1,-2.979407609E-1
2.115311684E1,-1.296370625E0,8.953493834E-1,-2.289150059E-1
2.116225538E1,-1.337908268E0,9.527690411E-1,-1.498102844E-1
2.117141944E1,-1.380667567E0,8.017370105E-1,-7.971556485E-2
2.118057080E1,-1.447402596E0,6.662816405E-1,-2.886253223E-2
2.118970934E1,-1.492758036E0,4.897467792E-1,-1.511846948E-2
2.119887340E1,-1.494132400E0,2.179197669E-1,-1.359135192E-2
2.120802476E1,-1.500699043E0,-2.840439789E-2,2.015795931E-2
2.121717606E1,-1.527881742E0,-1.681357026E-1,3.710897267E-2
2.122632736E1,-1.532615781E0,-1.766875684E-1,2.550287358E-2
2.123547866E1,-1.547581553E0,-2.304421216E-1,1.007897966E-2
2.124463002E1,-1.552468300E0,-2.907632887E-1,-1.924168877E-2
2.125378132E1,-1.546207070E0,-2.257080674E-1,-4.489727318E-2
2.126293262E1,-1.578123927E0,-1.673721522E-1,-4.871506989E-2
2.127207121E1,-1.656159639E0,-1.194206402E-1,-5.360184610E-2
2.128123528E1,-1.710830450E0,-2.443389036E-3,-4.245388508E-2
2.129038658E1,-1.710372329E0,1.446180940E-1,-2.489202656E-2
2.129953788E1,-1.723658204E0,3.115321100E-1,-2.015795931E-2
2.130868924E1,-1.772526026E0,4.868452549E-1,-2.000524849E-2
2.131784054E1,-1.802457571E0,6.041279435E-1,-3.374931216E-2
2.132697908E1,-1.820172071E0,7.156075835E-1,-3.878879920E-2
2.133614314E1,-1.905232549E0,7.078192830E-1,-1.068982668E-2
2.134529450E1,-1.986169815E0,6.577298045E-1,7.635590620E-3
2.135444580E1,-1.988918662E0,6.733064055E-1,2.748812549E-3
2.136359710E1,-2.008771181E0,6.455128193E-1,-3.527642787E-2
2.137274845E1,-2.034884930E0,5.829010010E-1,-1.319430023E-1
2.138188700E1,-2.026027679E0,6.276455522E-1,-2.808370292E-1
2.139105106E1,-1.989834905E0,7.168292403E-1,-4.450022280E-1
2.140020241E1,-2.013199806E0,7.921161652E-1,-6.068767309E-1
2.140935371E1,-2.045422077E0,9.631534219E-1,-7.800519466E-1
2.141850502E1,-2.038702726E0,1.228413820E0,-8.828269839E-1
2.142765632E1,-2.003273487E0,1.464811683E0,-8.680139780E-1
2.143679491E1,-1.862320542E0,1.662420869E0,-7.890619636E-1
2.144595898E1,-1.551093936E0,1.679524541E0,-6.849125028E-1
2.145511028E1,-1.043632507E0,1.324011445E0,-5.851916671E-1
2.146424887E1,-2.970244884E-1,6.560499668E-1,-5.001311898E-1
2.147341293E1,6.821636558E-1,3.878879920E-2,-4.616478086E-1
2.148256424E1,1.859724522E0,-2.719797492E-1,-4.555393457E-1
2.149171554E1,3.019265175E0,-6.687250137E-1,-3.999522328E-1
2.150086689E1,3.359049082E0,-1.209630251E0,-6.128324866E-1
2.151001819E1,3.503819942E0,-1.293010950E0,-8.620582223E-1
2.151915679E1,3.388522387E0,-8.293778896E-1,-9.370396733E-1
2.152832085E1,3.396616220E0,-7.160657048E-1,-9.304730892E-1
2.153747215E1,3.705857515E0,-5.743491650E-1,-8.623636365E-1
2.154661069E1,4.257299900E0,-1.783674061E-1,-7.776085734E-1
2.155577476E1,4.963439465E0,1.313321572E-2,-5.015056133E-1
2.156492611E1,5.507246017E0,-2.122694254E-1,6.429167092E-2
2.157406465E1,5.935755730E0,-8.194515705E-1,7.412631512E-1
2.158322871E1,6.363806725E0,-1.309045672E0,1.421288848E0
2.159238007E1,6.624638557E0,-2.576095581E0,2.156138182E0
2.160151866E1,5.653238773E0,-4.568679333E0,1.351957679E0
2.161068267E1,4.806604385E0,-3.367295504E0,-3.628432751E-1
2.161983398E1,4.904798031E0,-1.798334360E0,-1.232842445E0
2.162897257E1,5.220300674E0,-7.389724851E-1,-9.437590241E-1
2.163813663E1,5.186093330E0,1.948602796E-1,-3.316900730E-1
2.164728793E1,4.837146759E0,9.768974781E-1,2.515163720E-1
2.165642653E1,4.555851460E0,8.742751479E-1,8.066238165E-1
2.166559059E1,4.437652588E0,2.137965336E-2,9.333745837E-1
2.167474189E1,4.382829189E0,-1.203521848E0,7.146912813E-1
2.168388049E1,4.152234077E0,-2.164537191E0,5.409052372E-1
2.169304455E1,3.724793911E0,-2.569223642E0,4.318690002E-1
2.170219585E1,3.285289288E0,-2.761640549E0,2.646495700E-1
2.171133439E1,2.813409805E0,-2.794320822E0,-1.832541823E-2
2.172049851E1,2.305032015E0,-2.724073410E0,-3.584146202E-1
2.172964981E1,1.802457571E0,-2.670929670E0,-5.688515306E-1
2.173878835E1,1.336075664E0,-2.493783951E0,-5.693096519E-1
2.174795241E1,7.973083854E-1,-2.179197550E0,-4.677563012E-1
2.175710377E1,2.035648525E-1,-1.878202558E0,-3.274141252E-1
2.176624231E1,-3.469612300E-1,-1.496728539E0,-2.186833173E-1
2.177540637E1,-7.119424939E-1,-9.851438999E-1,-1.073564067E-1
2.178455767E1,-8.538117409E-1,-5.288410187E-1,-1.771457121E-2
2.179369627E1,-8.629744649E-1,-2.339545041E-1,5.100574717E-2
2.180286033E1,-8.536590338E-1,-4.123218823E-3,1.369825006E-1
2.181201163E1,-8.735115528E-1,1.663031727E-1,2.716743052E-1
2.182115022E1,-9.646805525E-1,2.777827978E-1,4.388937652E-1
2.183031429E1,-1.132052660E0,3.245126009E-1,5.879405141E-1
2.183946559E1,-1.330272675E0,2.521272004E-1,6.702521443E-1
2.184860418E1,-1.489551067E0,1.447708011E-1,6.942279339E-1
2.185776825E1,-1.638903141E0,9.559759498E-2,6.626165509E-1
2.186691955E1,-1.778787255E0,-1.985253533E-3,5.957288146E-1
2.187605809E1,-1.637528777E0,-3.095468581E-1,4.902049303E-1
2.188522220E1,-8.519791961E-1,-8.867974877E-1,2.896943092E-1
2.189437351E1,2.415900975E-1,-1.267508030E0,4.672981426E-2
2.190351205E1,2.386885732E-1,-1.374559045E0,-4.107947648E-2
2.191267611E1,-7.768449783E-1,-1.515206575E0,3.054236295E-3
2.192182746E1,-1.308892965E0,-1.474738002E0,9.025268257E-2
2.193096601E1,-1.227192163E0,-9.886562824E-1,1.600419879E-1
2.194013007E1,-7.290462255E-1,-3.156553209E-1,2.095206082E-1
2.194928137E1,-1.812689304E-1,-4.520269856E-2,1.284306347E-1
2.195841996E1,-3.329117596E-2,3.620797098E-1,1.801999472E-2
2.196758403E1,-1.896680743E-1,8.160919547E-1,8.551862091E-3
2.197673533E1,-3.663556576E-1,4.504998624E-1,1.432436854E-1
2.198587392E1,-6.155813336E-1,-3.429907262E-1,2.654131353E-1
2.199503798E1,-9.119949341E-1,-5.833591223E-1,2.774773538E-1
2.200418929E1,-1.108993173E0,-3.321481943E-1,3.040492237E-1
2.201332788E1,-1.155417562E0,-6.917845458E-2,3.926220834E-1
2.202249194E1,-1.241241574E0,1.852394342E-1,4.656183124E-1
2.203164325E1,-1.400214672E0,4.411844313E-1,4.906630516E-1
2.204078179E1,-1.537044406E0,6.560499668E-1,4.969242513E-1
2.204994590E1,-1.663947940E0,8.922951221E-1,5.567872524E-1
2.205909720E1,-1.729308605E0,1.121057391E0,6.765133142E-1
2.206823575E1,-1.664558768E0,1.202911019E0,7.995990515E-1
2.207739981E1,-1.752215385E0,1.052947998E0,8.419002295E-1
2.208655116E1,-2.201035500E0,8.272398710E-1,7.685985565E-1
2.209568970E1,-2.592435837E0,7.556180358E-1,6.334486008E-1
2.210485377E1,-2.639318228E0,8.826742768E-1,4.810422063E-1
2.211400507E1,-2.498212576E0,1.307824016E0,5.158604980E-1
2.212314366E1,-2.361688137E0,1.694184899E0,7.882983685E-1
2.213230772E1,-2.405516624E0,1.766417503E0,1.087766290E0
2.214145903E1,-2.489355326E0,1.896986127E0,1.253153205E0
2.215059762E1,-2.557617426E0,2.297091007E0,1.267660737E0
2.215976168E1,-2.510582209E0,2.467975616E0,1.160457134E0
2.216891299E1,-2.339239597E0,2.192788839E0,1.010341406E0
2.217805158E1,-2.198897362E0,1.767944694E0,9.194778204E-1
2.218721564E1,-2.125442982E0,1.341267824E0,9.074136019E-1
2.219636694E1,-2.044047594E0,9.177979827E-1,9.272661209E-1
2.220550548E1,-1.918671250E0,5.306735635E-1,9.277243018E-1
2.221466955E1,-1.816354275E0,2.032594234E-1,8.683193922E-1
2.222382090E1,-1.812231064E0,-4.856235534E-2,7.207997441E-1
2.223295944E1,-1.840177417E0,-2.006633282E-1,5.070032477E-1
2.224212351E1,-1.804137349E0,-2.857238054E-1,3.191677034E-1
2.225127486E1,-1.729155898E0,-3.431434333E-1,2.073826492E-1
2.226041340E1,-1.698155403E0,-3.516952991E-1,1.783674061E-1
2.226957746E1,-1.738776684E0,-3.034383655E-1,2.017323077E-1
2.227872877E1,-1.809940457E0,-2.215848416E-1,2.354816198E-1
2.228788012E1,-1.868887186E0,-1.076618284E-1,2.570139766E-1
2.229703142E1,-1.886907220E0,5.070032179E-2,2.279987335E-1
2.230618273E1,-1.874690294E0,2.324273884E-1,1.601946950E-1
2.231532132E1,-1.848423839E0,4.245388508E-1,1.241547018E-1
2.232448538E1,-1.816506982E0,5.777087808E-1,1.389677525E-1
2.233363668E1,-1.795738220E0,7.157602906E-1,1.560714692E-1
2.234278798E1,-1.748703003E0,7.766922712E-1,1.612636745E-1
2.235193934E1,-1.629129648E0,7.004891038E-1,1.615691036E-1
2.236109064E1,-1.493063450E0,5.126535892E-1,1.614163816E-1
2.237022918E1,-1.423121452E0,4.060607255E-1,1.516428292E-1
2.237939330E1,-1.394106150E0,3.869717419E-1,1.670667231E-1
2.238854460E1,-1.393648028E0,4.194993675E-1,1.609582454E-1
2.239769590E1,-1.364480019E0,4.144598544E-1,1.215586066E-1
2.240684720E1,-1.301257372E0,4.022429287E-1,6.215370819E-2
2.241599856E1,-1.190388560E0,3.762819171E-1,-1.649287529E-2
2.242514986E1,-1.025918007E0,2.738122940E-1,-9.040539712E-2
2.243430116E1,-8.947384953E-1,1.815743446E-1,-1.430909634E-1
2.244345246E1,-8.177717924E-1,1.979145110E-1,-1.693574041E-1
2.245260382E1,-7.605048418E-1,2.716743052E-1,-1.488940120E-1
2.246175512E1,-6.757497787E-1,3.581092060E-1,-9.773556143E-2
2.247090642E1,-5.836645365E-1,4.291202128E-1,-2.199050039E-2
2.248005778E1,-4.572191834E-1,5.236487985E-1,7.834116369E-2
2.248920908E1,-2.790044844E-1,6.042806506E-1,1.522536725E-1
2.249836038E1,-1.753131598E-1,6.528429985E-1,1.852394342E-1
2.250749898E1,-1.272089481E-1,6.313106418E-1,2.021904439E-1
2.251666304E1,-1.278197914E-1,5.824428797E-1,1.869192570E-1
2.252581434E1,-1.571404636E-1,5.563291311E-1,1.519482583E-1
2.253496564E1,-2.038702667E-1,4.993676245E-1,1.070509851E-1
2.254411700E1,-2.359397560E-1,4.595098495E-1,5.436540768E-2
2.255326830E1,-2.476985604E-1,4.989095032E-1,-9.315420873E-3
2.256241960E1,-2.560977042E-1,5.745018721E-1,-8.215895295E-2
2.257157090E1,-2.443388999E-1,6.581879258E-1,-1.437018216E-1
2.258072226E1,-2.098260373E-1,7.580614686E-1,-1.759240031E-1
2.258987356E1,-1.737860441E-1,7.846332788E-1,-1.688992679E-1
2.259902486E1,-1.696628332E-1,7.107207775E-1,-1.401894391E-1
2.260817616E1,-1.939440072E-1,5.992411375E-1,-1.133121699E-1
2.261732752E1,-2.547233105E-1,4.918847680E-1,-9.972081333E-2
2.262647882E1,-3.494046330E-1,4.062134326E-1,-1.021642014E-1
2.263563012E1,-4.482091665E-1,3.530697227E-1,-1.131594554E-1
2.264478148E1,-5.329642296E-1,3.226800561E-1,-1.351499557E-1
2.265393278E1,-5.835118294E-1,3.356605768E-1,-1.568350345E-1
2.266308408E1,-6.213843822E-1,3.776563108E-1,-1.797417998E-1
2.267223538E1,-6.644490957E-1,3.920112252E-1,-2.093679011E-1
2.268138674E1,-6.801784039E-1,3.840702176E-1,-2.516690791E-1
2.269053804E1,-6.765133142E-1,4.054498672E-1,-3.048127890E-1
2.269968934E1,-6.795675755E-1,4.969242513E-1,-3.457395434E-1
2.270884069E1,-6.737645268E-1,6.053496599E-1,-3.652866483E-1
2.271799200E1,-6.465818286E-1,6.777350307E-1,-3.614688516E-1
2.272714330E1,-6.329904795E-1,7.272136807E-1,-3.455868363E-1
2.273629460E1,-6.372663975E-1,7.814263701E-1,-3.353551328E-1
2.274544595E1,-6.305471063E-1,8.683193922E-1,-3.268032968E-1
2.275459726E1,-6.206207871E-1,9.912523627E-1,-3.115321100E-1
2.276374856E1,-6.082511544E-1,1.097539783E0,-2.889307439E-1
2.277289986E1,-5.758762360E-1,1.128234863E0,-2.770192325E-1
2.278205121E1,-5.205945969E-1,1.082574010E0,-2.699944973E-1
2.279120252E1,-4.737120569E-1,1.014617324E0,-2.725905776E-1
2.280035382E1,-4.228590131E-1,9.103151560E-1,-2.739650011E-1
2.280950517E1,-3.588727713E-1,7.779139876E-1,-2.753393948E-1
2.281865648E1,-3.139754832E-1,6.508577466E-1,-2.773246467E-1
2.282780778E1,-2.826695740E-1,5.370874405E-1,-2.806843221E-1
2.283695908E1,-2.428117841E-1,4.280512035E-1,-2.901524603E-1
2.284611043E1,-2.049392611E-1,3.225273490E-1,-2.976353168E-1
2.285526174E1,-1.968455315E-1,2.454078794E-1,-3.049654961E-1
2.286441304E1,-2.171562016E-1,2.333436459E-1,-3.043546379E-1
2.287356439E1,-2.498365343E-1,3.020639718E-1,-2.954973578E-1
2.288271569E1,-3.025220931E-1,4.121691883E-1,-2.855710983E-1
2.289186700E1,-3.584146202E-1,5.169295073E-1,-2.677038014E-1
2.290101830E1,-3.860554695E-1,5.682406425E-1,-2.344126403E-1
2.291016965E1,-3.773508966E-1,5.263976455E-1,-1.823379099E-1
2.291932095E1,-3.350497186E-1,3.855973184E-1,-1.325538605E-1
2.292847226E1,-2.829749882E-1,1.954711229E-1,-8.811471611E-2
2.293762356E1,-2.321219593E-1,7.177455351E-3,-4.734066129E-2
2.294677491E1,-1.574458778E-1,-1.644706279E-1,-1.359135192E-2
2.295592621E1,-4.153761268E-2,-3.122956753E-1,6.261184346E-3
2.296507752E1,1.012479365E-1,-4.375193417E-1,7.330167107E-3
2.297421611E1,2.478512824E-1,-5.632011890E-1,-7.482878864E-3
2.298338017E1,3.761292100E-1,-6.752916574E-1,-4.367557913E-2
2.299253148E1,4.524851143E-1,-7.259919643E-1,-9.498675168E-2
2.300167002E1,4.550811946E-1,-6.424586177E-1,-1.450762302E-1
2.301083413E1,3.935383558E-1,-4.243861437E-1,-1.762294322E-1
2.301998543E1,3.074088693E-1,-9.987352788E-2,-1.771457046E-1
2.302913674E1,2.619007528E-1,2.249445021E-1,-1.623326540E-1
2.303828804E1,2.481566966E-1,3.804051280E-1,-1.522536725E-1
2.304743939E1,2.269297540E-1,3.593308926E-1,-1.695101112E-1
2.305657793E1,1.915006191E-1,2.704526186E-1,-2.087570578E-1
2.306574200E1,1.330119967E-1,2.075353563E-1,-2.426590770E-1
2.307489330E1,4.779879749E-2,2.243336588E-1,-2.463241518E-1
2.308404465E1,-4.672981426E-2,3.043546379E-1,-2.134911120E-1
2.309319595E1,-1.275143623E-1,3.611634374E-1,-1.688992679E-1
2.310234726E1,-1.650814712E-1,3.400892019E-1,-1.404948682E-1
2.311149856E1,-1.620272398E-1,2.750339806E-1,-1.447708011E-1
2.312064991E1,-1.433963925E-1,1.947075576E-1,-1.682884246E-1
2.312980121E1,-9.315420687E-2,1.163664013E-1,-1.979145110E-1
2.313893976E1,1.282779220E-2,6.108472496E-2,-2.189887464E-1
2.314810382E1,2.011214644E-1,1.679829881E-2,-2.139492482E-1
2.315725517E1,4.622586668E-1,-4.413371533E-2,-1.919587553E-1
2.316639371E1,7.266027927E-1,-1.183516532E-1,-1.528645307E-1
2.317555778E1,8.562551737E-1,-1.569877416E-1,-9.697200358E-2
2.318470913E1,6.584933400E-1,-7.574506104E-2,-2.932066843E-2
2.319384767E1,2.064663768E-1,1.519482583E-1,2.137965523E-3
2.320301174E1,-2.231119573E-1,4.929537475E-1,3.054236295E-3
2.321216304E1,-4.981459379E-1,8.641961813E-1,-1.191152167E-2
2.322130163E1,-5.917583108E-1,1.080283403E0,-5.421269313E-2
2.323046569E1,-5.789304972E-1,9.932376146E-1,-1.298050433E-1
2.323961700E1,-5.146388412E-1,6.723901033E-1,-2.267770469E-1
2.324875559E1,-4.169032574E-1,3.148917556E-1,-2.997733057E-1
2.325791965E1,-3.202366829E-1,5.955760926E-2,-3.165715933E-1
2.326707095E1,-2.418955117E-1,-3.710897267E-2,-2.615953386E-1
2.327620950E1,-1.963873953E-1,-1.130067464E-2,-1.502684206E-1
2.328537361E1,-2.076880634E-1,8.307522535E-2,-2.947338112E-2
2.329452491E1,-2.727433145E-1,1.569877416E-1,7.437065244E-2
2.330367621E1,-3.335226178E-1,1.517955512E-1,1.583621502E-1
2.331282752E1,-3.504736125E-1,1.024696305E-1,1.954711229E-1
2.332197887E1,-3.319954872E-1,4.230117425E-2,1.925695986E-1
2.333113017E1,-2.851129472E-1,-2.886253223E-2,1.667613089E-1
2.334028148E1,-2.121167034E-1,-1.012479365E-1,1.275143623E-1
2.334943278E1,-1.299577504E-1,-1.795890927E-1,7.925742865E-2
2.335858413E1,-7.895200700E-2,-2.110477239E-1,3.145863488E-2
2.336773543E1,-8.857285231E-2,-1.420219839E-1,-4.581354558E-3
2.337688674E1,-1.211004704E-1,-1.924168877E-2,-3.298575059E-2
2.338603804E1,-1.519482583E-1,7.941014320E-2,-6.994201243E-2
2.339518939E1,-1.783674061E-1,1.455343664E-1,-1.068982705E-1
2.340434069E1,-2.124221325E-1,1.844758689E-1,-1.339282542E-1
2.341349200E1,-2.483094037E-1,2.079934925E-1,-1.433963925E-1
2.342264335E1,-2.761029601E-1,2.151709497E-1,-1.406475753E-1
2.343179465E1,-2.822114229E-1,1.983726472E-1,-1.211004704E-1
2.344094595E1,-2.660239935E-1,1.521009654E-1,-9.162709117E-2
2.345009726E1,-2.376195788E-1,7.269082218E-2,-5.955760926E-2
2.345924861E1,-2.011214644E-1,-1.924168877E-2,-2.932066843E-2
2.346839991E1,-1.711899489E-1,-8.002099395E-2,3.206948051E-3
2.347755121E1,-1.650814712E-1,-1.056765765E-1,4.413371533E-2
2.348670252E1,-1.650814712E-1,-1.206423342E-1,8.200624585E-2
2.349585387E1,-1.663031727E-1,-1.241547018E-1,1.009425074E-1
2.350500517E1,-1.705790907E-1,-1.157555580E-1,9.544488788E-2
2.351415648E1,-1.701209545E-1,-9.116895497E-2,7.711946964E-2
2.352330783E1,-1.710372269E-1,-5.390727147E-2,6.368082762E-2
2.353245913E1,-1.687465608E-1,-3.344388679E-2,5.024218559E-2
2.354161043E1,-1.661504507E-1,-3.894151375E-2,3.130592033E-2
2.355076174E1,-1.586675793E-1,-3.710897267E-2,8.246437646E-3
2.355991304E1,-1.537808031E-1,-2.764083818E-2,-7.024743594E-3
2.356906439E1,-1.585148573E-1,-3.603998944E-2,-1.191152167E-2
2.357821569E1,-1.652341783E-1,-5.650337040E-2,-1.389677543E-2
2.358736700E1,-1.731752008E-1,-6.261184067E-2,-1.206423342E-2
2.359651835E1,-1.788255423E-1,-4.443913698E-2,-1.145338640E-2
2.360566965E1,-1.766875684E-1,-2.290677279E-3,-9.009997360E-3
2.361482095E1,-1.568350345E-1,4.352286831E-2,-1.527118147E-3
2.362397226E1,-1.299577504E-1,6.826218218E-2,5.955760833E-3
2.363312361E1,-1.047603041E-1,7.375980914E-2,1.527118124E-2
2.364227491E1,-8.811471611E-2,6.673506647E-2,2.443389036E-2
2.365142621E1,-7.131642103E-2,4.443913698E-2,2.947338112E-2
2.366057752E1,-5.741964281E-2,8.246437646E-3,3.084778599E-2
2.366972887E1,-5.268557742E-2,-3.695625812E-2,2.794626169E-2
2.367888017E1,-5.100574717E-2,-7.543963939E-2,2.000524849E-2
2.368803148E1,-5.528167635E-2,-9.727742523E-2,9.009997360E-3
2.369718278E1,-6.933116168E-2,-1.046075895E-1,-5.192201585E-3
2.370633413E1,-8.215895295E-2,-1.101052165E-1,-1.863084175E-2
2.371548543E1,-9.071081877E-2,-1.070509851E-1,-2.672456764E-2
2.372463674E1,-9.208522737E-2,-8.185353130E-2,-2.855710872E-2
2.373378804E1,-9.361234307E-2,-5.405998230E-2,-2.000524849E-2
2.374293939E1,-9.620844573E-2,-4.917320609E-2,-7.788302377E-3
2.375209069E1,-1.024696305E-1,-4.795150831E-2,-1.221694518E-3
2.376124200E1,-1.056765765E-1,-3.588727489E-2,5.497625098E-3
2.377039330E1,-1.151447073E-1,-1.114796288E-2,6.719320081E-3
2.377954465E1,-1.264453828E-1,2.122694254E-2,2.290677279E-3
2.378869595E1,-1.359135211E-1,5.390727147E-2,-3.359660041E-3
2.379784726E1,-1.368297935E-1,7.727217674E-2,-9.468132630E-3
2.380699861E1,-1.351499557E-1,9.407047927E-2,-1.374406368E-2
2.381614991E1,-1.374406368E-1,8.567132801E-2,-1.679829881E-2
2.382530121E1,-1.452289373E-1,5.803048983E-2,-2.168507688E-2
2.383445252E1,-1.546970755E-1,2.535016090E-2,-3.145863488E-2
2.384360382E1,-1.681357026E-1,1.084253844E-2,-3.894151375E-2
2.385275517E1,-1.835595965E-1,2.290677279E-2,-3.909422457E-2
2.386190648E1,-2.017323077E-1,4.459185153E-2,-2.993151546E-2
2.387105778E1,-2.192941606E-1,6.994201243E-2,-1.847812906E-2
2.388020908E1,-2.330382317E-1,8.796200156E-2,-7.024743594E-3
2.388936043E1,-2.392994165E-1,9.697200358E-2,5.650337320E-3
2.389851174E1,-2.336490750E-1,8.750387281E-2,1.435491070E-2
2.390766304E1,-2.089097649E-1,5.436540768E-2,2.305948362E-2
2.391681434E1,-1.856975704E-1,1.099525020E-2,2.321219631E-2
2.392596569E1,-1.728697717E-1,-3.420744836E-2,1.908897609E-2
2.393511700E1,-1.663031727E-1,-6.902574003E-2,9.315420873E-3
2.394426830E1,-1.594311297E-1,-8.842013776E-2,-3.054236295E-4
2.395341965E1,-1.551551968E-1,-7.696675509E-2,-7.024743594E-3
2.396257095E1,-1.498102844E-1,-4.871506989E-2,-1.068982668E-2
2.397172226E1,-1.476723254E-1,-1.374406368E-2,-8.857285604E-3
2.398087356E1,-1.382041872E-1,1.710372418E-2,-1.527118147E-3
2.399002486E1,-1.229330078E-1,3.634541109E-2,7.788302377E-3
2.399917621E1,-1.082726792E-1,4.123219103E-2,1.588202827E-2
2.400832752E1,-9.468132257E-2,3.710897267E-2,2.199050039E-2
2.401747882E1,-8.536590636E-2,3.833066672E-2,2.580829710E-2
2.402663017E1,-8.353336155E-2,3.054236248E-2,2.458660305E-2
2.403578148E1,-8.338065445E-2,2.260134928E-2,2.153236605E-2
2.404493278E1,-8.154810965E-2,2.382304333E-2,1.725643501E-2
2.405408408E1,-7.177454978E-2,3.054236248E-2,1.481304597E-2
2.406323543E1,-5.589252338E-2,3.833066672E-2,1.557660475E-2
2.407238674E1,-4.352286831E-2,4.856235534E-2,1.634016447E-2
2.408153804E1,-3.451287001E-2,5.711421743E-2,1.817270555E-2
2.409068934E1,-2.886253223E-2,5.711421743E-2,1.756185852E-2
2.409984069E1,-2.825168520E-2,5.894676223E-2,1.634016447E-2
2.410899200E1,-3.573456407E-2,7.513421029E-2,1.756185852E-2
2.411814330E1,-4.886778072E-2,8.231166750E-2,1.863084175E-2
2.412729460E1,-6.032116711E-2,6.551336497E-2,1.557660475E-2
2.413644595E1,-6.688777357E-2,4.138490185E-2,1.053711493E-2
2.414559726E1,-6.795676053E-2,2.565558441E-2,6.261184346E-3
2.415474856E1,-6.673506647E-2,1.954711229E-2,5.803049076E-3
2.416389986E1,-6.551336497E-2,1.832541823E-2,7.635590620E-3