"Time (s)","Gyroscope x (rad/s)","Gyroscope y (rad/s)","Gyroscope z (rad/s)"
7.642560793E0,4.173613787E-1,3.390202299E-2,-8.368607610E-2
7.651712303E0,4.847072959E-1,2.672456764E-2,-9.422318637E-2
7.660863762E0,5.488462448E-1,2.321219631E-2,-9.132166207E-2
7.670015272E0,6.183301210E-1,2.412846684E-2,-6.566607952E-2
7.679166730E0,7.113316059E-1,1.771457121E-2,-3.451287001E-2
7.688318241E0,8.454126120E-1,-2.779355086E-2,-1.832541777E-3
7.697469699E0,1.019504070E0,-1.346918195E-1,2.825168520E-2
7.706621209E0,1.227192163E0,-2.962609231E-1,6.154286116E-2
7.715759959E0,1.484511495E0,-4.909684956E-1,1.006370857E-1
7.724924178E0,1.794974685E0,-6.820109487E-1,1.372879148E-1
7.734075689E0,2.117349386E0,-8.565605879E-1,1.776038408E-1
7.743214387E0,2.440640211E0,-9.788827300E-1,2.263189107E-1
7.752378657E0,2.783630848E0,-1.023321867E0,2.550287247E-1
7.761530116E0,3.099897146E0,-9.660549164E-1,2.809897363E-1
7.770681626E0,3.335378647E0,-8.432746530E-1,2.869454920E-1
7.779833084E0,3.423187971E0,-7.137750387E-1,2.501419485E-1
7.788984595E0,3.411123753E0,-6.673506498E-1,1.065928489E-1
7.798123345E0,3.427922010E0,-6.943806410E-1,-4.902049154E-2
7.807287564E0,3.445331335E0,-6.262711287E-1,-2.089097649E-1
7.816439022E0,3.416163206E0,-4.303418994E-1,-3.100049794E-1
7.825590532E0,3.341792583E0,-2.412846684E-1,-2.954973578E-1
7.834741991E0,3.228633165E0,-1.898207814E-1,-1.905843467E-1
7.843893501E0,3.107379913E0,-3.407000601E-1,-5.100574717E-2
7.853032251E0,2.964441776E0,-5.357130170E-1,6.474980712E-2
7.862196470E0,2.807454109E0,-7.285880446E-1,1.310267299E-1
7.871347980E0,2.692767382E0,-8.075400591E-1,1.443126649E-1
7.880486678E0,2.658865452E0,-7.108734846E-1,9.513945878E-2
7.889650949E0,2.723462582E0,-5.821374655E-1,5.192201585E-3
7.898802407E0,2.793099165E0,-4.953971207E-1,-4.886778072E-2
7.907941157E0,2.810202837E0,-5.303681493E-1,-6.383354217E-2
7.917105376E0,2.774162769E0,-6.914790869E-1,-8.719844371E-2
7.926256887E0,2.682688475E0,-8.597674966E-1,-1.183516532E-1
7.935395637E0,2.544178724E0,-9.504783154E-1,-1.363716573E-1
7.944559855E0,2.381998777E0,-9.959864616E-1,-1.368297935E-1
7.953711314E0,2.253873587E0,-1.016602516E0,-1.188097894E-1
7.962850064E0,2.166827917E0,-9.998042583E-1,-1.188097894E-1
7.972014282E0,2.057638884E0,-9.874345660E-1,-1.281252056E-1
7.981165793E0,1.946617484E0,-9.707890153E-1,-1.398840249E-1
7.990304543E0,1.837123156E0,-9.281824231E-1,-1.504211426E-1
7.999468762E0,1.730377555E0,-8.464815617E-1,-1.556133330E-1
8.008620272E0,1.621494055E0,-7.386670709E-1,-1.411057115E-1
8.017771730E0,1.503447771E0,-6.441384554E-1,-1.108687744E-1
8.026923241E0,1.371810198E0,-5.599942207E-1,-8.017370105E-2
8.036074699E0,1.235591292E0,-5.015056133E-1,-4.627167806E-2
8.045226209E0,1.094638348E0,-4.650074840E-1,-3.268032894E-2
8.054377668E0,9.665130973E-1,-3.988832533E-1,-2.825168520E-2
8.063529178E0,8.492304087E-1,-3.151971996E-1,-1.679829881E-2
8.072680637E0,7.548545003E-1,-2.580829561E-1,-1.068982761E-3
8.081832147E0,6.696413159E-1,-2.382304370E-1,3.206948051E-3
8.090983605E0,5.858024955E-1,-2.342599183E-1,1.985253533E-3
8.100135116E0,5.062396526E-1,-2.313583940E-1,4.581354558E-3
8.109286626E0,4.289674759E-1,-2.108950168E-1,1.740914769E-2
8.118438084E0,3.487937748E-1,-1.362189353E-1,3.817795217E-2
8.127589595E0,2.701472044E-1,-3.878879920E-2,5.528167635E-2
8.136741053E0,1.973036677E-1,2.443389036E-2,7.666133344E-2
8.145892564E0,1.478250325E-1,4.214845970E-2,1.183516532E-1
8.155044022E0,1.209477559E-1,-6.108472589E-4,1.566823274E-1
8.164195532E0,9.972081333E-2,-6.795676053E-2,1.866138428E-1
8.173346991E0,8.994726092E-2,-1.493521482E-1,2.067717910E-1
8.182498501E0,8.017370105E-2,-2.264716178E-1,2.115058601E-1
8.191649959E0,4.031591862E-2,-2.589992285E-1,2.070772201E-1
8.200801470E0,-4.611896724E-2,-2.392994165E-1,1.985253543E-1
8.209952928E0,-1.414111406E-1,-2.003578991E-1,1.977618039E-1
8.219104439E0,-2.154763639E-1,-1.841704547E-1,2.112004459E-1
8.228255897E0,-2.852656841E-1,-1.853921413E-1,2.321219593E-1
8.237407407E0,-3.419217467E-1,-1.931804419E-1,2.530434728E-1
8.246558866E0,-3.701734245E-1,-2.082989216E-1,2.565558553E-1
8.255710376E0,-3.843756318E-1,-2.113531530E-1,2.443388999E-1
8.264861887E0,-3.744493723E-1,-1.998997629E-1,2.321219593E-1
8.274013345E0,-3.897205591E-1,-1.516428292E-1,2.447970361E-1
8.283164855E0,-4.553866386E-1,-7.207997888E-2,2.858765125E-1
8.292303553E0,-5.170822144E-1,-1.252236869E-2,3.060344756E-1
8.301467824E0,-4.207210541E-1,4.963133857E-2,2.889307439E-1
8.310619282E0,-1.626380831E-1,2.002051920E-1,3.048127890E-1
8.319758032E0,-2.107422985E-2,4.682144225E-1,3.666610718E-1
8.328922251E0,-8.215895295E-2,7.198835015E-1,4.850127101E-1
8.338073762E0,-3.871244490E-1,9.663603902E-1,6.500942111E-1
8.347212512E0,-7.345438004E-1,7.763868570E-1,7.081246972E-1
8.356376730E0,-9.599464536E-1,3.503209054E-1,6.624638438E-1
8.365528189E0,-1.198634982E0,3.691044450E-1,6.245913506E-1
8.374666939E0,-1.506349325E0,9.405520558E-1,6.549809575E-1
8.383831157E0,-1.943105102E0,1.612331390E0,6.423059106E-1
8.392982668E0,-2.330993176E0,1.770998955E0,5.160132051E-1
8.402121418E0,-2.598238707E0,1.419150949E0,4.741701782E-1
8.411285637E0,-2.589992285E0,1.427550077E0,6.555918455E-1
8.420437147E0,-2.398033619E0,1.158319116E0,8.939749599E-1
8.429575845E0,-2.241809368E0,7.878402472E-1,1.030957460E0
8.438740116E0,-2.128039122E0,6.172611713E-1,9.921686649E-1
8.447891574E0,-2.070772171E0,4.149180055E-1,8.315158486E-1
8.457030324E0,-1.956391096E0,1.756185852E-2,7.093463540E-1
8.466194543E0,-1.782452345E0,-3.138227761E-1,6.416950226E-1
8.475346053E0,-1.624395609E0,-3.683409095E-1,5.341859460E-1
8.484484751E0,-1.530935884E0,-3.319954872E-1,3.804051280E-1
8.493649022E0,-1.484817028E0,-1.872246861E-1,2.499892414E-1
8.502800480E0,-1.478861213E0,7.101099193E-2,1.850867122E-1
8.511939230E0,-1.486344099E0,3.005368412E-1,1.488940120E-1
8.521103449E0,-1.465117097E0,4.419479966E-1,8.842013776E-2
8.530254959E0,-1.418998241E0,4.737120569E-1,4.963133857E-2
8.539406418E0,-1.381583810E0,4.262186885E-1,5.360184610E-2
8.548557928E0,-1.336381078E0,3.431434333E-1,4.107947648E-2
8.557709439E0,-1.272547603E0,3.629959822E-1,3.542914242E-2
8.566848137E0,-1.206117868E0,3.927747905E-1,3.222219273E-2
8.576012407E0,-1.206575990E0,4.289674759E-1,4.871506989E-2
8.585163866E0,-1.227497578E0,4.958552718E-1,6.688777357E-2
8.594315376E0,-1.236660242E0,6.218425035E-1,8.383878320E-2
8.603466834E0,-1.216349602E0,7.490514517E-1,8.750387281E-2
8.612618345E0,-1.178324342E0,8.562551737E-1,6.933116168E-2
8.621769803E0,-1.142131686E0,8.840487003E-1,5.131116882E-2
8.630921314E0,-1.087613583E0,7.965448499E-1,3.588727489E-2
8.640072772E0,-1.042105436E0,6.682668924E-1,1.236965694E-2
8.649224282E0,-1.042868972E0,5.639647245E-1,-1.618745178E-2
8.658375741E0,-1.052642584E0,4.987567961E-1,-4.245388508E-2
8.667527251E0,-1.021489382E0,4.662291706E-1,-5.390727147E-2
8.676678709E0,-9.991934299E-1,5.054761171E-1,-2.855710872E-2
8.685830220E0,-1.006065488E0,5.581616759E-1,3.054236248E-2
8.694981678E0,-1.004232883E0,6.180247068E-1,7.452336699E-2
8.704133189E0,-9.839222431E-1,6.818582416E-1,9.162709117E-2
8.713284699E0,-9.712471366E-1,7.079719901E-1,1.076618284E-1
8.722436157E0,-9.828532338E-1,6.832326651E-1,1.123958975E-1
8.731587668E0,-9.869764447E-1,6.824691296E-1,7.452336699E-2
8.740739126E0,-9.637642503E-1,7.226322889E-1,3.802524135E-2
8.749890637E0,-9.286405444E-1,7.395833135E-1,2.718270384E-2
8.759042095E0,-9.138274789E-1,7.401941419E-1,2.489202656E-2
8.768193605E0,-9.257390499E-1,7.600467205E-1,1.878355257E-2
8.777345064E0,-9.271134138E-1,7.805100679E-1,1.435491070E-2
8.786496574E0,-8.947384953E-1,7.389724851E-1,1.282779220E-2
8.795648032E0,-8.677085042E-1,6.113054156E-1,2.351761982E-2
8.804799543E0,-8.787037730E-1,5.318952799E-1,3.573456407E-2
8.813951001E0,-8.867974877E-1,4.750864506E-1,1.985253580E-2
8.823102512E0,-8.770239353E-1,4.256078303E-1,-1.603474095E-2
8.832253970E0,-8.857285380E-1,4.036173224E-1,-8.032641560E-2
8.841405480E0,-9.003888369E-1,4.304946065E-1,-1.615691036E-1
8.850556939E0,-8.933641315E-1,5.030327439E-1,-2.312056869E-1
8.859708449E0,-8.446490765E-1,5.819846988E-1,-2.822114229E-1
8.868847199E0,-7.840224504E-1,6.427640319E-1,-3.057290614E-1
8.878011418E0,-7.582141757E-1,7.186617851E-1,-3.086305857E-1
8.887162928E0,-7.615737915E-1,8.199097514E-1,-3.092414141E-1
8.896314387E0,-7.896727920E-1,9.367342591E-1,-3.229855001E-1
8.905465897E0,-8.484668136E-1,1.059972763E0,-3.753656447E-1
8.914617355E0,-9.022213817E-1,1.187945247E0,-4.676035643E-1
8.923756105E0,-9.495620728E-1,1.222458124E0,-5.839699507E-1
8.932920324E0,-9.240592122E-1,1.049588323E0,-7.069029808E-1
8.942071834E0,-7.740961909E-1,5.938962698E-1,-7.971556783E-1
8.951210532E0,-4.592044353E-1,-8.307522535E-2,-8.451071978E-1
8.960374803E0,7.605048269E-2,-6.565080881E-1,-8.562551737E-1
8.969526262E0,8.506048322E-1,-6.528429985E-1,-8.238802552E-1
8.978665012E0,1.791462302E0,-6.841489673E-2,-7.664605975E-1
8.987829230E0,2.336643457E0,3.886515796E-1,-7.782194018E-1
8.996980741E0,2.774162769E0,2.733541466E-2,-7.516475320E-1
9.006119491E0,3.210460424E0,-3.781144619E-1,-7.525638342E-1
9.015283709E0,3.518938303E0,-2.070772201E-1,-7.174401283E-1
9.024435220E0,3.755183458E0,3.057290614E-1,-6.612421870E-1
9.033573918E0,3.938132286E0,9.231429100E-1,-4.918847680E-1
9.042738189E0,3.999522448E0,1.516886473E0,-2.011214644E-1
9.051889647E0,4.036784172E0,1.754353285E0,1.085781008E-1
9.061028397E0,4.160480499E0,1.546207070E0,3.367295563E-1
9.070192616E0,4.362670898E0,1.115559816E0,4.764608741E-1
9.079344126E0,4.493850708E0,7.522584200E-1,5.784723759E-1
9.088482824E0,4.442539215E0,3.512371778E-1,6.956022978E-1
9.097647095E0,4.247526646E0,-2.761029601E-1,7.527165413E-1
9.106798553E0,4.006089211E0,-6.972821355E-1,7.073611021E-1
9.115937303E0,3.792598009E0,-9.237537384E-1,6.558972597E-1
9.125101522E0,3.735331059E0,-1.181989431E0,6.056550741E-1
9.134253032E0,3.678064108E0,-1.244906664E0,5.748072863E-1
9.143391782E0,3.452966928E0,-1.395175099E0,6.160394549E-1
9.152556001E0,3.223440886E0,-1.537044406E0,6.591041684E-1
9.161707459E0,3.098980904E0,-1.528645277E0,6.661289334E-1
9.170846209E0,3.003535986E0,-1.499019146E0,7.270609736E-1
9.180010428E0,2.835705757E0,-1.588813663E0,7.986828089E-1
9.189161939E0,2.587548971E0,-1.840482831E0,8.244910836E-1
9.198300689E0,2.337712526E0,-2.083752632E0,7.905890942E-1
9.207464907E0,2.098260403E0,-2.201493502E0,6.730009913E-1
9.216616366E0,1.880798697E0,-2.217528343E0,5.456393361E-1
9.225755116E0,1.676470280E0,-2.089861155E0,4.530959427E-1
9.234919387E0,1.481304646E0,-1.948602796E0,4.107947946E-1
9.244070845E0,1.291942000E0,-1.834068894E0,3.726168275E-1
9.253209595E0,1.079367161E0,-1.695864677E0,3.393256664E-1
9.262373814E0,8.568660021E-1,-1.548650503E0,3.162661791E-1
9.271525324E0,6.528429985E-1,-1.402505279E0,3.208475113E-1
9.280664022E0,4.479037523E-1,-1.237729311E0,3.266505599E-1
9.289828293E0,2.304421216E-1,-1.034469843E0,3.158080280E-1
9.298979751E0,3.588727489E-2,-7.846332788E-1,3.124483824E-1
9.308118501E0,-8.536590636E-2,-5.352548957E-1,3.431434333E-1
9.317282720E0,-1.745496094E-1,-3.020639718E-1,3.892624080E-1
9.326434230E0,-2.660239935E-1,-2.183778957E-2,4.318690002E-1
9.335585689E0,-3.939964771E-1,2.860292196E-1,4.758500159E-1
9.344737199E0,-5.760289431E-1,5.117372870E-1,4.976878166E-1
9.353888657E0,-7.508839965E-1,5.645755529E-1,4.847072959E-1
9.363027407E0,-8.692356348E-1,4.298837483E-1,4.737120569E-1
9.372191626E0,-9.556705356E-1,1.675248593E-1,4.598152637E-1
9.381343137E0,-1.085933685E0,-9.300149232E-2,4.431696832E-1
9.390494595E0,-1.271478534E0,-2.014268786E-1,4.040754735E-1
9.399646105E0,-1.434727550E0,-1.771457046E-1,3.352024257E-1
9.408797616E0,-1.515512109E0,-2.076880634E-2,2.916795611E-1
9.417936314E0,-1.686702013E0,1.353026628E-1,3.637595475E-1
9.427100584E0,-2.133689404E0,3.086305857E-1,4.697415531E-1
9.436252043E0,-2.335268974E0,5.436540842E-1,5.853443742E-1
9.445390793E0,-2.005717039E0,7.421793938E-1,8.171609044E-1
9.454555012E0,-1.808413267E0,8.147175312E-1,1.096318126E0
9.463706522E0,-2.052904844E0,1.184585571E0,1.162136912E0
9.472845220E0,-2.460950851E0,8.331956863E-1,7.015580535E-1
9.482009491E0,-2.679786921E0,1.331799746E0,2.257080674E-1
9.491160949E0,-2.256927967E0,1.836817741E0,6.963659078E-2
9.500299699E0,-2.051072359E0,1.010188699E0,3.324536085E-1
9.509463918E0,-2.356648684E0,1.146254897E0,7.252284288E-1
9.518615428E0,-2.524326324E0,1.706401825E0,8.927532434E-1
9.527754178E0,-2.370392799E0,1.467255116E0,9.746068120E-1
9.536918397E0,-2.148197174E0,8.194515705E-1,1.096928954E0
9.546069907E0,-2.104674339E0,4.199574888E-2,1.202300072E0
9.555221366E0,-2.090013981E0,-5.659499764E-1,1.177102685E0
9.564372876E0,-1.957307339E0,-9.828532338E-1,1.004385591E0
9.573524334E0,-1.781535983E0,-1.244448543E0,7.798992395E-1
9.582663084E0,-1.668376565E0,-1.342489600E0,6.067240238E-1
9.591827303E0,-1.581483603E0,-1.232537031E0,5.114318728E-1
9.600978814E0,-1.518413544E0,-1.025765300E0,4.769189954E-1
9.610117512E0,-1.550788522E0,-8.432746530E-1,4.593571424E-1
9.619281782E0,-1.584995866E0,-5.157077909E-1,4.234698713E-1
9.628433241E0,-1.563463569E0,-2.102841735E-1,3.874298632E-1
9.637584751E0,-1.518260837E0,-3.069507517E-2,3.741439581E-1
9.646736209E0,-1.499782681E0,1.916533262E-1,3.710896969E-1
9.655887720E0,-1.468018651E0,3.646758199E-1,3.717005551E-1
9.665026470E0,-1.401894450E0,4.274403751E-1,3.532224298E-1
9.674190689E0,-1.365090966E0,3.558185399E-1,3.742966652E-1
9.683342147E0,-1.313474298E0,3.352024257E-1,3.240544796E-1
9.692480897E0,-1.233758807E0,3.512371778E-1,2.318165302E-1
9.701645168E0,-1.158624530E0,3.993414044E-1,1.553079188E-1
9.710796626E0,-1.112352848E0,4.830274582E-1,1.287360638E-1
9.719935376E0,-1.054322362E0,6.151232123E-1,1.211004704E-1
9.729099595E0,-9.614735842E-1,6.907155514E-1,1.498102844E-1
9.738251105E0,-8.915315866E-1,7.950177193E-1,1.684411317E-1
9.747402564E0,-8.238802552E-1,9.590302110E-1,1.646233350E-1
9.756554074E0,-7.638645172E-1,1.015686274E0,1.374406368E-1
9.765705532E0,-7.285880446E-1,1.074022174E0,1.047603041E-1
9.774844282E0,-7.156075835E-1,1.242005229E0,3.939964995E-2
9.784008501E0,-6.850652099E-1,1.404948711E0,-7.895200700E-2
9.793160012E0,-5.981721878E-1,1.535975456E0,-2.092151791E-1
9.802311470E0,-4.975350797E-1,1.566365123E0,-3.135173619E-1
9.811462980E0,-4.427115619E-1,1.451220393E0,-3.649812341E-1
9.820614491E0,-4.637857676E-1,1.342642307E0,-4.016320705E-1
9.829753189E0,-4.819584787E-1,1.172063231E0,-4.107947946E-1
9.838917407E0,-4.764608741E-1,1.029277682E0,-3.752129376E-1
9.848068918E0,-5.489989519E-1,9.141329527E-1,-3.243598938E-1
9.857220428E0,-6.784985662E-1,9.049702287E-1,-3.063398898E-1
9.866371887E0,-7.882983685E-1,8.522846103E-1,-3.345915973E-1
9.875523397E0,-8.680139780E-1,7.676823139E-1,-3.723114133E-1
9.884674855E0,-9.286405444E-1,6.716265678E-1,-4.068242610E-1
9.893826366E0,-9.498674870E-1,5.781669021E-1,-4.460712075E-1
9.902977824E0,-9.269607067E-1,4.237752855E-1,-4.653128982E-1
9.912116574E0,-8.550334573E-1,2.250972092E-1,-4.469874799E-1
9.921280793E0,-7.652388811E-1,3.848337755E-2,-4.230117202E-1
9.930432303E0,-7.140804529E-1,-1.878355257E-2,-4.593571424E-1
9.939571001E0,-7.204943299E-1,1.337755471E-1,-5.748072863E-1
9.948735272E0,-7.336275578E-1,3.526115716E-1,-7.156075835E-1
9.957886730E0,-7.131641507E-1,6.010736823E-1,-8.292251825E-1
9.967038241E0,-6.644490957E-1,8.551861644E-1,-8.924478292E-1
9.976189699E0,-5.207473040E-1,9.688037634E-1,-8.738170266E-1
9.985341209E0,-2.499892414E-1,9.153546095E-1,-7.876875401E-1
9.994479959E0,1.725643575E-1,7.334748507E-1,-6.416950226E-1
1.000364418E1,7.499676943E-1,4.387410581E-1,-4.277457893E-1
1.001279569E1,1.414874911E0,3.191677108E-2,-2.542651594E-1
1.002193439E1,1.948144674E0,-4.818057716E-1,-2.397575527E-1
1.003109866E1,2.453468084E0,-8.884773254E-1,-2.402156889E-1
1.004025012E1,2.803178072E0,-1.444195628E0,-2.794626355E-1
1.004938887E1,2.964288950E0,-1.841551781E0,-5.399889946E-1
1.005855308E1,3.050876617E0,-1.761378050E0,-9.058864713E-1
1.006770460E1,3.135784388E0,-9.994988441E-1,-1.043937922E0
1.007684334E1,3.299796820E0,-8.704573847E-3,-9.341381788E-1
1.008600756E1,3.631945133E0,6.843016148E-1,-7.380561829E-1
1.009515902E1,3.957526684E0,1.025765300E0,-4.618005157E-1
1.010429777E1,4.276694298E0,1.060889006E0,-2.287622988E-1
1.011346199E1,4.557989597E0,9.107732773E-1,-7.024743408E-2
1.012261350E1,4.675730228E0,6.036698222E-1,1.224748790E-1
1.013175225E1,4.539358616E0,1.226275861E-1,4.240806997E-1
1.014091647E1,4.302808285E0,-3.590254784E-1,6.481089592E-1
1.015006798E1,4.206599712E0,-3.338280320E-1,6.401679516E-1
1.015920668E1,4.107947826E0,-1.380514801E-1,5.347967744E-1
1.016837095E1,4.019527912E0,-1.427855492E-1,4.286620617E-1
1.017752241E1,3.892624140E0,-2.426590770E-1,3.471139669E-1
1.018666116E1,3.735789061E0,-4.630222321E-1,2.997733057E-1
1.019582538E1,3.623698711E0,-9.006943107E-1,2.913741469E-1
1.020497689E1,3.490686655E0,-1.424343109E0,3.542914093E-1
1.021411558E1,3.363019466E0,-1.853615999E0,3.713951409E-1
1.022327986E1,3.160523653E0,-2.185611486E0,2.945810854E-1
1.023243131E1,2.866248131E0,-2.385358572E0,1.966928244E-1
1.024157006E1,2.571208715E0,-2.423689127E0,7.620319724E-2
1.025073428E1,2.318623543E0,-2.396659136E0,-1.832541823E-2
1.025988579E1,2.075964451E0,-2.225774765E0,-1.191152185E-1
1.026902449E1,1.807802439E0,-1.772220612E0,-2.032594234E-1
1.027818876E1,1.553079128E0,-1.251931429E0,-2.377723008E-1
1.028734022E1,1.283695459E0,-8.486195803E-1,-2.050919682E-1
1.029647897E1,9.964445829E-1,-5.384618640E-1,-1.267508119E-1
1.030564324E1,7.038487792E-1,-2.211267054E-1,-6.917845458E-2
1.031479470E1,4.190412164E-1,1.039967462E-1,-1.588202827E-2
1.032393345E1,2.012741715E-1,3.613161445E-1,6.352811307E-2
1.033309767E1,5.268557742E-2,5.958815217E-1,1.496575773E-1
1.034224918E1,-5.008947477E-2,8.255600929E-1,2.263189107E-1
1.035138788E1,-9.773556143E-2,9.762866497E-1,2.564031482E-1
1.036055215E1,-1.174353883E-1,9.900307059E-1,2.330382317E-1
1.036970360E1,-1.580567211E-1,8.506048322E-1,2.176143378E-1
1.037884236E1,-2.794626355E-1,5.468609929E-1,2.554868758E-1
1.038800657E1,-4.784461260E-1,2.195995897E-1,3.177932799E-1
1.039715808E1,-7.308787704E-1,1.527118124E-2,3.912476599E-1
1.040629683E1,-9.460496902E-1,-1.496575773E-2,4.672981501E-1
1.041546105E1,-1.088529825E0,-1.267508045E-2,4.902049303E-1
1.042461251E1,-1.481304646E0,1.487413049E-1,4.756973088E-1
1.043375126E1,-2.356954098E0,3.478775024E-1,4.442386627E-1
1.044291553E1,-3.082335234E0,3.741439581E-1,3.555130959E-1
1.045206699E1,-3.144947052E0,3.115321100E-1,2.709107697E-1
1.046120574E1,-2.884268045E0,-6.413896102E-3,3.755183518E-1
1.047036996E1,-2.036412001E0,6.859814525E-1,6.227588058E-1
1.047952147E1,-1.341115117E0,1.543000221E0,1.000109673E0
1.048866017E1,-1.921420097E0,7.745543122E-1,1.226734042E0
1.049782444E1,-2.653673172E0,1.482068181E0,1.039814711E0
1.050697590E1,-2.336948872E0,2.656116486E0,6.534538269E-1
1.051611465E1,-1.780925155E0,1.643179178E0,4.327852726E-1
1.052527887E1,-1.738623977E0,3.260397315E-1,6.213843822E-1
1.053443038E1,-1.712815762E0,-1.214058921E-1,8.241856694E-1
1.054356913E1,-1.510930657E0,-6.459710002E-2,8.029587269E-1
1.055273334E1,-1.418998241E0,-3.901786804E-1,7.128587365E-1
1.056188480E1,-1.429229856E0,-4.489727318E-1,6.375718117E-1
1.057102355E1,-1.416554809E0,-2.478512824E-1,5.838172436E-1
1.058018777E1,-1.393189907E0,-1.485885978E-1,5.088357925E-1
1.058933928E1,-1.376849771E0,-4.902049154E-2,3.903313875E-1
1.059847803E1,-1.345849276E0,-3.741439432E-2,2.965663373E-1
1.060764225E1,-1.343711257E0,2.886253223E-2,2.562504113E-1
1.061679376E1,-1.336533785E0,2.021904439E-1,2.403683960E-1
1.062593246E1,-1.312252641E0,3.144336343E-1,2.318165302E-1
1.063509673E1,-1.322789788E0,3.723114133E-1,2.451024652E-1
1.064424819E1,-1.334395885E0,5.712949038E-1,2.797680497E-1
1.065339970E1,-1.348445296E0,8.003626466E-1,3.246653080E-1
1.066255116E1,-1.369977713E0,9.527690411E-1,3.139754832E-1
1.067170267E1,-1.364938259E0,8.832851648E-1,2.677038014E-1
1.068085413E1,-1.379598498E0,6.178719997E-1,2.153236568E-1
1.069000564E1,-1.397007704E0,3.933856487E-1,1.444653720E-1
1.069915710E1,-1.409071922E0,2.599155009E-1,7.131642103E-2
1.070830861E1,-1.437018156E0,2.344126403E-1,1.725643501E-2
1.071746006E1,-1.466796994E0,3.599417508E-1,-5.268557742E-2
1.072661157E1,-1.495812178E0,4.454603493E-1,-8.399149776E-2
1.073576303E1,-1.567434072E0,3.808632791E-1,-6.734590977E-2
1.074491454E1,-1.643026471E0,4.863871336E-1,-3.924693540E-2
1.075406600E1,-1.656312346E0,7.166765332E-1,4.428642802E-3
1.076321751E1,-1.624395609E0,7.108734846E-1,3.023693897E-2
1.077236902E1,-1.605917454E0,6.511631608E-1,2.443389036E-2
1.078152048E1,-1.604848504E0,6.244385839E-1,-1.649287529E-2
1.079067199E1,-1.592631459E0,4.721849263E-1,-1.281252056E-1
1.079982345E1,-1.568044901E0,4.023956358E-1,-2.585411072E-1
1.080897496E1,-1.592020631E0,4.448495209E-1,-3.594835997E-1
1.081811366E1,-1.674637794E0,6.174138784E-1,-4.182776511E-1
1.082727793E1,-1.744274378E0,8.441908956E-1,-4.836383164E-1
1.083642939E1,-1.777412772E0,1.071120620E0,-5.499152541E-1
1.084558090E1,-1.815438032E0,1.212531805E0,-6.029062271E-1
1.085473236E1,-1.836512327E0,1.243074179E0,-6.311579347E-1
1.086388387E1,-1.841093659E0,1.200925708E0,-6.189410090E-1
1.087302262E1,-1.821851969E0,1.157097459E0,-5.735855699E-1
1.088218683E1,-1.767791986E0,1.077839971E0,-5.102101564E-1
1.089133835E1,-1.656465054E0,9.946120381E-1,-4.330907166E-1
1.090047704E1,-1.558576822E0,8.527427912E-1,-3.710896969E-1
1.090964131E1,-1.491383553E0,6.180247068E-1,-3.387148082E-1
1.091879277E1,-1.413042426E0,4.078932703E-1,-3.362714052E-1
1.092793152E1,-1.279877663E0,1.971509457E-1,-3.558185399E-1
1.093709574E1,-1.074938416E0,-4.001049697E-2,-3.610107303E-1
1.094624725E1,-7.670714259E-1,-2.852656841E-1,-3.261924386E-1
1.095538600E1,-3.701734245E-1,-5.819846988E-1,-4.208737612E-1
1.096455022E1,3.031329513E-1,-8.191461563E-1,-4.440859556E-1
1.097370168E1,1.092347622E0,-7.362236381E-1,-3.830012381E-1
1.098284043E1,1.858197331E0,-6.200099587E-1,-3.794888556E-1
1.099200470E1,2.326717138E0,-6.676560640E-1,-4.402681589E-1
1.100115616E1,2.589534283E0,-7.678350210E-1,-4.421007037E-1
1.101029491E1,2.786379814E0,-8.567132950E-1,-4.578300118E-1
1.101945913E1,2.991318941E0,-1.387844920E0,-5.774033666E-1
1.102861064E1,3.257495642E0,-1.686549306E0,-7.976137996E-1
1.103774933E1,3.610565424E0,-1.368603230E0,-8.832851648E-1
1.104691360E1,4.064424992E0,-1.019198656E0,-7.765395641E-1
1.105606506E1,4.532486439E0,-9.393303990E-1,-5.583143830E-1
1.106520381E1,4.990163803E0,-9.280297160E-1,-3.419217467E-1
1.107436803E1,5.306735516E0,-8.736643195E-1,-2.475458533E-1
1.108351954E1,5.360642910E0,-6.867450476E-1,-2.600682080E-1
1.109265829E1,5.204723835E0,-4.165978432E-1,-2.919849753E-1
1.110182251E1,5.032159805E0,-2.536543310E-1,-1.620272398E-1
1.111097402E1,5.024676800E0,-6.490252167E-2,3.741439432E-2
1.112011272E1,5.101032734E0,2.017323077E-1,2.180724740E-1
1.112927699E1,5.069726944E0,4.440859556E-1,4.300364852E-1
1.113842845E1,4.915793419E0,4.159869850E-1,5.731274486E-1
1.114756720E1,4.747657776E0,2.565558441E-2,6.571189165E-1
1.115673142E1,4.576162338E0,-6.047387719E-1,6.985038519E-1
1.116588293E1,4.369390488E0,-1.333784938E0,6.554391384E-1
1.117502163E1,4.126578808E0,-1.977770686E0,5.412106514E-1
1.118418590E1,3.879949093E0,-2.352067471E0,4.566083252E-1
1.119333736E1,3.654546499E0,-2.415900946E0,4.123218954E-1
1.120247610E1,3.394172907E0,-2.299381733E0,3.897205591E-1
1.121164032E1,3.060802937E0,-2.217680931E0,3.310792148E-1
1.122079183E1,2.693683624E0,-2.134300232E0,2.246390730E-1
1.122993058E1,2.275253296E0,-2.022515297E0,1.440072358E-1
1.123909480E1,1.822462797E0,-1.834832430E0,1.145338640E-1
1.124824626E1,1.391204596E0,-1.519024372E0,1.307213157E-1
1.125738501E1,9.341381788E-1,-1.143047929E0,1.467560530E-1
1.126654928E1,4.837910235E-1,-8.153283596E-1,1.495048702E-1
1.127570074E1,1.166718230E-1,-5.013529062E-1,1.608055383E-1
1.128483949E1,-1.404948682E-1,-1.611109674E-1,1.947075576E-1
1.129400371E1,-3.338280320E-1,6.780404598E-2,2.451024652E-1
1.130315522E1,-4.995203316E-1,1.085781008E-1,2.890834510E-1
1.131230668E1,-6.734591126E-1,4.764608666E-2,3.116848171E-1
1.132145819E1,-9.119949341E-1,1.003316641E-1,3.385621011E-1
1.133060965E1,-1.187334418E0,3.213056624E-1,4.133908749E-1
1.133974840E1,-1.451220393E0,5.520532131E-1,5.219689608E-1
1.134891262E1,-1.649898410E0,6.146650314E-1,6.047387719E-1
1.135806413E1,-1.690672517E0,4.862344265E-1,5.868715048E-1
1.136720288E1,-1.408766508E0,2.709107697E-1,4.120164812E-1
1.137636710E1,-9.852966070E-1,2.793098986E-1,2.086043358E-1
1.138551861E1,-1.300493836E0,7.114843726E-1,2.463241518E-1
1.139465730E1,-2.285790443E0,1.062721491E0,3.275668323E-1
1.140382157E1,-2.923667669E0,8.490777016E-1,3.385621011E-1
1.141297303E1,-2.902746201E0,5.210527182E-1,4.353813827E-1
1.142211178E1,-2.649397373E0,1.647760421E-1,5.888567567E-1
1.143127600E1,-2.132009745E0,1.297439575E0,7.889092565E-1
1.144042751E1,-1.900956631E0,1.724574566E0,7.933378816E-1
1.144956621E1,-2.294647694E0,1.071884274E0,5.034908652E-1
1.145873048E1,-2.478818178E0,1.812536478E0,2.548760176E-1
1.146788194E1,-2.306711912E0,2.083905458E0,2.296785712E-1
1.147702069E1,-2.098260403E0,1.198634982E0,4.503471553E-1
1.148618496E1,-1.938523769E0,4.960079789E-1,7.322531343E-1
1.149533642E1,-1.742594481E0,2.664821148E-1,8.058602214E-1
1.150447517E1,-1.595227599E0,-7.986827940E-2,6.300889254E-1
1.151363939E1,-1.475654244E0,-2.666348219E-1,4.198047817E-1
1.152279090E1,-1.346154690E0,-7.711946964E-2,3.081724346E-1
1.153192960E1,-1.287513256E0,1.337755471E-1,2.748812735E-1
1.154109387E1,-1.340046167E0,5.037962794E-1,2.828222811E-1
1.155024532E1,-1.381431103E0,7.947123051E-1,2.799207568E-1
1.155938407E1,-1.367839694E0,9.990406632E-1,2.889307439E-1
1.156854829E1,-1.366923451E0,1.155264854E0,3.023693860E-1
1.157769980E1,-1.342031479E0,1.278197885E0,3.023693860E-1
1.158685126E1,-1.311030984E0,1.196802497E0,2.825168669E-1
1.159600277E1,-1.324316859E0,1.044701576E0,2.415900975E-1
1.160515423E1,-1.299424887E0,1.046992183E0,1.757712960E-1
1.161430574E1,-1.266439080E0,9.833113551E-1,8.078455180E-2
1.162345720E1,-1.272394896E0,7.298097610E-1,-1.786728203E-2
1.163260871E1,-1.262621284E0,5.615213513E-1,-9.468132257E-2
1.164174746E1,-1.270714998E0,5.358657837E-1,-1.698155403E-1
1.165091168E1,-1.318208337E0,5.722111464E-1,-2.354816198E-1
1.166006314E1,-1.353026628E0,6.160394549E-1,-2.602209449E-1
1.166920189E1,-1.367992401E0,6.397097707E-1,-2.451024652E-1
1.167836616E1,-1.412737012E0,7.253811359E-1,-1.959292591E-1
1.168751762E1,-1.458703279E0,8.170081973E-1,-1.536280811E-1
1.169666913E1,-1.450914979E0,8.105943203E-1,-1.090362370E-1
1.170582058E1,-1.447249889E0,7.246175408E-1,-4.474456236E-2
1.171497210E1,-1.463284612E0,6.852179170E-1,2.229592577E-2
1.172412355E1,-1.481762767E0,6.737645268E-1,5.635065958E-2
1.173327506E1,-1.509861708E0,6.615476012E-1,1.527118124E-2
1.174242652E1,-1.532768488E0,7.107207775E-1,-5.329642445E-2
1.175156527E1,-1.585454106E0,7.824953198E-1,-1.221694499E-1
1.176072949E1,-1.683953166E0,8.915315866E-1,-2.596100867E-1
1.176988100E1,-1.744885206E0,8.812998533E-1,-4.036173224E-1
1.177903246E1,-1.800014138E0,7.571451664E-1,-5.181511641E-1
1.178818397E1,-1.898666024E0,6.024481058E-1,-6.268820167E-1
1.179733543E1,-1.986169815E0,4.960079789E-1,-6.804838181E-1
1.180648694E1,-2.041756868E0,4.367557764E-1,-6.862868667E-1
1.181563845E1,-2.079934835E0,4.283566475E-1,-6.725428104E-1
1.182478991E1,-2.091235638E0,4.404208660E-1,-6.525375843E-1
1.183394142E1,-2.126053810E0,4.604261220E-1,-6.247440577E-1
1.184309288E1,-2.169118643E0,4.405735731E-1,-5.993938446E-1
1.185224439E1,-2.114753246E0,4.004103839E-1,-5.561764240E-1
1.186138308E1,-2.043131351E0,3.574983478E-1,-4.860817194E-1
1.187054736E1,-1.937760234E0,3.242071867E-1,-4.191939235E-1
1.187969881E1,-1.747023106E0,2.589992285E-1,-3.359659910E-1
1.188883756E1,-1.506960154E0,2.550287358E-2,-2.302894145E-1
1.189800178E1,-1.180615067E0,-3.214583695E-1,-1.417165697E-1
1.190715329E1,-7.186617851E-1,-7.194253802E-1,-9.972081333E-2
1.191629204E1,-6.459710002E-2,-1.122279167E0,-1.540862173E-1
1.192545626E1,7.844805717E-1,-1.413347840E0,-3.455868363E-1
1.193460777E1,1.559187651E0,-1.162747741E0,-5.480827093E-1
1.194374647E1,2.158428907E0,-4.002576768E-1,-5.644228458E-1
1.195291074E1,2.699334145E0,5.909947306E-2,-5.922164321E-1
1.196206220E1,3.027969837E0,-3.542914093E-1,-7.550072074E-1
1.197120095E1,3.202672243E0,-1.393342614E0,-1.023016453E0
1.198036517E1,3.296131849E0,-1.925848722E0,-1.277128935E0
1.198951668E1,3.439833641E0,-1.250557065E0,-1.287665963E0
1.199865543E1,3.863456249E0,-2.235700935E-1,-1.114338160E0
1.200781965E1,4.517673492E0,4.886777997E-1,-9.136747718E-1
1.201697111E1,5.116151333E0,8.098307252E-1,-7.032378912E-1
1.202610986E1,5.416382790E0,8.669449687E-1,-5.179984570E-1
1.203527413E1,5.453644276E0,1.038134933E0,-3.596363366E-1
1.204442558E1,5.149442196E0,1.232231617E0,-1.238492802E-1
1.205356433E1,4.746893883E0,1.297897696E0,2.202104330E-1
1.206272855E1,4.664582253E0,1.482068181E0,4.966188073E-1
1.207188006E1,4.784003258E0,1.382500052E0,7.345438004E-1
1.208101876E1,4.816683292E0,6.745280623E-1,8.965710402E-1
1.209018303E1,4.593266010E0,-1.560714692E-1,9.571976662E-1
1.209933449E1,4.312581539E0,-8.713735938E-1,8.982508779E-1
1.210847324E1,4.171170712E0,-1.444348335E0,8.348754644E-1
1.211763746E1,4.060760021E0,-1.960819721E0,7.527165413E-1
1.212678897E1,3.881781578E0,-2.458965540E0,6.919372082E-1
1.213592772E1,3.631486893E0,-2.826237440E0,5.712949038E-1
1.214509194E1,3.309875965E0,-2.988723040E0,4.457657933E-1
1.215424345E1,2.971008301E0,-2.988570213E0,2.895416021E-1
1.216338215E1,2.655505657E0,-2.852351189E0,1.229330078E-1
1.217254642E1,2.327022552E0,-2.573346853E0,-2.855710872E-2
1.218169788E1,2.016559601E0,-2.167744160E0,-5.299099907E-2
1.219083663E1,1.709608793E0,-1.692046881E0,-1.527118124E-2
1.220000084E1,1.366465330E0,-1.184432864E0,1.435491070E-2
1.220915236E1,9.996515512E-1,-7.797465324E-1,8.231166750E-2
1.221829110E1,6.522321701E-1,-4.317162931E-1,1.656923145E-1
1.222745532E1,3.830012381E-1,-7.040014863E-2,2.496838123E-1
1.223660678E1,1.841704547E-1,2.325800955E-1,2.870981991E-1
1.224575829E1,5.176930502E-2,4.308000207E-1,3.025220931E-1
1.225490980E1,-3.649812192E-2,5.572454333E-1,3.371876776E-1
1.226406126E1,-1.733279079E-1,6.300889254E-1,3.568875194E-1
1.227320001E1,-4.254551232E-1,6.355865598E-1,3.477247953E-1
1.228236423E1,-7.368345261E-1,5.741963983E-1,3.315373361E-1
1.229151574E1,-1.015533566E0,4.585935771E-1,3.003841341E-1
1.230065444E1,-1.247808218E0,3.295520842E-1,2.408265322E-1
1.230981871E1,-1.492452621E0,3.471139669E-1,2.037175596E-1
1.231897017E1,-1.884311080E0,5.164713860E-1,2.380777150E-1
1.232812168E1,-2.468281031E0,6.533011198E-1,3.101576865E-1
1.233727314E1,-3.192135096E0,7.397360206E-1,3.465031087E-1
1.234642465E1,-3.354009628E0,7.977665067E-1,3.159607351E-1
1.235556340E1,-2.590450525E0,7.134696245E-1,3.562766612E-1
1.236472762E1,-1.956391096E0,1.093569279E0,6.639909744E-1
1.237387913E1,-1.887670755E0,1.808413267E0,1.157860994E0
1.238301782E1,-2.440793037E0,5.250232220E-1,1.114643574E0
1.239218210E1,-2.901829958E0,7.178982496E-1,6.746807694E-1
1.240133355E1,-2.230050564E0,2.687117100E0,2.353289127E-1
1.241047230E1,-1.860640764E0,1.713732004E0,1.798945218E-1
1.241963652E1,-2.017933846E0,5.682406425E-1,5.546492934E-1
1.242878803E1,-1.970287800E0,1.511388779E0,8.808417320E-1
1.243792678E1,-1.911493778E0,1.252084136E0,9.364288449E-1
1.244709100E1,-1.792073131E0,3.943018913E-1,8.426637650E-1
1.245624246E1,-1.700293303E0,2.061609551E-2,6.452074051E-1
1.246538121E1,-1.565448761E0,-2.425063550E-1,4.698942602E-1
1.247454543E1,-1.470614791E0,-4.543176591E-1,3.387148082E-1
1.248369694E1,-1.451983929E0,-5.047125220E-1,2.614426315E-1
1.249283569E1,-1.444042921E0,-5.468609929E-1,2.290677279E-1
1.250199991E1,-1.373948216E0,-3.159607351E-1,2.367033064E-1
1.251115142E1,-1.313779712E0,4.947862774E-2,2.754921019E-1
1.252030288E1,-1.324469566E0,3.020639718E-1,3.440597057E-1
1.252945439E1,-1.343253136E0,5.971031785E-1,4.231644273E-1
1.253860585E1,-1.333784938E0,7.371399403E-1,4.873034060E-1
1.254775736E1,-1.350736022E0,6.299362183E-1,5.012001991E-1
1.255690881E1,-1.385401607E0,5.392253995E-1,4.382829070E-1
1.256606032E1,-1.389830232E0,3.881934285E-1,3.545968235E-1
1.257521178E1,-1.341420531E0,2.241809368E-1,2.970244884E-1
1.258436329E1,-1.296065211E0,2.066190839E-1,2.515163720E-1
1.259351475E1,-1.282473803E0,2.257080674E-1,1.960819662E-1
1.260265350E1,-1.281862974E0,2.049392611E-1,1.284306347E-1
1.261181772E1,-1.268271565E0,2.878617644E-1,7.773031294E-2
1.262096923E1,-1.259567022E0,3.648285270E-1,3.680354729E-2
1.263012069E1,-1.310878277E0,4.098785222E-1,2.901524538E-3
1.263927220E1,-1.366159916E0,6.007682681E-1,-3.069507517E-2
1.264842371E1,-1.385707021E0,8.825215697E-1,-6.276455522E-2
1.265756241E1,-1.409988165E0,1.049893737E0,-8.200624585E-2
1.266672668E1,-1.438850760E0,1.114948988E0,-8.719844371E-2
1.267587814E1,-1.467713237E0,1.031720996E0,-9.040539712E-2
1.268501689E1,-1.523758531E0,8.733588457E-1,-5.283828825E-2
1.269418110E1,-1.578123927E0,6.700994372E-1,-4.932591692E-2
1.270333262E1,-1.614011168E0,5.024218559E-1,-9.223793447E-2
1.271248407E1,-1.628366113E0,3.345915973E-1,-1.519482583E-1
1.272163558E1,-1.654021621E0,2.121167034E-1,-2.156290859E-1
1.273078704E1,-1.722283840E0,1.563768983E-1,-2.735068500E-1
1.273992579E1,-1.803984642E0,2.066190839E-1,-3.064926267E-1
1.274909001E1,-1.862625957E0,2.852656841E-1,-3.387148082E-1
1.275824152E1,-1.911493778E0,3.286358118E-1,-3.756710589E-1
1.276739298E1,-1.957307339E0,3.107685447E-1,-4.285093546E-1
1.277654449E1,-1.974563718E0,3.269560039E-1,-4.660764635E-1
1.278569600E1,-1.956391096E0,3.744493723E-1,-4.738647640E-1
1.279484746E1,-1.902636528E0,4.071297050E-1,-4.685198367E-1
1.280399897E1,-1.832999945E0,4.837910235E-1,-4.595098495E-1
1.281315043E1,-1.777260065E0,6.032116413E-1,-4.647020400E-1
1.282230194E1,-1.707165360E0,7.069029808E-1,-4.863871336E-1
1.283145340E1,-1.605306625E0,8.267817497E-1,-5.138752460E-1
1.284060491E1,-1.486954927E0,9.081771374E-1,-5.526640415E-1
1.284974366E1,-1.328134656E0,8.764131069E-1,-5.613686442E-1
1.285890788E1,-1.050199151E0,7.169819474E-1,-4.920374751E-1
1.286805933E1,-5.745018721E-1,3.976615667E-1,-3.468085229E-1
1.287719808E1,1.189625040E-1,-1.762294322E-1,-2.205158621E-1
1.288636236E1,9.568922520E-1,-7.127060294E-1,-1.537808031E-1
1.289551381E1,1.624548316E0,-6.746807694E-1,-1.284306347E-1
1.290465256E1,2.156596184E0,-5.019637346E-1,-2.144073844E-1
1.291381678E1,2.457133055E0,-2.974826097E-1,-4.396573007E-1
1.292296829E1,2.645426750E0,-4.413371384E-1,-6.453601122E-1
1.293210699E1,2.833720446E0,-1.244906664E0,-9.524635673E-1
1.294127126E1,2.956195354E0,-1.736180663E0,-1.336381078E0
1.295042272E1,3.178696394E0,-1.134648800E0,-1.423274159E0
1.295956147E1,3.580175877E0,-1.473668963E-1,-1.211157441E0
1.296872574E1,4.024414539E0,5.088357925E-1,-9.287932515E-1
1.297787720E1,4.429253578E0,6.525375843E-1,-7.195780873E-1
1.298701595E1,4.732691765E0,5.876350403E-1,-6.533011198E-1
1.299618017E1,4.937478542E0,4.085040987E-1,-5.986303091E-1
1.300533168E1,4.994745255E0,4.894413650E-1,-4.486673176E-1
1.301447038E1,4.867841721E0,7.583668828E-1,-1.687465608E-1
1.302363465E1,4.833481789E0,8.765658140E-1,1.502684206E-1
1.303278611E1,4.953665733E0,8.234221339E-1,4.191939235E-1
1.304192486E1,5.024524212E0,4.860817194E-1,5.573981404E-1
1.305108907E1,4.993371010E0,-1.969982497E-2,6.644490957E-1
1.306024058E1,4.934576988E0,-6.655181050E-1,7.456917763E-1
1.306937933E1,4.910142899E0,-1.251778722E0,7.574505806E-1
1.307854355E1,4.868452549E0,-1.658450365E0,6.878139973E-1
1.308769501E1,4.744603157E0,-1.895764470E0,5.821374655E-1
1.309683376E1,4.512328625E0,-2.208060026E0,4.818057716E-1
1.310599803E1,4.264630318E0,-2.515621662E0,3.678827584E-1
1.311514949E1,4.001812935E0,-2.652604103E0,2.635805905E-1
1.312428824E1,3.628890753E0,-2.585105658E0,2.701472044E-1
1.313345246E1,3.183125019E0,-2.405363798E0,3.651339412E-1
1.314260397E1,2.668486357E0,-2.059624195E0,3.556658030E-1
1.315174272E1,2.108797550E0,-1.588508248E0,2.689255178E-1
1.316090694E1,1.518413544E0,-1.167787194E0,2.131856978E-1
1.317005840E1,1.008966923E0,-9.856020808E-1,1.765348613E-1
1.317919715E1,5.874823332E-1,-9.909469485E-1,1.881409585E-1
1.318836137E1,1.957765520E-1,-1.041647315E0,3.399364948E-1
1.319751288E1,-1.383569092E-1,-1.036760569E0,5.060869455E-1
1.320665163E1,-3.834593594E-1,-9.584193230E-1,5.806103349E-1
1.321581585E1,-5.462501645E-1,-8.093726039E-1,5.861079693E-1
1.322496736E1,-6.966713071E-1,-5.209000111E-1,5.757235289E-1
1.323410605E1,-8.590039611E-1,-6.444438547E-2,5.595360994E-1
1.324327032E1,-1.077687263E0,4.164451063E-1,5.222744346E-1
1.325242178E1,-1.479013920E0,7.899782062E-1,5.027272701E-1
1.326156053E1,-1.967997193E0,9.087880254E-1,5.627430081E-1
1.327072475E1,-2.073979139E0,6.989619732E-1,5.796940327E-1
1.327987626E1,-1.516122937E0,4.075878263E-1,4.220954478E-1
1.328901501E1,-1.454274654E0,7.317950130E-1,5.761816502E-1
1.329817923E1,-2.099176645E0,1.272394896E0,9.620844126E-1
1.330733069E1,-2.392535925E0,1.151599765E0,1.041952729E0
1.331646944E1,-2.482177734E0,3.941491842E-1,1.096776247E0
1.332563371E1,-2.225774765E0,6.908682585E-1,1.066539288E0
1.333478517E1,-1.643026471E0,1.699529767E0,7.780666947E-1
1.334392392E1,-2.038397312E0,1.487260342E0,5.720584393E-1
1.335308814E1,-2.520355701E0,6.433748603E-1,4.104893506E-1
1.336223965E1,-2.314500332E0,5.642701387E-1,2.843494117E-1
1.337137840E1,-2.321677685E0,7.241594195E-1,3.483356535E-1
1.338054262E1,-2.486606598E0,7.682931423E-1,4.668400288E-1
1.338969407E1,-2.477443695E0,6.520794630E-1,4.706578255E-1
1.339883282E1,-2.338475943E0,4.159869850E-1,4.370612204E-1
1.340799704E1,-2.182251930E0,1.058292910E-1,4.304946065E-1
1.341714855E1,-2.007702112E0,1.782146841E-1,3.985778391E-1
1.342628730E1,-1.885838151E0,3.764346242E-1,3.309265077E-1
1.343545152E1,-1.777718186E0,5.896202922E-1,2.510582209E-1
1.344460303E1,-1.680288076E0,8.067765236E-1,2.344126403E-1
1.345374173E1,-1.580261827E0,1.036607742E0,2.843494117E-1
1.346290600E1,-1.519024372E0,1.444653749E0,3.975088596E-1
1.347205746E1,-1.499171853E0,1.743358135E0,4.914266169E-1
1.348119621E1,-1.472752690E0,1.780925155E0,5.722111464E-1
1.349036043E1,-1.446333647E0,1.493674278E0,5.958815217E-1
1.349951194E1,-1.408613801E0,1.016907930E0,5.573981404E-1
1.350866340E1,-1.347681761E0,5.164713860E-1,4.433223903E-1
1.351781491E1,-1.298813939E0,1.591257155E-1,2.773246467E-1
1.352696637E1,-1.256512761E0,1.081199646E-1,1.517955512E-1
1.353610512E1,-1.257734537E0,1.420219839E-1,5.650337040E-2
1.354526933E1,-1.272853017E0,2.147128135E-1,-6.566607859E-3
1.355442085E1,-1.224748731E0,2.093679011E-1,3.512371797E-3
1.356357230E1,-1.179545999E0,2.258607745E-1,5.696150661E-2
1.357272381E1,-1.232078910E0,2.385358512E-1,8.414421231E-2
1.358187532E1,-1.267660737E0,2.927485406E-1,9.300149232E-2
1.359101402E1,-1.259414315E0,3.929274976E-1,9.177979827E-2
1.360017829E1,-1.267049909E0,4.234698713E-1,7.818844914E-2
1.360932975E1,-1.311489105E0,3.582619131E-1,7.055285573E-2
1.361846850E1,-1.331036210E0,4.378247857E-1,4.046862945E-2
1.362763272E1,-1.304617047E0,5.806103349E-1,4.123219103E-2
1.363678423E1,-1.322942495E0,6.920899153E-1,4.459185153E-2
1.364593569E1,-1.385248899E0,7.889092565E-1,2.947338112E-2
1.365508720E1,-1.425106645E0,8.406785131E-1,2.550287358E-2
1.366423866E1,-1.437781692E0,8.104416132E-1,2.901524538E-3
1.367339017E1,-1.482373595E0,7.765395641E-1,-2.794626169E-2
1.368254168E1,-1.509556293E0,7.209524512E-1,-5.008947477E-2
1.369169314E1,-1.502531528E0,6.377245188E-1,-7.742489129E-2
1.370084465E1,-1.553231835E0,5.398362875E-1,-1.174353883E-1
1.370999610E1,-1.580567241E0,4.695888162E-1,-1.915006191E-1
1.371914762E1,-1.583468795E0,3.970507085E-1,-2.525853515E-1
1.372828631E1,-1.660588264E0,3.558185399E-1,-2.713688910E-1
1.373745058E1,-1.751299143E0,4.495835900E-1,-3.147390485E-1
1.374660204E1,-1.752368093E0,5.474718809E-1,-4.150707126E-1
1.375575355E1,-1.727476001E0,5.584670901E-1,-5.065450668E-1
1.376490501E1,-1.766112089E0,5.720584393E-1,-5.775560737E-1
1.377405652E1,-1.800319552E0,6.392516494E-1,-6.609367132E-1
1.378320798E1,-1.814827204E0,6.430694461E-1,-7.270609736E-1
1.379235949E1,-1.835901380E0,6.187883019E-1,-7.766922712E-1
1.380151100E1,-1.859419107E0,6.313106418E-1,-7.988355160E-1
1.381066246E1,-1.886601806E0,6.336013079E-1,-7.916580439E-1
1.381981397E1,-1.911188364E0,6.306998134E-1,-7.875348330E-1
1.382896543E1,-1.900651217E0,6.951441765E-1,-7.850914598E-1
1.383810418E1,-1.860182643E0,7.783721089E-1,-7.695148587E-1
1.384726840E1,-1.745037913E0,8.354863524E-1,-7.322531343E-1
1.385641991E1,-1.512915969E0,8.426637650E-1,-6.786513329E-1
1.386555866E1,-1.146254897E0,7.386670709E-1,-5.911474228E-1
1.387472288E1,-7.133168578E-1,4.668400288E-1,-4.840964675E-1
1.388387433E1,-1.269035190E-1,-3.008422814E-2,-3.768927455E-1
1.389301308E1,6.609367132E-1,-5.338805318E-1,-3.629959822E-1
1.390217736E1,1.574916959E0,-8.124268651E-1,-3.436015844E-1
1.391132881E1,2.283652544E0,-7.221741676E-1,-3.581092060E-1
1.392046756E1,2.562504292E0,-4.454603493E-1,-4.234698713E-1
1.392963178E1,2.670318842E0,1.664558798E-2,-5.013529062E-1
1.393878329E1,2.782256603E0,2.226538211E-1,-5.848862529E-1
1.394792204E1,3.052709103E0,-7.910472155E-2,-6.281036735E-1
1.395708626E1,3.382719517E0,-4.456130862E-1,-6.542174220E-1
1.396623772E1,3.639733315E0,-7.313368917E-1,-6.404733658E-1
1.397537647E1,3.880101681E0,-9.156600237E-1,-5.421269536E-1
1.398454074E1,4.224772453E0,-1.080741525E0,-3.894151151E-1
1.399369220E1,4.590364456E0,-1.008508801E0,-2.493783981E-1
1.400283095E1,4.908005238E0,-5.435013771E-1,-9.972081333E-2
1.401199517E1,5.027578354E0,-5.818320066E-2,5.512896553E-2
1.402114668E1,4.955956459E0,2.460187376E-1,1.992889196E-1
1.403028538E1,4.831038475E0,4.289674759E-1,3.581092060E-1
1.403944965E1,4.743381500E0,4.233171642E-1,5.193728805E-1
1.404860111E1,4.663666248E0,3.810159862E-1,6.726955175E-1
1.405773986E1,4.586241245E0,3.454341292E-1,8.438854814E-1
1.406690407E1,4.525767326E0,2.426590770E-1,9.320002198E-1
1.407605558E1,4.480717182E0,-2.199050039E-2,9.098569751E-1
1.408519433E1,4.397031307E0,-5.856497884E-1,8.791618943E-1
1.409435855E1,4.229659081E0,-1.301410079E0,8.364025950E-1
1.410351006E1,3.912476778E0,-1.838039398E0,7.472189069E-1
1.411264876E1,3.571471214E0,-2.138881683E0,6.815528274E-1
1.412181303E1,3.338738441E0,-2.354663372E0,6.128324866E-1
1.413096449E1,3.155178785E0,-2.481719732E0,5.743491650E-1
1.414010324E1,2.936190128E0,-2.526158810E0,5.522059202E-1
1.414926746E1,2.647259235E0,-2.526006222E0,5.354076028E-1
1.415841897E1,2.327327967E0,-2.445985079E0,5.013529062E-1
1.416755767E1,1.971051335E0,-2.205616713E0,4.376720488E-1
1.417672194E1,1.567892194E0,-1.810856700E0,3.501681983E-1
1.418587340E1,1.174659252E0,-1.432589531E0,2.793098986E-1
1.419501215E1,8.264763355E-1,-1.150072694E0,2.522799075E-1
1.420417637E1,4.857762754E-1,-8.800781965E-1,2.331909388E-1
1.421332788E1,1.780619770E-1,-5.763344169E-1,2.276933193E-1
1.422246663E1,-8.643488586E-2,-2.910687327E-1,2.305948436E-1
1.423163085E1,-2.712161839E-1,-1.624853760E-1,2.279987335E-1
1.424078236E1,-3.923166394E-1,-1.223221645E-1,1.934858710E-1
1.424992105E1,-4.926483035E-1,-3.710897267E-2,1.591257155E-1
1.425908532E1,-6.314633489E-1,1.133121699E-1,1.531699449E-1
1.426823678E1,-7.956285477E-1,2.530434728E-1,1.977618039E-1
1.427737553E1,-9.422318935E-1,3.530697227E-1,2.783936262E-1
1.428653975E1,-1.061805248E0,3.784198761E-1,3.306210935E-1
1.429569126E1,-1.194511771E0,3.019112647E-1,3.720059693E-1
1.430483001E1,-1.448929667E0,2.793098986E-1,4.056025743E-1
1.431399423E1,-1.857281089E0,4.323271513E-1,4.306473136E-1
1.432314574E1,-2.388718128E0,7.353073955E-1,4.486673176E-1
1.433229720E1,-3.061413765E0,1.088071704E0,4.741701782E-1
1.434144871E1,-3.528253794E0,1.315765023E0,4.840964675E-1
1.435060017E1,-3.124178410E0,1.271325827E0,4.998257756E-1
1.435973892E1,-2.252346516E0,1.265980959E0,6.140542030E-1
1.436890314E1,-2.242420197E0,1.615232825E0,1.019351363E0
1.437805465E1,-2.815242290E0,9.704836011E-1,1.132510781E0
1.438719340E1,-3.170602798E0,-2.884726226E-1,7.730271816E-1
1.439635762E1,-2.640845299E0,1.819866657E0,2.055501044E-1
1.440550907E1,-2.013963461E0,1.964332104E0,-2.457133085E-1
1.441464782E1,-2.026027679E0,3.552076817E-1,-2.988570333E-1
1.442381204E1,-2.186222315E0,8.040276766E-1,-9.407047927E-2
1.443296355E1,-2.204395056E0,1.335922956E0,1.728697717E-1
1.444210230E1,-1.981130362E0,1.146865726E0,4.121691883E-1
1.445126652E1,-1.895000935E0,8.674030900E-1,5.845808387E-1
1.446041803E1,-1.946312070E0,7.235485911E-1,6.404733658E-1
1.446955673E1,-1.871483326E0,4.503471553E-1,5.709894896E-1
1.447872100E1,-1.755727768E0,1.908897758E-1,4.156815708E-1
1.448787246E1,-1.721673012E0,2.764083818E-2,2.762556672E-1
1.449701121E1,-1.716786265E0,1.374406274E-3,1.937913001E-1
1.450617543E1,-1.650814772E0,1.652341783E-1,1.521009654E-1
1.451532694E1,-1.586064935E0,3.660502136E-1,1.560714692E-1
1.452447840E1,-1.591867924E0,4.619532526E-1,1.656923145E-1
1.453362991E1,-1.557355046E0,6.022953987E-1,1.389677525E-1
1.454278142E1,-1.483595252E0,7.023216486E-1,1.278197914E-1
1.455193288E1,-1.436101913E0,7.227849960E-1,9.636115283E-2
1.456108439E1,-1.423732281E0,8.309049606E-1,1.354553849E-1
1.457023585E1,-1.390746474E0,8.646543026E-1,1.386623234E-1
1.457937460E1,-1.344932914E0,7.852441669E-1,1.354553849E-1
1.458853881E1,-1.361273170E0,6.784985662E-1,1.409530044E-1
1.459769032E1,-1.371199369E0,5.482354164E-1,1.006370857E-1
1.460682902E1,-1.391662717E0,4.521796703E-1,6.505523622E-2
1.461599329E1,-1.413500547E0,3.723114133E-1,-5.192201585E-3
1.462514475E1,-1.413653255E0,2.858765125E-1,-7.101099193E-2
1.463428350E1,-1.421899676E0,2.521272004E-1,-8.582404256E-2
1.464344777E1,-1.402352571E0,2.648022771E-1,-9.116895497E-2
1.465259923E1,-1.383721709E0,2.933593988E-1,-4.275930673E-2
1.466175074E1,-1.398534775E0,4.002576768E-1,2.840439789E-2
1.467090220E1,-1.418692708E0,5.051707029E-1,5.268557742E-2
1.468005371E1,-1.408308387E0,5.984776020E-1,5.146388337E-2
1.468920517E1,-1.379598498E0,6.459710002E-1,9.468132630E-3
1.469835668E1,-1.366923451E0,6.164975762E-1,-1.359135192E-2
1.470750814E1,-1.351499557E0,5.519005060E-1,-2.687728032E-2
1.471665965E1,-1.341115117E0,4.260659516E-1,-3.771981969E-2
1.472581111E1,-1.351194143E0,3.283303976E-1,-5.482354015E-2
1.473496262E1,-1.347070932E0,2.889307439E-1,-8.842013776E-2
1.474411413E1,-1.333174109E0,2.725905776E-1,-1.206423342E-1
1.475326558E1,-1.338824511E0,3.581092060E-1,-1.426328421E-1
1.476241710E1,-1.366465330E0,4.240806997E-1,-1.856975704E-1
1.477156855E1,-1.364174604E0,5.450284481E-1,-2.382304370E-1
1.478072006E1,-1.336991906E0,6.974348426E-1,-2.834331393E-1
1.478987152E1,-1.305380583E0,7.146912813E-1,-3.411581814E-1
1.479902303E1,-1.281404853E0,6.114581227E-1,-4.037700295E-1
1.480817449E1,-1.238950968E0,5.632011890E-1,-4.437805414E-1
1.481732600E1,-1.195122719E0,4.895940721E-1,-4.544703662E-1
1.482646475E1,-1.148087382E0,3.981196880E-1,-4.590517282E-1
1.483562897E1,-1.085933685E0,3.542914093E-1,-4.602734149E-1
1.484478048E1,-1.014159203E0,3.898732662E-1,-4.732539058E-1
1.485393194E1,-9.228374958E-1,4.665345848E-1,-4.862344265E-1
1.486308345E1,-8.328902125E-1,5.401417017E-1,-4.978405237E-1
1.487223491E1,-7.435538173E-1,5.618267655E-1,-5.202891231E-1
1.488137366E1,-5.975613594E-1,5.059342384E-1,-5.283828974E-1
1.489053788E1,-3.509317636E-1,3.353551328E-1,-5.008947253E-1
1.489968939E1,5.253286287E-2,7.116370648E-2,-4.398100376E-1
1.490882814E1,6.528429985E-1,-3.964398801E-1,-3.570402265E-1
1.491799236E1,1.373795509E0,-8.328902125E-1,-2.509055138E-1
1.492714387E1,1.821851969E0,-8.087617755E-1,-2.771719396E-1
1.493628256E1,2.072452068E0,-7.389724851E-1,-3.791834414E-1
1.494544683E1,2.303810358E0,-7.780666947E-1,-4.789042473E-1
1.495459829E1,2.555632114E0,-9.559759498E-1,-6.290199757E-1
1.496373704E1,2.826543093E0,-1.322789788E0,-8.205205798E-1
1.497290126E1,3.085847616E0,-1.369977713E0,-9.895725846E-1
1.498205277E1,3.341639996E0,-8.706100583E-1,-1.016144395E0
1.499119152E1,3.617131948E0,-3.205420971E-1,-8.370134830E-1
1.500035574E1,3.833371878E0,-3.710897267E-2,-5.303681493E-1
1.500950720E1,4.124746323E0,2.324273884E-1,-2.958027720E-1
1.501864595E1,4.450022221E0,7.325585485E-1,-1.197260618E-1
1.502781022E1,4.577536583E0,1.260483265E0,1.096470803E-1
1.503696168E1,4.557683945E0,1.383416295E0,3.066453338E-1
1.504610043E1,4.467278481E0,1.210546613E0,3.568875194E-1
1.505526465E1,4.378095150E0,1.130678296E0,4.558447599E-1
1.506441616E1,4.230269909E0,1.118308663E0,5.916055441E-1
1.507355486E1,4.082597733E0,1.163205862E0,7.284353375E-1
1.508271913E1,3.949280262E0,9.051229358E-1,8.864920735E-1
1.509187058E1,3.808480024E0,2.927485406E-1,9.232956171E-1
1.510100933E1,3.646452665E0,-4.366030693E-1,9.501729012E-1
1.511017355E1,3.497253180E0,-1.165496588E0,9.049702287E-1
1.511932506E1,3.312777281E0,-1.869498014E0,7.838697433E-1
1.512846381E1,3.063399076E0,-2.510582209E0,6.354338527E-1
1.513762803E1,2.780576706E0,-2.928707123E0,4.628695250E-1
1.514677954E1,2.499892473E0,-3.048891306E0,3.223746419E-1
1.515591824E1,2.237838984E0,-2.855100155E0,2.238755226E-1
1.516508251E1,2.004647970E0,-2.471640825E0,1.919587553E-1
1.517423397E1,1.763821483E0,-2.018850088E0,2.119639963E-1
1.518337272E1,1.462673783E0,-1.689908981E0,1.832541823E-1
1.519253694E1,1.147018433E0,-1.580261827E0,1.314848661E-1
1.520168845E1,8.551861644E-1,-1.450151443E0,7.864658535E-2
1.521082720E1,5.045598149E-1,-1.226734042E0,1.191152167E-2
1.521999142E1,9.101624042E-2,-1.004080176E0,-4.795150831E-2
1.522914288E1,-2.846548259E-1,-7.449282408E-1,-4.169032723E-2
1.523828163E1,-5.795413256E-1,-3.962871730E-1,8.551862091E-3
1.524744590E1,-7.389724851E-1,-1.004843712E-1,7.253811508E-2
1.525659736E1,-7.667660117E-1,-3.359659761E-2,1.082726792E-1
1.526574887E1,-7.623373866E-1,-6.306997687E-2,1.169772521E-1
1.527490032E1,-8.464815617E-1,1.737860441E-1,1.588202864E-1
1.528405183E1,-1.067455530E0,7.765395641E-1,2.796153426E-1
1.529319053E1,-1.320193648E0,1.400367379E0,4.086568058E-1
1.530235480E1,-1.530325055E0,1.645469785E0,4.607315361E-1
1.531150626E1,-1.754658699E0,1.376849771E0,4.343124032E-1
1.532064501E1,-2.122541428E0,8.402203918E-1,3.790307343E-1
1.532980923E1,-2.681772232E0,5.349494815E-1,3.448232710E-1
1.533896074E1,-3.303614616E0,5.798467398E-1,3.660502136E-1
1.534809949E1,-3.622324228E0,7.156075835E-1,3.984251320E-1
1.535726371E1,-3.230618477E0,6.584933400E-1,4.237752855E-1
1.536641522E1,-2.797527790E0,7.650861740E-1,5.349494815E-1
1.537555392E1,-2.847464561E0,1.121668339E0,8.212841153E-1
1.538471819E1,-3.103562117E0,-2.257080674E-1,9.504783154E-1
1.539386965E1,-3.076379538E0,-8.918370008E-1,8.620582223E-1
1.540300840E1,-2.474694967E0,6.021426916E-1,6.429167390E-1
1.541217262E1,-2.059929609E0,8.437327743E-1,4.483618736E-1
1.542132413E1,-2.037786484E0,8.383878320E-2,2.837385535E-1
1.543046288E1,-1.984795451E0,4.572191834E-1,2.342599183E-1
1.543962710E1,-1.838192105E0,3.339807391E-1,2.214321345E-1
1.544877855E1,-1.632794738E0,-5.238015205E-2,2.524326444E-1
1.545791730E1,-1.506960154E0,-1.543916464E-1,3.126010895E-1
1.546708157E1,-1.454427361E0,4.199574888E-2,2.945810854E-1
1.547623303E1,-1.413500547E0,2.018850148E-1,1.829487532E-1
1.548537178E1,-1.367228866E0,2.498365343E-1,7.085828483E-2
1.549453600E1,-1.335312128E0,3.129065037E-1,-9.162708884E-4
1.550368751E1,-1.218793035E0,4.187358022E-1,-8.078455180E-2
1.551282621E1,-1.037371397E0,4.947862923E-1,-1.357607991E-1
1.552199048E1,-9.498674870E-1,6.491779089E-1,-1.524063945E-1
1.553114194E1,-8.945857882E-1,8.877137899E-1,-1.716480851E-1
1.554029345E1,-8.160919547E-1,1.114032745E0,-1.243074164E-1
1.554944491E1,-7.346965671E-1,1.209172130E0,-2.550287358E-2
1.555859642E1,-7.620319724E-1,1.217113137E0,1.221694518E-2
1.556773517E1,-8.652651310E-1,1.161678791E0,5.238015205E-2
1.557689939E1,-9.487984776E-1,1.036302328E0,1.020114943E-1
1.558605090E1,-9.914051294E-1,9.423846006E-1,1.255291104E-1
1.559518960E1,-9.889616966E-1,9.000834227E-1,1.116323397E-1
1.560435387E1,-9.752176404E-1,8.006680608E-1,9.773556143E-2
1.561350532E1,-9.917105436E-1,6.577298045E-1,8.368607610E-2
1.562264407E1,-1.067302823E0,5.575508475E-1,6.734590977E-2
1.563180829E1,-1.116323352E0,4.634803534E-1,6.276455522E-2
1.564095980E1,-1.128540277E0,4.592044353E-1,6.642963737E-2
1.565009855E1,-1.133579850E0,4.657710493E-1,6.139015034E-2
1.565926277E1,-1.176339149E0,4.898995161E-1,6.536065787E-2
1.566841423E1,-1.227039456E0,5.192201734E-1,3.863608837E-2
1.567756574E1,-1.249335408E0,4.769189954E-1,1.527118147E-4
1.568671725E1,-1.279419541E0,4.636330605E-1,-8.551862091E-3
1.569586871E1,-1.346765518E0,4.773771465E-1,2.809897438E-2
1.570502017E1,-1.389524817E0,4.214846194E-1,4.993676394E-2
1.571417168E1,-1.428771734E0,3.129065037E-1,6.856760383E-2
1.572332319E1,-1.517650008E0,1.982199401E-1,5.467082933E-2
1.573246189E1,-1.611873150E0,1.455343664E-1,1.130067464E-2
1.574162616E1,-1.687770963E0,2.547233105E-1,-6.383354217E-2
1.575077762E1,-1.749771953E0,3.393256664E-1,-1.650814712E-1
1.575992913E1,-1.798487067E0,4.019374847E-1,-2.858765125E-1
1.576908058E1,-1.859724522E0,5.383091569E-1,-3.840702176E-1
1.577823210E1,-1.933942437E0,6.746807694E-1,-4.463766217E-1
1.578738355E1,-1.958681703E0,7.624900937E-1,-4.747810364E-1
1.579653506E1,-1.941578031E0,7.782194018E-1,-4.764608741E-1
1.580568657E1,-1.921420097E0,7.307260633E-1,-4.585935771E-1
1.581483803E1,-1.887518048E0,6.679614782E-1,-4.815003574E-1
1.582398954E1,-1.825211644E0,6.174138784E-1,-5.268557668E-1
1.583314100E1,-1.754353285E0,6.371136904E-1,-5.685460567E-1
1.584227975E1,-1.643790007E0,7.070556879E-1,-6.201626658E-1
1.585144397E1,-1.469087601E0,6.897992492E-1,-6.452074051E-1
1.586059548E1,-1.203827262E0,5.047125220E-1,-6.065713167E-1
1.586973418E1,-7.835643291E-1,1.304158866E-1,-5.135698318E-1
1.587889845E1,-1.734806150E-1,-3.261924386E-1,-3.874298632E-1
1.588804991E1,5.367820263E-1,-4.871506989E-1,-2.576248348E-1
1.589718866E1,1.140909910E0,-1.846285909E-1,-1.821851879E-1
1.590635293E1,1.374864459E0,3.436015844E-1,-1.992889196E-1
1.591550439E1,1.623784781E0,5.859552622E-1,-2.641914487E-1
1.592464314E1,1.994721770E0,1.936385781E-1,-4.005630910E-1
1.593380736E1,2.356343269E0,-6.920899153E-1,-5.683933496E-1
1.594295887E1,2.629544735E0,-1.133885264E0,-6.907155514E-1
1.595209756E1,2.878464937E0,-9.936957955E-1,-6.633801460E-1
1.596126183E1,3.199159861E0,-7.411104441E-1,-5.062396526E-1
1.597041329E1,3.472972155E0,-5.760289431E-1,-3.199312389E-1
1.597955204E1,3.585215330E0,-5.903838873E-1,-1.566823274E-1
1.598871626E1,3.696847677E0,-4.940227270E-1,-5.222744122E-2
1.599786777E1,3.917668819E0,-1.963873953E-1,1.679830020E-3
1.600700652E1,4.204919815E0,1.899735034E-1,4.611896724E-2
1.601617074E1,4.432460308E0,6.311579347E-1,1.475196183E-1
1.602532225E1,4.546689034E0,7.971556783E-1,3.480302393E-1
1.603446095E1,4.594793320E0,7.321004272E-1,6.250494719E-1
1.604362522E1,4.604108334E0,4.176668227E-1,8.273926377E-1
1.605277668E1,4.518437386E0,-1.139230132E-1,6.494833231E-1
1.606191543E1,4.286009789E0,-3.103103936E-1,3.060344756E-1
1.607107965E1,4.195756912E0,-1.901262105E-1,2.619007528E-1
1.608023116E1,4.226452351E0,-2.513636351E-1,4.350759685E-1
1.608936986E1,4.266767979E0,-4.178195298E-1,5.551074743E-1
1.609853413E1,4.250580788E0,-7.085828185E-1,6.267293096E-1
1.610768558E1,4.147042274E0,-1.192679286E0,6.067240238E-1
1.611682433E1,3.967911005E0,-1.650967479E0,4.921901822E-1
1.612598855E1,3.743424654E0,-2.101467371E0,3.077143133E-1
1.613514006E1,3.489770412E0,-2.455300570E0,1.078145429E-1
1.614427881E1,3.224051714E0,-2.573194027E0,-6.490252167E-2
1.615344303E1,2.966732502E0,-2.477138281E0,-2.086043358E-1
1.616259454E1,2.692156553E0,-2.260440350E0,-3.138227761E-1
1.617173324E1,2.396048307E0,-2.010298252E0,-3.307738006E-1
1.618089751E1,2.074284554E0,-1.820324779E0,-3.087832928E-1
1.619004897E1,1.699224353E0,-1.647913218E0,-2.987042964E-1
1.619918772E1,1.316223145E0,-1.488787532E0,-2.997733057E-1
1.620835194E1,9.355126023E-1,-1.374864459E0,-2.866400778E-1
1.621750345E1,5.632011890E-1,-1.262010455E0,-2.331909388E-1
1.622664220E1,2.304421216E-1,-1.097692490E0,-1.495048702E-1
1.623580642E1,-2.626643144E-2,-8.170081973E-1,-6.108472496E-2
1.624495793E1,-1.937913001E-1,-4.697415531E-1,4.306473210E-2
1.625409663E1,-2.759502530E-1,-1.536280811E-1,1.681357026E-1
1.626326090E1,-3.153499067E-1,9.758284688E-2,3.403946459E-1
1.627241236E1,-3.965925872E-1,2.791571915E-1,5.405998230E-1
1.628155111E1,-5.709894896E-1,4.566083252E-1,7.395833135E-1
1.629071532E1,-7.818844914E-1,6.620057225E-1,9.283351302E-1
1.629986683E1,-9.691091776E-1,7.056813240E-1,1.069898963E0
1.630900553E1,-9.837695360E-1,4.480564594E-1,1.140909910E0
1.631816980E1,-8.006680608E-1,-1.466033421E-2,1.091125965E0
1.632732126E1,-9.637642503E-1,-3.975088596E-1,9.437590241E-1
1.633646001E1,-1.698613524E0,-5.037962794E-1,7.463026643E-1
1.634562423E1,-2.282278061E0,-2.119639963E-1,5.783196688E-1
1.635477574E1,-2.338934183E0,4.016320780E-2,4.793623984E-1
1.636391449E1,-2.193552494E0,-1.478250325E-1,4.585935771E-1
1.637307871E1,-2.134911060E0,-9.956810623E-2,5.879405141E-1
1.638223017E1,-2.295869350E0,1.560714692E-1,8.509102464E-1
1.639136892E1,-2.766985416E0,-1.983726472E-1,1.026834249E0
1.640053319E1,-2.518217802E0,2.200577259E-1,9.487984776E-1
1.640968465E1,-2.378486633E0,8.608365059E-1,8.009734750E-1
1.641882340E1,-2.580066204E0,8.502993584E-1,6.762079000E-1
1.642798762E1,-2.536085129E0,8.115105629E-1,5.966450572E-1
1.643713913E1,-2.433615446E0,3.975088596E-1,6.733064055E-1
1.644629058E1,-2.442778111E0,1.901262105E-1,8.174663186E-1
1.645544210E1,-2.497907162E0,6.036698222E-1,8.987090588E-1
1.646459355E1,-2.471640825E0,1.065164924E0,8.568660021E-1
1.647373230E1,-2.402920485E0,1.274227381E0,7.956285477E-1
1.648289652E1,-2.372836113E0,1.149309158E0,7.574505806E-1
1.649204803E1,-2.330687761E0,9.483403563E-1,6.827745438E-1
1.650118678E1,-2.224553108E0,8.069292307E-1,5.358657837E-1
1.651035100E1,-2.112767935E0,6.528429985E-1,3.633013964E-1
1.651950251E1,-2.012283564E0,5.228852630E-1,1.931804419E-1
1.652865397E1,-1.938981891E0,4.523324072E-1,3.313846514E-2
1.653780548E1,-1.897749662E0,4.501944184E-1,-9.300149232E-2
1.654695694E1,-1.870108843E0,4.981459379E-1,-1.708845198E-1
1.655609569E1,-1.847354770E0,5.323534012E-1,-2.179197669E-1
1.656525991E1,-1.808260560E0,5.726693273E-1,-2.389939874E-1
1.657441142E1,-1.759087443E0,6.607840061E-1,-2.240282297E-1
1.658356293E1,-1.687160134E0,7.273663878E-1,-1.930277348E-1
1.659271439E1,-1.640124917E0,7.606575489E-1,-1.603474021E-1
1.660186585E1,-1.620119691E0,7.945595980E-1,-1.253764033E-1
1.661100460E1,-1.607902646E0,7.826480269E-1,-9.849911928E-2
1.662016887E1,-1.606680989E0,7.253811359E-1,-1.117850468E-1
1.662932032E1,-1.596143842E0,6.667397618E-1,-1.356080920E-1
1.663847183E1,-1.559340358E0,6.096255779E-1,-1.432436854E-1
1.664762329E1,-1.560256600E0,5.711421967E-1,-1.304158866E-1
1.665677480E1,-1.610040665E0,5.697677732E-1,-1.392731816E-1
1.666592626E1,-1.669445515E0,5.436540842E-1,-1.873773932E-1
1.667507777E1,-1.700751424E0,4.752391577E-1,-2.380777150E-1
1.668422923E1,-1.706707239E0,3.842229247E-1,-2.435753495E-1
1.669338074E1,-1.694643021E0,2.770192325E-1,-2.348707765E-1
1.670253220E1,-1.664864182E0,1.365243644E-1,-2.632751763E-1
1.671168371E1,-1.621188641E0,3.451287001E-2,-3.197785318E-1
1.672083522E1,-1.593242407E0,3.206948191E-2,-3.695625961E-1
1.672998668E1,-1.555369854E0,8.735115826E-2,-4.140017331E-1
1.673913819E1,-1.482373595E0,1.481304616E-1,-4.550811946E-1
1.674828965E1,-1.394411564E0,1.898207814E-1,-4.837910235E-1
1.675744116E1,-1.304158926E0,2.278460264E-1,-4.856235683E-1
1.676659262E1,-1.326607585E0,3.026748300E-1,-4.564556181E-1
1.677574413E1,-1.383263588E0,2.910687327E-1,-4.477510452E-1
1.678489558E1,-1.197566032E0,3.903313875E-1,-4.127800465E-1
1.679404710E1,-1.284764528E0,9.246700406E-1,-2.770192325E-1
1.680318584E1,-1.275143623E0,9.746068120E-1,-1.621799469E-1
1.681235006E1,-1.130525589E0,9.498674870E-1,-7.941014320E-2
1.682150152E1,-1.119988441E0,1.124111652E0,-1.649287529E-2
1.683065303E1,-9.970554113E-1,1.018587828E0,2.351761982E-2
1.683980454E1,-8.435800672E-1,8.878664970E-1,-5.803049076E-3
1.684895600E1,-8.298360109E-1,9.075663090E-1,-6.933116168E-2
1.685810751E1,-8.406785131E-1,9.759812355E-1,-1.194206402E-1
1.686725897E1,-8.302941322E-1,1.125944257E0,-1.615691036E-1
1.687641048E1,-7.911999226E-1,1.262163162E0,-1.895153672E-1
1.688554923E1,-6.636855602E-1,1.209324837E0,-2.063136548E-1
1.689471345E1,-4.810422063E-1,9.857547879E-1,-2.305948436E-1
1.690386496E1,-3.501681983E-1,6.195518374E-1,-2.599155009E-1
1.691301642E1,-2.722851634E-1,1.977618039E-1,-2.816005945E-1
1.692216793E1,-2.535016239E-1,-4.321744293E-2,-2.971771955E-1
1.693131939E1,-2.704526186E-1,-7.589777559E-2,-2.983988822E-1
1.694047090E1,-2.819060087E-1,-2.947338112E-2,-2.979407609E-1
1.694962236E1,-3.074088693E-1,-1.832541777E-3,-3.202366829E-1
1.695877387E1,-3.422271907E-1,-1.053711493E-2,-3.662029207E-1
1.696792532E1,-3.614688516E-1,2.000524849E-2,-3.993414044E-1
1.697707683E1,-3.370349705E-1,1.140757278E-1,-3.936910629E-1
1.698622834E1,-2.596100867E-1,1.847812980E-1,-3.516952991E-1
1.699537980E1,-1.369825006E-1,1.498102844E-1,-2.817533016E-1
1.700453131E1,1.435491070E-2,2.076880634E-2,-2.079934925E-1
1.701368277E1,1.302631795E-1,-8.429691941E-2,-1.374406368E-1
1.702282152E1,1.881409585E-1,-7.116370648E-2,-3.206948191E-2
1.703198574E1,2.516690791E-1,2.397575416E-2,7.146912813E-2
1.704113725E1,3.338280320E-1,1.146865711E-1,1.197260618E-1
1.705027600E1,4.023956358E-1,1.889045089E-1,9.804098308E-2
1.705944022E1,3.907895386E-1,4.109475017E-1,2.214321308E-2
1.706859168E1,2.962609231E-1,6.792621613E-1,-5.635065958E-2
1.707774319E1,2.176143378E-1,8.162446618E-1,-1.076618284E-1
1.708689470E1,1.879882365E-1,7.840224504E-1,-1.682884246E-1
1.709604616E1,1.765348613E-1,6.343649030E-1,-2.194468826E-1
1.710518491E1,1.611109674E-1,4.414898455E-1,-2.432699203E-1
1.711434913E1,1.517955512E-1,2.336490750E-1,-2.188360244E-1
1.712350064E1,1.348445266E-1,4.337015375E-2,-1.705790907E-1
1.713263939E1,5.909947306E-2,-5.665608495E-2,-1.472141892E-1
1.714180360E1,-1.108687744E-1,-7.498150319E-2,-1.466033459E-1
1.715095506E1,-2.936648130E-1,-1.102579311E-1,-1.319430023E-1
1.716010657E1,-4.101839364E-1,-2.519744933E-1,-1.107160673E-1
1.716925803E1,-4.619532526E-1,-5.334223509E-1,-1.009425074E-1
1.717840954E1,-4.873034060E-1,-8.727480173E-1,-1.052184403E-1
1.718756105E1,-5.218162537E-1,-1.143353343E0,-1.175880954E-1
1.719671251E1,-5.720584393E-1,-1.250098944E0,-1.207950488E-1
1.720586402E1,-6.135960817E-1,-1.156792045E0,-1.163664013E-1
1.721500272E1,-6.274928451E-1,-9.181034565E-1,-9.407047927E-2
1.722416699E1,-6.056550741E-1,-6.238277555E-1,-4.886778072E-2
1.723331845E1,-5.416688323E-1,-2.980934680E-1,1.175880991E-2
1.724245720E1,-4.246915579E-1,5.192201585E-2,7.528692484E-2
1.725162147E1,-2.368560284E-1,3.878880143E-1,1.264453828E-1
1.726077293E1,-2.626643144E-2,6.113054156E-1,1.406475753E-1
1.726992444E1,1.217113137E-1,6.103891134E-1,1.250709742E-1
1.727907590E1,2.394521236E-1,4.193466306E-1,1.053711548E-1
1.728822741E1,3.002314270E-1,1.669140160E-1,9.009996802E-2
1.729736611E1,2.360924631E-1,4.688252881E-2,7.009471953E-2
1.730653038E1,6.978929788E-2,1.134648770E-1,5.299099907E-2
1.731568183E1,-9.254335612E-2,2.956500649E-1,9.620844387E-3
1.732482058E1,-2.076880634E-1,5.216635466E-1,-5.176930502E-2
1.733398480E1,-3.237490356E-1,7.846332788E-1,-1.047603041E-1
1.734313631E1,-4.498890042E-1,1.034469843E0,-1.288887709E-1
1.735227506E1,-5.674771070E-1,1.176491857E0,-1.366770715E-1
1.736143928E1,-6.326850653E-1,1.160151601E0,-1.534753740E-1
1.737059079E1,-6.277982593E-1,9.513946176E-1,-1.661504507E-1
1.737972954E1,-5.745018721E-1,5.719057322E-1,-1.521009654E-1
1.738889376E1,-5.137225389E-1,1.661504507E-1,-1.043021679E-1
1.739804522E1,-4.756973088E-1,-1.317902952E-1,-3.191677108E-2
1.740718397E1,-4.550811946E-1,-2.670929730E-1,5.940489471E-2
1.741634824E1,-4.202629030E-1,-2.654131353E-1,1.340809762E-1
1.742549970E1,-3.768927455E-1,-1.695101112E-1,1.655396074E-1
1.743463845E1,-3.486410677E-1,-2.657185495E-2,1.681357026E-1
1.744380267E1,-3.098522723E-1,1.319430023E-1,1.571404636E-1
1.745295418E1,-2.487675399E-1,2.608317733E-1,1.478250325E-1
1.746210564E1,-1.766875684E-1,3.399364948E-1,1.501157135E-1
1.747125715E1,-1.174353883E-1,3.768927455E-1,1.693574041E-1
1.748040866E1,-8.796200156E-2,3.776563108E-1,1.959292591E-1
1.748956012E1,-7.711946964E-2,3.426853120E-1,2.069245130E-1
1.749871163E1,-7.238540053E-2,2.968717813E-1,1.942494214E-1
1.750786308E1,-5.467082933E-2,2.588465214E-1,1.620272398E-1
1.751701460E1,-3.145863488E-2,2.304421216E-1,1.188097894E-1
1.752616605E1,-2.794626169E-2,2.157817930E-1,6.948387623E-2
1.753531756E1,-6.047387794E-2,2.160872221E-1,1.236965694E-2
1.754446907E1,-1.146865711E-1,1.869192570E-1,-5.268557742E-2
1.755362053E1,-1.470614821E-1,1.046075895E-1,-1.188097894E-1
1.756277204E1,-1.496575773E-1,6.872031838E-3,-1.615691036E-1
1.757192350E1,-1.585148573E-1,-4.978405312E-2,-1.603474021E-1
1.758107501E1,-1.850867122E-1,-5.940489471E-2,-1.262926757E-1
1.759022647E1,-2.168507725E-1,-4.779879749E-2,-7.406523079E-2
1.759937798E1,-2.528907657E-1,-3.619270027E-2,-2.000524849E-2
1.760852944E1,-2.874036431E-1,-3.603998944E-2,1.588202827E-2
1.761768095E1,-3.225273490E-1,-5.115845799E-2,3.573456407E-2
1.762683246E1,-3.552076817E-1,-5.421269313E-2,4.230117425E-2
1.763598392E1,-3.689517379E-1,-3.802524135E-2,3.054236248E-2
1.764513543E1,-3.648285270E-1,-1.695101149E-2,1.588202827E-2
1.765428689E1,-3.486410677E-1,-5.039489828E-3,-9.009997360E-3
1.766343840E1,-3.226800561E-1,2.748812549E-3,-3.634541109E-2
1.767258991E1,-2.918322682E-1,7.635590620E-3,-5.268557742E-2
1.768174137E1,-2.611372173E-1,1.786728203E-2,-5.971032009E-2
1.769089288E1,-2.336490750E-1,4.443913698E-2,-5.039490014E-2
1.770004433E1,-2.137965411E-1,8.674030751E-2,-2.580829710E-2
1.770919584E1,-2.050919682E-1,1.333174109E-1,7.177455351E-3
1.771834730E1,-2.087570578E-1,1.707318127E-1,3.894151375E-2
1.772749881E1,-2.084516287E-1,1.944021434E-1,6.200099736E-2
1.773665027E1,-1.962346882E-1,2.107423097E-1,6.520794332E-2
1.774580178E1,-1.795890927E-1,2.250972092E-1,4.886778072E-2
1.775495329E1,-1.537808031E-1,2.402156889E-1,2.626643144E-2
1.776410475E1,-1.093416587E-1,2.533488870E-1,-3.054236295E-4
1.777325626E1,-5.573981255E-2,2.580829561E-1,-2.489202656E-2
1.778240772E1,-5.192201585E-3,2.527380586E-1,-3.497100621E-2
1.779155923E1,3.466558084E-2,2.214321345E-1,-3.649812192E-2
1.780071069E1,5.787777901E-2,1.637070626E-1,-3.436015919E-2
1.780986220E1,6.658235192E-2,9.147437662E-2,-2.809897438E-2
1.781901371E1,6.948387623E-2,3.603998944E-2,-1.404948719E-2
1.782816517E1,6.459710002E-2,1.389677543E-2,7.330167107E-3
1.783731668E1,4.932591692E-2,-2.290677279E-3,2.916795574E-2
1.784646814E1,3.833066672E-2,-2.336490713E-2,4.749337584E-2
1.785561965E1,3.359659761E-2,-5.238015205E-2,6.093201414E-2
1.786477116E1,3.313846514E-2,-7.574506104E-2,6.704048812E-2
1.787392262E1,3.558185324E-2,-8.002099395E-2,6.948387623E-2
1.788307413E1,3.191677108E-2,-7.589777559E-2,6.642963737E-2
1.789222558E1,2.336490713E-2,-7.773031294E-2,5.833591148E-2
1.790137710E1,1.466033421E-2,-7.589777559E-2,4.428642616E-2
1.791052855E1,1.099525020E-2,-6.215370819E-2,2.840439789E-2
1.791968006E1,1.068982761E-3,-4.337015375E-2,2.275406010E-2
1.792883157E1,-1.832541823E-2,-2.901524492E-2,3.054236248E-2
1.793798303E1,-3.619270027E-2,-3.741439432E-2,4.321744293E-2
1.794713454E1,-4.520269856E-2,-5.726693198E-2,5.238015205E-2
1.795628600E1,-4.703523964E-2,-6.933116168E-2,5.604523420E-2
1.796543751E1,-3.970507160E-2,-6.688777357E-2,5.726693198E-2
1.797458897E1,-3.298575059E-2,-4.764608666E-2,5.864133686E-2
1.798374048E1,-2.214321308E-2,-2.825168520E-2,5.803048983E-2
1.799289199E1,-6.719320081E-3,-2.229592577E-2,5.696150661E-2
1.800204345E1,6.261184346E-3,-2.825168520E-2,6.062658876E-2
1.801119496E1,1.557660475E-2,-3.252761811E-2,6.261184067E-2
1.802034642E1,2.718270384E-2,-3.008422814E-2,5.711421743E-2
1.802949793E1,4.016320780E-2,-1.985253580E-2,4.688252881E-2
1.803864944E1,4.917320609E-2,-1.679830020E-3,3.588727489E-2
1.804780090E1,5.467082933E-2,2.473931387E-2,3.237490356E-2
1.805695241E1,6.429167092E-2,4.046862945E-2,3.726168349E-2
1.806610387E1,7.971556485E-2,3.573456407E-2,4.581354558E-2
1.807525538E1,9.651386738E-2,1.771457121E-2,5.757235363E-2
1.808440689E1,1.133121699E-1,-1.481304597E-2,6.505523622E-2
1.809355834E1,1.247655526E-1,-4.978405312E-2,6.093201414E-2
1.810270986E1,1.230857223E-1,-6.673506647E-2,5.115845799E-2
1.811186131E1,1.163664013E-1,-6.429167092E-2,4.016320780E-2
1.812101282E1,1.094943732E-1,-4.871506989E-2,2.901524492E-2
1.813016428E1,1.026223376E-1,-2.580829710E-2,2.351761982E-2
1.813931579E1,1.010952219E-1,-4.581354442E-4,2.351761982E-2
1.814846725E1,1.021642014E-1,1.145338640E-2,3.206948191E-2
1.815761876E1,9.804098308E-2,-8.857285604E-3,4.062134400E-2
1.816677027E1,9.223793447E-2,-5.528167635E-2,4.001049697E-2
1.817592173E1,8.948912472E-2,-9.208522737E-2,3.329117596E-2
1.818507324E1,8.292251825E-2,-1.053711548E-1,2.641914412E-2
1.819422470E1,7.864658535E-2,-1.211004704E-1,2.641914412E-2
1.820337621E1,7.375980914E-2,-1.235438585E-1,2.092151903E-2
1.821252772E1,5.573981255E-2,-1.012479365E-1,2.199050039E-2
1.822167918E1,2.840439789E-2,-7.650861889E-2,2.367033064E-2
1.823083069E1,9.926267900E-3,-7.360709459E-2,2.290677279E-2
1.823998215E1,1.832541777E-3,-7.727217674E-2,1.496575773E-2
1.824913366E1,-9.773556143E-3,-7.727217674E-2,8.093725890E-3
1.825828512E1,-2.519745007E-2,-6.520794332E-2,7.941014133E-3
1.826743663E1,-3.268032894E-2,-6.704048812E-2,1.099525020E-2
1.827658814E1,-3.558185324E-2,-7.910472155E-2,7.941014133E-3
1.828573960E1,-4.245388508E-2,-7.314895838E-2,9.620844387E-3
1.829489110E1,-5.115845799E-2,-7.375980914E-2,1.450762246E-2
1.830404256E1,-5.405998230E-2,-8.933641016E-2,1.817270555E-2
1.831319407E1,-5.207473040E-2,-1.087308154E-1,1.572931744E-2
1.832234558E1,-4.581354558E-2,-1.171299592E-1,6.719320081E-3
1.833149704E1,-4.031591862E-2,-1.117850468E-1,-1.221694518E-3
1.834064855E1,-3.787253052E-2,-1.038440317E-1,-3.665083554E-3
1.834980001E1,-3.527642787E-2,-1.056765765E-1,-4.886778072E-3
1.835895152E1,-3.268032894E-2,-1.189625040E-1,-6.108472589E-3
1.836810303E1,-2.779355086E-2,-1.183516532E-1,-7.941014133E-3
1.837725449E1,-1.817270555E-2,-9.788827598E-2,-6.566607859E-3
1.838640600E1,-6.566607859E-3,-7.910472155E-2,-1.068982761E-3
1.839555746E1,3.206948051E-3,-7.131642103E-2,-3.054236295E-4
1.840470897E1,1.068982668E-2,-8.689302206E-2,2.748812549E-3
1.841386043E1,1.588202827E-2,-1.104106456E-1,6.413896102E-3
1.842301194E1,1.832541823E-2,-1.175880954E-1,1.206423342E-2
1.843216345E1,2.000524849E-2,-1.128540337E-1,2.244863659E-2
1.844131491E1,1.634016447E-2,-1.127013192E-1,2.840439789E-2
1.845046642E1,9.620844387E-3,-1.206423342E-1,2.473931387E-2
1.845961788E1,4.734066315E-3,-1.218640283E-1,9.468132630E-3
1.846876939E1,-3.359660041E-3,-1.003316641E-1,-4.734066315E-3
1.847792090E1,-1.527118124E-2,-6.230641901E-2,-1.023169141E-2
1.848707236E1,-2.672456764E-2,-3.283303976E-2,-9.773556143E-3
1.849622387E1,-3.176405653E-2,-2.260134928E-2,-4.886778072E-3
1.850537532E1,-3.359659761E-2,-2.565558441E-2,-3.665083554E-3
