"Time (s)","Gyroscope x (rad/s)","Gyroscope y (rad/s)","Gyroscope z (rad/s)"
8.580030109E0,1.053711493E-2,4.123218823E-3,-2.367033064E-2
8.589181880E0,3.206948051E-3,4.123218823E-3,-2.733541466E-2
8.598333599E0,-4.886778072E-3,5.803049076E-3,-2.565558441E-2
8.607485318E0,-7.941014133E-3,8.857285604E-3,-2.565558441E-2
8.616637037E0,-4.275931045E-3,9.468132630E-3,-2.565558441E-2
8.625788807E0,6.261184346E-3,7.024743594E-3,-2.916795574E-2
8.634940526E0,2.229592577E-2,9.468132630E-3,-3.649812192E-2
8.644092245E0,3.405473381E-2,7.024743594E-3,-4.428642616E-2
8.653243964E0,3.420744836E-2,2.290677279E-3,-5.100574717E-2
8.662395734E0,3.054236248E-2,-5.039489828E-3,-5.894676223E-2
8.671547453E0,2.764083818E-2,-1.466033421E-2,-6.627693027E-2
8.680699172E0,2.764083818E-2,-1.893626526E-2,-6.749862432E-2
8.689850891E0,3.069507517E-2,-2.489202656E-2,-5.894676223E-2
8.699002662E0,3.390202299E-2,-3.634541109E-2,-4.611896724E-2
8.708154380E0,3.145863488E-2,-4.107947648E-2,-4.001049697E-2
8.717306099E0,3.634541109E-2,-4.291202128E-2,-4.062134400E-2
8.726457818E0,5.253286287E-2,-5.008947477E-2,-4.718795046E-2
8.735609589E0,7.666133344E-2,-6.520794332E-2,-5.864133686E-2
8.744761307E0,1.059819981E-1,-8.689302206E-2,-7.299624383E-2
8.753913026E0,1.333174109E-1,-1.097997949E-1,-8.994726092E-2
8.763064745E0,1.575985998E-1,-1.302631795E-1,-1.056765765E-1
8.772216516E0,1.849340051E-1,-1.537808031E-1,-1.157555580E-1
8.781368234E0,2.148655206E-1,-1.852394342E-1,-1.265980899E-1
8.790519953E0,2.498365343E-1,-2.249445021E-1,-1.397313178E-1
8.799671724E0,2.996205688E-1,-2.646495700E-1,-1.563768983E-1
8.808823443E0,3.590254784E-1,-2.898470163E-1,-1.711899489E-1
8.817975162E0,4.182776511E-1,-3.025220931E-1,-1.837123185E-1
8.827126880E0,4.634803534E-1,-3.043546379E-1,-2.005106062E-1
8.836278651E0,4.900522232E-1,-3.067980409E-1,-2.258607745E-1
8.845430370E0,5.100574493E-1,-3.177932799E-1,-2.550287247E-1
8.854582089E0,5.331169367E-1,-3.364241421E-1,-2.841966748E-1
8.863733807E0,5.653391480E-1,-3.535278440E-1,-3.217637837E-1
8.872885578E0,6.027535200E-1,-3.686463237E-1,-3.623851240E-1
8.882037297E0,6.404733658E-1,-3.741439581E-1,-4.056025743E-1
8.891189016E0,6.832326651E-1,-3.755183518E-1,-4.407263100E-1
8.900340734E0,7.369872332E-1,-3.742966652E-1,-4.653128982E-1
8.909492453E0,8.003626466E-1,-3.687990308E-1,-4.782933891E-1
8.918644224E0,8.663341403E-1,-3.596363366E-1,-4.827220440E-1
8.927795943E0,9.313893318E-1,-3.359659910E-1,-4.779879749E-1
8.936947662E0,1.001636744E0,-2.666348219E-1,-4.793623984E-1
8.946086672E0,1.088987947E0,-1.658450365E-1,-4.860817194E-1
8.955251151E0,1.189166903E0,-5.787777901E-2,-4.964661002E-1
8.964402870E0,1.293469071E0,1.985253533E-3,-5.007420182E-1
8.973554589E0,1.390441060E0,-8.658760041E-2,-5.073086619E-1
8.982706359E0,1.482679009E0,-3.394783735E-1,-5.230379701E-1
8.991858078E0,1.571099162E0,-6.371136904E-1,-5.318952799E-1
9.001009797E0,1.705943704E0,-8.380824327E-1,-5.234960914E-1
9.010161516E0,1.914089918E0,-8.991671801E-1,-4.889832437E-1
9.019313287E0,2.163010120E0,-8.382351398E-1,-4.451549351E-1
9.028465005E0,2.394215822E0,-6.951441765E-1,-4.576773047E-1
9.037616724E0,2.553188801E0,-5.723638535E-1,-5.586197972E-1
9.046768443E0,2.597322464E0,-5.517477989E-1,-7.017107606E-1
9.055920214E0,2.541429996E0,-6.733064055E-1,-7.918107510E-1
9.065071932E0,2.418802500E0,-8.133431077E-1,-7.931851745E-1
9.074223651E0,2.279223919E0,-8.616000414E-1,-7.765395641E-1
9.083375370E0,2.183320761E0,-8.220477104E-1,-7.802046537E-1
9.092527141E0,2.116433144E0,-7.601994276E-1,-8.052493930E-1
9.101678859E0,2.074437380E0,-7.308787704E-1,-8.579349518E-1
9.110830578E0,2.061609507E0,-7.371399403E-1,-8.941276670E-1
9.119982297E0,2.065579891E0,-7.481352091E-1,-9.226847887E-1
9.129134068E0,2.063594818E0,-7.125533223E-1,-9.454388618E-1
9.138285787E0,2.086654186E0,-6.467345357E-1,-8.884773254E-1
9.147437505E0,2.132467747E0,-6.461237073E-1,-7.776085734E-1
9.156589224E0,2.152778387E0,-7.427902818E-1,-6.949914694E-1
9.165728234E0,2.120098114E0,-8.379297256E-1,-6.615476012E-1
9.174892714E0,2.098412991E0,-8.779402375E-1,-6.861341596E-1
9.184044432E0,2.104826927E0,-7.933378816E-1,-7.795938253E-1
9.193196203E0,2.119181871E0,-6.983511448E-1,-8.686248064E-1
9.202347922E0,2.112462521E0,-6.250494719E-1,-9.139801860E-1
9.211499641E0,2.053973913E0,-5.499152541E-1,-9.156600237E-1
9.220651359E0,1.942341566E0,-4.979932308E-1,-8.780929446E-1
9.229803130E0,1.787644506E0,-5.311316848E-1,-8.107470274E-1
9.238954849E0,1.628366113E0,-5.957288146E-1,-7.562289238E-1
9.248106568E0,1.505891204E0,-6.229115129E-1,-7.447755337E-1
9.257258287E0,1.421899676E0,-6.105418205E-1,-7.514948249E-1
9.266410057E0,1.352568507E0,-5.792359114E-1,-7.441646457E-1
9.275561776E0,1.288276911E0,-5.743491650E-1,-7.073611021E-1
9.284713495E0,1.221083641E0,-6.026008129E-1,-6.534538269E-1
9.293865214E0,1.139535546E0,-5.971031785E-1,-6.058077812E-1
9.303016984E0,1.050809979E0,-5.392253995E-1,-5.685460567E-1
9.312168703E0,9.785773158E-1,-4.772244096E-1,-5.428904891E-1
9.321320422E0,9.200887084E-1,-4.205683470E-1,-5.268557668E-1
9.330472141E0,8.513683677E-1,-3.839175105E-1,-5.224271417E-1
9.339623912E0,7.754706144E-1,-3.755183518E-1,-5.144860744E-1
9.348775630E0,7.009472251E-1,-3.442124426E-1,-4.874561131E-1
9.357927349E0,6.221479177E-1,-2.906105816E-1,-4.391991794E-1
9.367079068E0,5.424323678E-1,-2.289150059E-1,-3.684936166E-1
9.376230839E0,4.749337435E-1,-1.588202864E-1,-2.944283783E-1
9.385382557E0,4.208737612E-1,-7.131642103E-2,-2.368560284E-1
9.394534276E0,3.687990308E-1,1.252236869E-2,-1.957765520E-1
9.403686047E0,3.193204105E-1,7.452336699E-2,-1.589729935E-1
9.412837766E0,2.608317733E-1,1.174353883E-1,-1.221694499E-1
9.421989484E0,2.014268786E-1,1.319430023E-1,-7.864658535E-2
9.431141203E0,1.556133330E-1,1.194206402E-1,-1.969982497E-2
9.440292974E0,1.233911440E-1,1.111742035E-1,3.863608837E-2
9.449444693E0,9.697200358E-2,7.284353673E-2,9.956810623E-2
9.458596412E0,6.642963737E-2,9.162709117E-3,1.574458778E-1
9.467748130E0,3.222219273E-2,-3.344388679E-2,2.157817930E-1
9.476899901E0,-8.093725890E-3,-5.131116882E-2,2.765611112E-1
9.486051620E0,-5.268557742E-2,-3.924693540E-2,3.232909143E-1
9.495203339E0,-8.689302206E-2,-1.618745178E-2,3.541387022E-1
9.504355057E0,-1.081199646E-1,2.443389036E-3,3.747547865E-1
9.513506828E0,-1.270562261E-1,3.741439432E-2,3.990359604E-1
9.522658547E0,-1.565296054E-1,8.628217876E-2,4.262186885E-1
9.531810266E0,-1.927223057E-1,1.291942000E-1,4.534013867E-1
9.540962037E0,-2.270824611E-1,1.563768983E-1,4.850127101E-1
9.550113755E0,-2.644968629E-1,1.835595965E-1,5.195255876E-1
9.559265474E0,-2.559449971E-1,1.896680743E-1,5.402944088E-1
9.568417193E0,-1.070509851E-1,2.350234836E-1,5.120427012E-1
9.577556203E0,8.170082420E-2,3.080197275E-1,4.456130862E-1
9.586720682E0,2.451024652E-1,3.206948042E-1,4.020902216E-1
9.595872401E0,3.946073353E-1,2.460187376E-1,3.646758199E-1
9.605011412E0,4.460712075E-1,1.453816444E-1,3.339807391E-1
9.614175891E0,2.660239935E-1,2.993151546E-2,3.156553209E-1
9.623327609E0,-1.209477559E-1,-1.130067408E-1,3.008422852E-1
9.632466568E0,-4.595098495E-1,-2.203631550E-1,2.564031482E-1
9.641631047E0,-5.653391480E-1,-2.176143378E-1,2.105895877E-1
9.650782818E0,-5.212054253E-1,-1.265980899E-1,2.131856978E-1
9.659934537E0,-4.865398407E-1,-1.832541823E-2,2.732014358E-1
9.669086255E0,-5.326588154E-1,5.238015205E-2,3.761292100E-1
9.678237974E0,-6.505523324E-1,1.568350345E-1,4.880669713E-1
9.687389745E0,-7.385143638E-1,3.723114133E-1,5.819846988E-1
9.696541464E0,-7.443174124E-1,6.539120078E-1,6.317687631E-1
9.705693182E0,-6.843016148E-1,8.915315866E-1,6.644490957E-1
9.714832193E0,-5.381564498E-1,1.229941010E0,6.927008033E-1
9.723996672E0,-3.859027624E-1,1.766570330E0,7.269082665E-1
9.733148391E0,-4.760027230E-1,2.093984365E0,8.025006056E-1
9.742287401E0,-8.144121170E-1,1.897444248E0,9.132166505E-1
9.751451880E0,-1.071426034E0,1.757102132E0,1.031873703E0
9.760603599E0,-1.125944257E0,1.738165855E0,1.165802002E0
9.769742557E0,-1.213295341E0,1.470767498E0,1.256360054E0
9.778907089E0,-1.522231340E0,1.289498568E0,1.229788303E0
9.788058807E0,-1.777565479E0,1.363869190E0,1.094180107E0
9.797197766E0,-1.715717196E0,1.200162172E0,9.585720897E-1
9.806362245E0,-1.465422630E0,7.261446714E-1,9.148964882E-1
9.815514016E0,-1.278656006E0,1.301104724E-1,9.930849075E-1
9.824665734E0,-1.267813444E0,-4.659237564E-1,1.126096964E0
9.833817453E0,-1.348750710E0,-9.546015263E-1,1.177102685E0
9.842969172E0,-1.322942495E0,-1.300951958E0,1.039509296E0
9.852108182E0,-1.300341129E0,-1.377766013E0,8.095253110E-1
9.861272662E0,-1.295454383E0,-1.320957184E0,5.505260825E-1
9.870424380E0,-1.275296330E0,-1.135412335E0,3.436015844E-1
9.879563391E0,-1.301562786E0,-7.814263701E-1,2.808370292E-1
9.888727870E0,-1.369519591E0,-3.738385141E-1,3.405473530E-1
9.897879589E0,-1.406170368E0,2.947338112E-2,4.382829070E-1
9.907031307E0,-1.436865449E0,4.004103839E-1,5.135698318E-1
9.916183026E0,-1.476112366E0,6.325323582E-1,5.723638535E-1
9.925334797E0,-1.477639556E0,7.660024762E-1,6.528429985E-1
9.934473755E0,-1.422357798E0,8.260182142E-1,7.185090780E-1
9.943638234E0,-1.366007209E0,8.605310917E-1,7.175928354E-1
9.952790005E0,-1.341420531E0,9.061918855E-1,6.458182931E-1
9.961928964E0,-1.340504289E0,9.720106721E-1,5.656445622E-1
9.971093443E0,-1.353637576E0,9.477295280E-1,5.161659122E-1
9.980245162E0,-1.361578584E0,9.011524320E-1,4.654656053E-1
9.989396932E0,-1.373031974E0,8.984035850E-1,4.007157981E-1
9.998548651E0,-1.390288353E0,9.164236188E-1,3.584146202E-1
1.000770037E1,-1.403727055E0,9.037485123E-1,3.637595475E-1
1.001685209E1,-1.415027618E0,8.912261724E-1,4.150707126E-1
1.002600386E1,-1.400978208E0,8.310576677E-1,4.523324072E-1
1.003515558E1,-1.345696568E0,7.782194018E-1,4.717268050E-1
1.004430730E1,-1.309809208E0,7.482879162E-1,5.044071078E-1
1.005345907E1,-1.300341129E0,6.340594292E-1,5.479300022E-1
1.006261079E1,-1.314390540E0,4.437805414E-1,5.919110179E-1
1.007176250E1,-1.303548098E0,3.807105422E-1,5.077667832E-1
1.008091422E1,-1.408919215E0,5.639647245E-1,4.097257853E-1
1.009006600E1,-1.565143347E0,5.401417017E-1,3.878880143E-1
1.009920495E1,-1.489551067E0,2.220429778E-1,3.741439581E-1
1.010836943E1,-1.245212078E0,1.061347127E-1,3.947600424E-1
1.011752115E1,-1.190388560E0,5.711421967E-1,4.601207078E-1
1.012666016E1,-1.316833973E0,8.368607163E-1,5.073086619E-1
1.013582464E1,-1.365090966E0,8.041804433E-1,4.831801951E-1
1.014497636E1,-1.323858738E0,1.044396043E0,4.130854607E-1
1.015412813E1,-1.351499557E0,1.510319829E0,4.370612204E-1
1.016327985E1,-1.547581553E0,1.808718681E0,5.703786016E-1
1.017243157E1,-1.706401825E0,1.842926145E0,7.518002391E-1
1.018157058E1,-1.700751424E0,1.927833915E0,8.635852933E-1
1.019073506E1,-1.605764747E0,1.896833420E0,9.101623893E-1
1.019988678E1,-1.486649513E0,1.815438032E0,8.640434742E-1
1.020902573E1,-1.397465825E0,1.691588759E0,7.314895988E-1
1.021819027E1,-1.382958174E0,1.526354551E0,5.705313683E-1
1.022734198E1,-1.409377337E0,1.242616057E0,4.312581718E-1
1.023648094E1,-1.424190402E0,8.440381885E-1,3.642176688E-1
1.024564542E1,-1.405254126E0,3.255815804E-1,3.410054743E-1
1.025479719E1,-1.357455373E0,-1.841704547E-1,3.112266660E-1
1.026393615E1,-1.313321590E0,-5.990884304E-1,1.890572309E-1
1.027310063E1,-1.216807723E0,-8.741224408E-1,-3.054236248E-2
1.028225235E1,-1.001789451E0,-1.110214949E0,-2.565558553E-1
1.029139136E1,-6.766660213E-1,-1.291483760E0,-3.805578351E-1
1.030055584E1,-3.646758199E-1,-1.250404358E0,-3.393256664E-1
1.030970756E1,-1.844758689E-1,-9.888089895E-1,-2.124221325E-1
1.031884657E1,-1.473668963E-1,-5.706840754E-1,-9.284878522E-2
1.032801105E1,-2.423536479E-1,-1.059819981E-1,-2.611372061E-2
1.033716277E1,-4.764608741E-1,2.968717813E-1,-1.939439960E-2
1.034631448E1,-7.269082665E-1,6.109999418E-1,-2.382304333E-2
1.035546626E1,-8.840487003E-1,8.603783846E-1,-1.053711493E-2
1.036461797E1,-8.936695457E-1,9.657495022E-1,-7.635590620E-3
1.037375698E1,-7.832589149E-1,9.701781869E-1,-2.076880634E-2
1.038292146E1,-6.274928451E-1,8.809944391E-1,-6.184828654E-2
1.039207318E1,-4.761554301E-1,6.598677635E-1,-1.172826737E-1
1.040121214E1,-3.113794029E-1,3.701734245E-1,-1.398840249E-1
1.041037662E1,-1.336228400E-1,1.252236813E-1,-1.365243644E-1
1.041952839E1,4.443913698E-2,-1.922641695E-1,-1.698155403E-1
1.042868011E1,2.838912606E-1,-6.206207871E-1,-2.490729690E-1
1.043783183E1,5.589252710E-1,-9.231429100E-1,-3.697153032E-1
1.044698360E1,8.559496999E-1,-1.053406119E0,-5.085303187E-1
1.045612256E1,1.144575000E0,-1.067302823E0,-6.523848772E-1
1.046528704E1,1.370588541E0,-9.862129092E-1,-8.047912717E-1
1.047443876E1,1.497033954E0,-7.745543122E-1,-9.713998437E-1
1.048357777E1,1.542389274E0,-4.688252807E-1,-1.115254402E0
1.049274224E1,1.552773714E0,-2.046338320E-1,-1.209477544E0
1.050189396E1,1.587133884E0,-2.666348219E-1,-1.206117868E0
1.051103297E1,1.733889937E0,-7.695148587E-1,-1.188250661E0
1.052019745E1,2.068176031E0,-1.491994381E0,-1.174353838E0
1.052934917E1,2.531961918E0,-2.155832767E0,-1.149919987E0
1.053848818E1,2.964747190E0,-2.533488989E0,-1.100135922E0
1.054765266E1,3.246042252E0,-2.531503677E0,-1.034011722E0
1.055680438E1,3.380428791E0,-2.224705696E0,-9.295567870E-1
1.056594339E1,3.379817963E0,-1.582705259E0,-8.347227573E-1
1.057510787E1,3.268643618E0,-1.124264359E0,-8.571714163E-1
1.058425959E1,3.092108727E0,-8.780929446E-1,-1.001484036E0
1.059339855E1,2.910381794E0,-7.887565494E-1,-1.203827262E0
1.060256303E1,2.833262205E0,-8.057075143E-1,-1.339893460E0
1.061171480E1,2.889765739E0,-8.567132950E-1,-1.304617047E0
1.062085376E1,3.017738104E0,-1.022252917E0,-1.181531310E0
1.063001823E1,3.148917675E0,-1.198329568E0,-1.106549859E0
1.063917000E1,3.259939194E0,-1.247197390E0,-1.163816690E0
1.064830896E1,3.378290653E0,-1.185501814E0,-1.291178346E0
1.065747344E1,3.437390327E0,-1.123195410E0,-1.404337883E0
1.066662516E1,3.351108074E0,-1.058292866E0,-1.409224629E0
1.067576417E1,3.120818615E0,-1.062416077E0,-1.296217918E0
1.068492865E1,2.808064938E0,-1.089446068E0,-1.154806733E0
1.069408037E1,2.454842329E0,-9.724688530E-1,-1.125638843E0
1.070323214E1,2.149876833E0,-7.595885396E-1,-1.136481285E0
1.071238386E1,1.957460046E0,-6.381826997E-1,-1.114796281E0
1.072153558E1,1.899124146E0,-5.435013771E-1,-1.077381849E0
1.073067459E1,1.925848722E0,-4.306473136E-1,-1.042410851E0
1.073983907E1,1.982810259E0,-3.423798978E-1,-1.025001645E0
1.074899079E1,1.984337330E0,-3.055763543E-1,-1.006676316E0
1.075812980E1,1.878966212E0,-3.321481943E-1,-9.830059409E-1
1.076729428E1,1.696933627E0,-3.698680103E-1,-9.946120381E-1
1.077644600E1,1.572473526E0,-4.327852726E-1,-1.010799527E0
1.078558495E1,1.494132400E0,-4.895940721E-1,-1.011868477E0
1.079474943E1,1.385096192E0,-5.198310018E-1,-9.881981611E-1
1.080390120E1,1.266744494E0,-5.433486104E-1,-9.225320816E-1
1.081305292E1,1.139688253E0,-5.948125124E-1,-7.982246280E-1
1.082220464E1,1.024390817E0,-6.589514613E-1,-6.407787800E-1
1.083135641E1,9.458969831E-1,-7.718055248E-1,-5.154023767E-1
1.084050813E1,8.993198872E-1,-9.173398614E-1,-4.143071473E-1
1.084965985E1,8.496885300E-1,-9.959864616E-1,-3.254288733E-1
1.085881162E1,7.751652002E-1,-9.645278454E-1,-2.588465214E-1
1.086796334E1,6.821636558E-1,-9.107732773E-1,-2.160872221E-1
1.087711506E1,6.055023670E-1,-8.951966763E-1,-1.971509457E-1
1.088626678E1,5.309789777E-1,-8.267817497E-1,-2.081461996E-1
1.089541855E1,4.486673176E-1,-6.413896084E-1,-2.264716178E-1
1.090457027E1,3.495573401E-1,-3.949127495E-1,-2.151709497E-1
1.091372198E1,2.443388999E-1,-2.136438340E-1,-1.800472289E-1
1.092287376E1,1.281252056E-1,-1.293469071E-1,-1.296523362E-1
1.093202547E1,-1.267508045E-2,-1.363716573E-1,-4.642439261E-2
1.094117719E1,-1.617218107E-1,-2.133384049E-1,7.284353673E-2
1.095032891E1,-2.977880239E-1,-2.919849753E-1,2.044811249E-1
1.095948068E1,-4.182776511E-1,-3.074088693E-1,3.264978528E-1
1.096863240E1,-5.028799772E-1,-2.692309320E-1,4.130854607E-1
1.097778412E1,-5.407525301E-1,-2.003578991E-1,4.750864506E-1
1.098693589E1,-5.548020005E-1,-9.284878522E-2,5.244123936E-1
1.099608761E1,-5.680879354E-1,5.375456065E-2,5.833591223E-1
1.100523933E1,-5.760289431E-1,2.238755226E-1,6.479562521E-1
1.101439105E1,-5.774033666E-1,3.645231128E-1,7.082774043E-1
1.102354282E1,-5.874823332E-1,4.992149174E-1,7.692093849E-1
1.103269454E1,-6.303943992E-1,7.096518278E-1,8.322793841E-1
1.104184626E1,-7.681404352E-1,1.062110662E0,8.829796910E-1
1.105099803E1,-9.746068120E-1,1.408308387E0,8.910734653E-1
1.106013698E1,-6.256603003E-1,1.413195133E0,8.947384953E-1
1.106930146E1,3.869717419E-1,9.098569751E-1,9.205468297E-1
1.107845323E1,4.576773047E-1,8.176190853E-1,8.790091872E-1
1.108759219E1,-7.443174124E-1,1.460993886E0,1.003774762E0
1.109675667E1,-1.697544575E0,2.011061907E0,1.218945742E0
1.110590839E1,-1.744885206E0,2.686506271E0,1.387844920E0
1.111504740E1,-1.223832488E0,2.223025799E0,1.434574842E0
1.112421188E1,-1.001636744E0,1.604084849E0,1.325538516E0
1.113336360E1,-1.227497578E0,1.499477267E0,1.180462360E0
1.114250261E1,-1.335770249E0,1.169925213E0,1.091431379E0
1.115166709E1,-1.205812454E0,6.821636558E-1,9.718579650E-1
1.116081881E1,-1.055238605E0,2.281514555E-1,8.370134830E-1
1.116995782E1,-9.756757617E-1,-8.964183182E-2,7.705838084E-1
1.117912230E1,-1.015838981E0,-3.804051280E-1,8.315158486E-1
1.118827402E1,-1.180767775E0,-6.259657145E-1,9.985825419E-1
1.119741303E1,-1.320346355E0,-7.562289238E-1,1.191763043E0
1.120657750E1,-1.376391530E0,-8.632798791E-1,1.259872437E0
1.121572922E1,-1.420219898E0,-8.716790676E-1,1.124111652E0
1.122486818E1,-1.442821264E0,-7.776085734E-1,8.674030900E-1
1.123403271E1,-1.434269309E0,-5.909947157E-1,6.546755433E-1
1.124318443E1,-1.394716978E0,-3.489464819E-1,5.619794726E-1
1.125232339E1,-1.294232607E0,-9.071081877E-2,6.065713167E-1
1.126148787E1,-1.168092728E0,1.473668963E-1,7.360709310E-1
1.127063964E1,-1.079367161E0,2.950392365E-1,8.698465228E-1
1.127979136E1,-1.037982225E0,3.781144619E-1,9.561286569E-1
1.128894308E1,-1.038898468E0,4.818057716E-1,9.920159578E-1
1.129809480E1,-1.067455530E0,5.883986354E-1,9.503256083E-1
1.130723381E1,-1.099983215E0,7.620319724E-1,8.614473343E-1
1.131639829E1,-1.137092113E0,9.669712186E-1,7.392778993E-1
1.132555000E1,-1.218029380E0,1.036455035E0,6.410841942E-1
1.133470178E1,-1.308129430E0,1.087766290E0,5.573981404E-1
1.134385350E1,-1.367686987E0,1.121973753E0,5.586197972E-1
1.135300521E1,-1.361578584E0,9.717052579E-1,6.149705052E-1
1.136214422E1,-1.310267329E0,8.472451568E-1,6.820109487E-1
1.137130870E1,-1.214669824E0,7.259919643E-1,6.149705052E-1
1.138046042E1,-1.124875188E0,5.561764240E-1,5.980194807E-1
1.138961214E1,-1.109604001E0,3.555130959E-1,6.215370893E-1
1.139876391E1,-1.144727707E0,2.730487287E-1,6.450546980E-1
1.140791563E1,-1.187945247E0,1.809635013E-1,6.907155514E-1
1.141706735E1,-1.203369141E0,1.659977436E-1,7.388197780E-1
1.142621912E1,-1.117850542E0,1.979145110E-1,7.058340311E-1
1.143537084E1,-1.302173615E0,4.074351192E-1,5.657972693E-1
1.144452256E1,-1.507112861E0,5.401417017E-1,5.154023767E-1
1.145367433E1,-1.466186166E0,6.258130074E-1,5.467082858E-1
1.146282605E1,-1.308282137E0,6.290199757E-1,5.074613690E-1
1.147197777E1,-1.141673565E0,6.878139973E-1,3.694098890E-1
1.148112954E1,-1.056307673E0,7.609629631E-1,2.533488870E-1
1.149028126E1,-9.856020808E-1,7.154548764E-1,2.649549842E-1
1.149943297E1,-1.129151106E0,9.342908859E-1,3.596363366E-1
1.150858469E1,-1.213142633E0,9.570449591E-1,3.724641204E-1
1.151773646E1,-1.201078415E0,1.096012712E0,4.566083252E-1
1.152688818E1,-1.253916740E0,1.342336893E0,6.190937161E-1
1.153603990E1,-1.258650780E0,1.439003468E0,6.746807694E-1
1.154519167E1,-1.186112642E0,1.401741743E0,6.500942111E-1
1.155434339E1,-1.048213840E0,1.371504784E0,5.937435627E-1
1.156349511E1,-9.567395449E-1,1.428771734E0,5.515950918E-1
1.157264688E1,-9.387195110E-1,1.354553819E0,5.077667832E-1
1.158178584E1,-9.659022093E-1,1.187334418E0,4.570664763E-1
1.159095032E1,-9.379559755E-1,9.775083065E-1,3.914003670E-1
1.160010204E1,-9.026795626E-1,9.176452756E-1,3.550549746E-1
1.160925381E1,-8.828269839E-1,8.417475224E-1,3.203893900E-1
1.161840553E1,-8.519791961E-1,7.174401283E-1,2.793098986E-1
1.162755724E1,-8.444963098E-1,6.577298045E-1,2.689255178E-1
1.163670902E1,-8.038749695E-1,5.239542127E-1,2.510582209E-1
1.164586073E1,-7.553126216E-1,4.686725736E-1,2.635805905E-1
1.165501245E1,-7.175928354E-1,4.524851143E-1,2.907632887E-1
1.166416422E1,-6.789567471E-1,4.556920528E-1,3.020639718E-1
1.167331594E1,-6.313106418E-1,3.923166394E-1,2.816005945E-1
1.168246766E1,-6.015318632E-1,3.078670204E-1,2.513636351E-1
1.169161943E1,-5.986303091E-1,2.710634768E-1,2.350234836E-1
1.170077115E1,-5.873296261E-1,2.541124523E-1,2.160872221E-1
1.170992287E1,-5.283828974E-1,1.696628332E-1,1.482831687E-1
1.171907464E1,-4.686725736E-1,1.429382563E-1,9.177979827E-2
1.172822636E1,-4.436278343E-1,1.748550236E-1,5.421269313E-2
1.173737808E1,-4.569137394E-1,1.780619770E-1,-1.252236869E-2
1.174652980E1,-5.002838969E-1,2.344126403E-1,-8.918370306E-2
1.175568157E1,-5.286883116E-1,3.365768492E-1,-1.444653720E-1
1.176483329E1,-5.476245880E-1,4.613423944E-1,-1.611109674E-1
1.177398506E1,-5.769452453E-1,5.697677732E-1,-1.394258887E-1
1.178313678E1,-6.160394549E-1,6.983511448E-1,-8.414421231E-2
1.179228850E1,-6.520794630E-1,7.942541242E-1,-3.329117596E-2
1.180142751E1,-7.009472251E-1,8.105943203E-1,-1.771457121E-2
1.181059198E1,-7.678350210E-1,7.664605975E-1,-2.611372061E-2
1.181974370E1,-8.276980519E-1,7.107207775E-1,-5.635065958E-2
1.182888271E1,-8.435800672E-1,6.520794630E-1,-1.065928489E-1
1.183804719E1,-8.121214509E-1,5.451811552E-1,-1.765348613E-1
1.184719891E1,-7.721109390E-1,4.395045936E-1,-2.512109280E-1
1.185635063E1,-7.415685654E-1,3.802524209E-1,-3.144336343E-1
1.186550240E1,-7.238540053E-1,3.445178568E-1,-3.649812341E-1
1.187465412E1,-7.062921524E-1,2.660239935E-1,-4.069769979E-1
1.188379308E1,-6.687250137E-1,1.459924877E-1,-4.468347728E-1
1.189295756E1,-5.980194807E-1,3.329117596E-2,-4.822639227E-1
1.190210933E1,-4.630222321E-1,-6.368082762E-2,-5.436540842E-1
1.191124829E1,-2.620534599E-1,-1.698155403E-1,-6.494833231E-1
1.192041277E1,1.221694518E-3,-3.199312389E-1,-7.617265582E-1
1.192956454E1,3.358132839E-1,-4.902049303E-1,-8.496885300E-1
1.193870350E1,6.658235192E-1,-6.261184216E-1,-9.119949341E-1
1.194786797E1,9.165763259E-1,-7.350019813E-1,-9.510892034E-1
1.195701974E1,1.087155461E0,-8.443436027E-1,-9.503256083E-1
1.196617146E1,1.203827262E0,-9.602518678E-1,-8.944330812E-1
1.197532318E1,1.299424887E0,-1.077381849E0,-8.272398710E-1
1.198447495E1,1.362952948E0,-1.110825777E0,-7.852441669E-1
1.199362667E1,1.389066696E0,-1.077687263E0,-7.690566778E-1
1.200277839E1,1.421899676E0,-9.472714067E-1,-7.696675658E-1
1.201193016E1,1.489092946E0,-7.860077024E-1,-8.217422962E-1
1.202106912E1,1.632336617E0,-6.945333481E-1,-9.301676750E-1
1.203023360E1,1.891183138E0,-7.921161652E-1,-1.022863746E0
1.203938537E1,2.268381357E0,-1.079825282E0,-1.098150611E0
1.204852433E1,2.772788525E0,-1.633252859E0,-1.050199151E0
1.205768881E1,3.343625069E0,-2.403225899E0,-9.003888369E-1
1.206684058E1,3.815199375E0,-2.714910746E0,-8.431219459E-1
1.207597954E1,4.099701405E0,-2.630460978E0,-9.297095537E-1
1.208514402E1,4.118026733E0,-2.385205746E0,-1.121362805E0
1.209429573E1,3.624614954E0,-3.189844370E0,-1.429687977E0
1.210343475E1,2.761945963E0,-4.088858604E0,-1.806886196E0
1.211259922E1,3.514815092E0,-2.422925711E0,-1.699071646E0
1.212175094E1,4.439332485E0,-1.778481841E0,-1.568961143E0
1.213088995E1,4.421007156E0,-1.558118701E0,-1.801999450E0
1.214005443E1,3.925609827E0,-1.306144118E0,-2.049392462E0
1.214920615E1,3.519854546E0,-9.775083065E-1,-2.126359224E0
1.215834516E1,3.342861652E0,-4.466820657E-1,-1.918518543E0
1.216750964E1,3.281166077E0,3.344388679E-2,-1.730530262E0
1.217666136E1,3.104172945E0,3.660502136E-1,-1.671583533E0
1.218580037E1,2.757975340E0,4.337015450E-1,-1.692963123E0
1.219496485E1,2.463241577E0,4.056025743E-1,-1.623021126E0
1.220411657E1,2.325953722E0,4.436278343E-1,-1.446944475E0
1.221325558E1,2.310682535E0,4.361449480E-1,-1.310878277E0
1.222242006E1,2.353747129E0,3.651339412E-1,-1.281252146E0
1.223157178E1,2.349013090E0,2.890834510E-1,-1.310572743E0
1.224071079E1,2.265326977E0,1.937913001E-1,-1.304922462E0
1.224987527E1,2.177823305E0,4.611896724E-2,-1.296828747E0
1.225902698E1,2.058249950E0,-1.221694518E-3,-1.340351582E0
1.226816600E1,1.965859175E0,-2.290677279E-2,-1.297744989E0
1.227733047E1,1.804748178E0,-1.389677525E-1,-1.166870952E0
1.228648219E1,1.633100152E0,-3.038965166E-1,-1.054933190E0
1.229562120E1,1.486191392E0,-4.640912116E-1,-9.466605186E-1
1.230478568E1,1.353484869E0,-6.284091473E-1,-8.393041492E-1
1.231393740E1,1.219251156E0,-7.452336550E-1,-7.730271816E-1
1.232307641E1,1.068066478E0,-8.266290426E-1,-7.319477201E-1
1.233224089E1,9.066500664E-1,-9.171871543E-1,-6.902574301E-1
1.234139261E1,7.510367036E-1,-9.881981611E-1,-6.113054156E-1
1.235053162E1,6.029062271E-1,-9.596410394E-1,-4.859289825E-1
1.235969610E1,4.466820657E-1,-7.840224504E-1,-3.633013964E-1
1.236884782E1,2.864873707E-1,-4.749337435E-1,-2.724378705E-1
1.237798683E1,1.272089481E-1,-1.313321590E-1,-1.956238300E-1
1.238715131E1,-1.084253844E-2,1.079672500E-1,-1.288887709E-1
1.239630303E1,-1.437018216E-1,1.922641695E-1,-6.337540597E-2
1.240545474E1,-2.635805905E-1,1.117850468E-1,1.649287529E-2
1.241460652E1,-3.547495604E-1,-2.229592577E-2,1.459924877E-1
1.242375823E1,-4.165978432E-1,-7.421794534E-2,3.080197275E-1
1.243289725E1,-4.544703662E-1,2.397575416E-2,4.498890042E-1
1.244206172E1,-4.763081372E-1,2.302894145E-1,5.198310018E-1
1.245121344E1,-4.731011987E-1,4.170559645E-1,5.337277651E-1
1.246036516E1,-4.709632397E-1,5.322006941E-1,5.349494815E-1
1.246951693E1,-4.824166298E-1,5.654918551E-1,5.409052372E-1
1.247866865E1,-5.137225389E-1,5.497625470E-1,5.558710098E-1
1.248782037E1,-5.783196688E-1,5.118899941E-1,5.909947157E-1
1.249697214E1,-6.843016148E-1,4.756973088E-1,6.488724947E-1
1.250612386E1,-7.791357040E-1,4.390464723E-1,7.036960125E-1
1.251526287E1,-6.772769094E-1,3.530697227E-1,7.290462255E-1
1.252442735E1,-3.298575282E-1,2.641914487E-1,6.606312990E-1
1.253357907E1,1.481304597E-2,1.647760421E-1,5.477772951E-1
1.254271808E1,-1.313321572E-2,1.768402755E-1,5.708367825E-1
1.255188256E1,-3.524588645E-1,3.494046330E-1,7.409577370E-1
1.256103428E1,-5.964923501E-1,4.630222321E-1,9.035958052E-1
1.257017323E1,-5.509842038E-1,3.306210935E-1,9.472714067E-1
1.257933777E1,-3.895678520E-1,1.528645307E-1,8.875610828E-1
1.258848948E1,-4.227063060E-1,2.153236568E-1,8.548807502E-1
1.259762844E1,-6.067240238E-1,4.501944184E-1,8.699992299E-1
1.260679297E1,-7.351546884E-1,5.619794726E-1,8.609892130E-1
1.261594469E1,-7.241594195E-1,4.618005157E-1,8.110524416E-1
1.262508365E1,-6.441384554E-1,4.309527278E-1,7.554653287E-1
1.263424818E1,-6.323796511E-1,5.645755529E-1,7.291989326E-1
1.264339990E1,-7.499676943E-1,6.134433746E-1,7.514948249E-1
1.265253886E1,-9.613208771E-1,5.639647245E-1,8.240329623E-1
1.266170334E1,-1.160304427E0,7.385143638E-1,8.842014074E-1
1.267085511E1,-1.309198380E0,9.674293399E-1,9.110786915E-1
1.267999407E1,-1.399909258E0,9.697200060E-1,9.145910740E-1
1.268915860E1,-1.495354056E0,8.243383765E-1,9.261971712E-1
1.269831032E1,-1.595533013E0,7.660024762E-1,9.707890153E-1
1.270744928E1,-1.584079623E0,7.076665759E-1,1.017366052E0
1.271661376E1,-1.449082375E0,4.903576374E-1,1.020878434E0
1.272576553E1,-1.250557065E0,3.663556576E-1,9.930849075E-1
1.273491724E1,-1.100288630E0,2.735068500E-1,9.202414155E-1
1.274406896E1,-1.069593549E0,3.344388679E-2,8.510629535E-1
1.275322073E1,-1.119988441E0,-1.094943732E-1,8.177717924E-1
1.276235969E1,-1.213753462E0,-1.566823274E-1,8.165500760E-1
1.277152417E1,-1.281252146E0,-1.924168915E-1,8.136485219E-1
1.278067594E1,-1.315154195E0,-2.510582209E-1,7.841751575E-1
1.278982766E1,-1.339282632E0,-2.880144715E-1,7.198835015E-1
1.279897938E1,-1.347987175E0,-2.889307439E-1,6.258130074E-1
1.280813115E1,-1.331188917E0,-2.785463631E-1,5.447230339E-1
1.281727011E1,-1.329203606E0,-1.615691036E-1,5.477772951E-1
1.282643459E1,-1.258345366E0,-7.406523079E-2,5.395308137E-1
1.283558636E1,-1.169467092E0,8.017370105E-2,4.863871336E-1
1.284472532E1,-1.178018928E0,2.765611112E-1,4.929537475E-1
1.285388980E1,-1.244601250E0,4.001049399E-1,5.167768002E-1
1.286304157E1,-1.247808218E0,6.386408210E-1,4.787515402E-1
1.287219329E1,-1.222610831E0,8.874083757E-1,4.372139275E-1
1.288134500E1,-1.198940516E0,9.660549164E-1,3.530697227E-1
1.289049678E1,-1.251320601E0,1.100899458E0,3.581092060E-1
1.289963573E1,-1.305227876E0,1.180004239E0,3.892624080E-1
1.290880021E1,-1.298508525E0,1.098761559E0,4.236225784E-1
1.291795198E1,-1.257887244E0,1.070204377E0,5.173876286E-1
1.292709094E1,-1.199551344E0,9.344435930E-1,5.758762360E-1
1.293625542E1,-1.155264854E0,7.307260633E-1,5.598415136E-1
1.294540719E1,-1.177255392E0,5.555655956E-1,4.559974670E-1
1.295455891E1,-1.219861984E0,4.718795121E-1,3.336753249E-1
1.296371063E1,-1.251626015E0,4.602734149E-1,3.194731176E-1
1.297286240E1,-1.210241079E0,3.220692277E-1,2.721324563E-1
1.298201412E1,-1.195886254E0,2.819060087E-1,1.849340051E-1
1.299116584E1,-1.250098944E0,3.582619131E-1,1.533226669E-1
1.300031761E1,-1.242310643E0,4.327852726E-1,2.125748396E-1
1.300945657E1,-1.198787689E0,6.140542030E-1,3.159607351E-1
1.301862105E1,-1.244295835E0,8.168554902E-1,4.376720488E-1
1.302777282E1,-1.354248405E0,9.998042583E-1,5.716003180E-1
1.303692454E1,-1.443432093E0,1.193442822E0,6.948387623E-1
1.304607626E1,-1.485885978E0,1.369672298E0,7.676823139E-1
1.305522803E1,-1.464964390E0,1.493979692E0,7.910472155E-1
1.306437974E1,-1.384332657E0,1.509098172E0,7.823426127E-1
1.307353146E1,-1.301104665E0,1.502073407E0,7.957812548E-1
1.308268323E1,-1.311489105E0,1.550483108E0,8.385405540E-1
1.309182219E1,-1.274990916E0,1.341115117E0,7.716528177E-1
1.310098667E1,-1.188097954E0,1.209477544E0,6.392516494E-1
1.311013844E1,-1.126555085E0,1.133121610E0,5.163186193E-1
1.311929016E1,-1.112047434E0,8.765658140E-1,3.805578351E-1
1.312844188E1,-1.117086887E0,5.845808387E-1,2.848075330E-1
1.313759365E1,-1.176339149E0,5.402944088E-1,2.686200738E-1
1.314674537E1,-1.278045177E0,5.836645365E-1,3.118375242E-1
1.315589709E1,-1.320804477E0,4.530959427E-1,3.646758199E-1
1.316504886E1,-1.306754947E0,2.512109280E-1,3.845283389E-1
1.317420058E1,-1.204438090E0,8.964183182E-2,2.924431264E-1
1.318335230E1,-1.135870457E0,1.777565479E-1,1.774511337E-1
1.319250407E1,-1.195733547E0,1.330119967E-1,1.661504507E-1
1.320164303E1,-1.278197885E0,-2.672456764E-2,1.693574041E-1
1.321080750E1,-1.343711257E0,8.093725890E-3,1.560714692E-1
1.321995928E1,-1.407697558E0,2.609844804E-1,1.530172378E-1
1.322909823E1,-1.497644782E0,5.937435627E-1,2.021904439E-1
1.323826277E1,-1.555217147E0,8.638907075E-1,2.748812735E-1
1.324741448E1,-1.492910743E0,9.822424054E-1,2.947337925E-1
1.325655344E1,-1.349208832E0,1.012326598E0,2.298312783E-1
1.326571792E1,-1.209630251E0,9.782719016E-1,8.292251825E-2
1.327486969E1,-1.081046939E0,8.049439788E-1,-8.872556686E-2
1.328400865E1,-9.472714067E-1,5.242596865E-1,-2.255553454E-1
1.329317318E1,-8.241856694E-1,2.174616307E-1,-2.983988822E-1
1.330232490E1,-6.646018028E-1,-8.307522535E-2,-3.434488773E-1
1.331146386E1,-3.526115716E-1,-2.997733057E-1,-3.924693763E-1
1.332062839E1,1.293469071E-1,-4.631749392E-1,-4.500417113E-1
1.332978011E1,6.604785919E-1,-5.971031785E-1,-5.621321797E-1
1.333891907E1,1.112505555E0,-6.742226481E-1,-7.440119386E-1
1.334808355E1,1.435032964E0,-6.679614782E-1,-9.541434050E-1
1.335723532E1,1.656770468E0,-5.653391480E-1,-1.165191174E0
1.336637428E1,1.782452345E0,-3.820849657E-1,-1.361120462E0
1.337553881E1,1.793753028E0,-1.988307834E-1,-1.506502032E0
1.338469053E1,1.732820988E0,-1.130067408E-1,-1.564837933E0
1.339382948E1,1.651272893E0,-1.725643575E-1,-1.544679999E0
1.340299402E1,1.614774704E0,-5.489989519E-1,-1.460383058E0
1.341214573E1,1.721062183E0,-1.208103180E0,-1.297286868E0
1.342128475E1,1.952115178E0,-1.836665034E0,-1.109604001E0
1.343044922E1,2.443999767E0,-2.630155563E0,-9.376505613E-1
1.343960094E1,2.853878498E0,-2.854641914E0,-7.233958840E-1
1.344873995E1,2.971161127E0,-2.465074062E0,-5.548020005E-1
1.345790443E1,3.033925533E0,-2.052599430E0,-5.125008225E-1
1.346705615E1,3.011782408E0,-1.580719948E0,-6.467345357E-1
1.347619516E1,2.801040173E0,-1.800319552E0,-9.497147799E-1
1.348535964E1,1.922641754E0,-3.911102295E0,-1.469240427E0
1.349451136E1,1.030804753E0,-5.250995636E0,-1.936233044E0
1.350365037E1,2.749576330E0,-1.795280099E0,-1.637681484E0
1.351281485E1,4.685809135E0,-1.595838517E-1,-1.270562291E0
1.352196657E1,4.601054192E0,-9.078717232E-1,-1.382194638E0
1.353110558E1,3.425784111E0,-1.476875901E0,-1.560562015E0
1.354027006E1,2.367033243E0,-1.798487067E0,-1.669140100E0
1.354942178E1,2.010756493E0,-1.458550572E0,-1.509403586E0
1.355856079E1,2.262272835E0,-9.431481957E-1,-1.122126460E0
1.356772527E1,2.558381081E0,-5.357130170E-1,-8.785510659E-1
1.357687698E1,2.501572132E0,-2.128802687E-1,-9.347490072E-1
1.358602870E1,2.168660402E0,-4.306473210E-2,-1.110673070E0
1.359518047E1,1.837275863E0,9.055810422E-2,-1.180767775E0
1.360433219E1,1.725032687E0,2.947337925E-1,-1.157860994E0
1.361348391E1,1.831930876E0,5.355603099E-1,-1.111589313E0
1.362263568E1,1.961430550E0,7.107207775E-1,-1.055849433E0
1.363178740E1,2.009229422E0,6.543701291E-1,-1.045770526E0
1.364093917E1,2.011214495E0,3.805578351E-1,-1.060736299E0
1.365009089E1,1.989376783E0,1.995943487E-1,-1.084559321E0
1.365924261E1,1.945701241E0,7.162184268E-2,-1.121515512E0
1.366838162E1,1.899582267E0,-1.527118147E-4,-1.163816690E0
1.367754610E1,1.843536973E0,-6.184828654E-2,-1.185654521E0
1.368669782E1,1.769471765E0,-1.890572309E-1,-1.176186442E0
1.369583683E1,1.678302884E0,-3.440597057E-1,-1.150530815E0
1.370500131E1,1.594158649E0,-4.669927359E-1,-1.125944257E0
1.371415303E1,1.515970230E0,-5.676298141E-1,-1.087308168E0
1.372330480E1,1.417623758E0,-6.230642200E-1,-1.031262875E0
1.373245652E1,1.288735032E0,-6.410841942E-1,-9.546015263E-1
1.374160823E1,1.151141644E0,-6.088619828E-1,-8.561024070E-1
1.375074725E1,1.025459886E0,-5.242596865E-1,-7.556180358E-1
1.375991172E1,8.939749599E-1,-3.970507085E-1,-6.705575585E-1
1.376906344E1,7.488987446E-1,-2.657185495E-1,-6.074876189E-1
1.377821521E1,5.963396430E-1,-1.795890927E-1,-5.494571328E-1
1.378736693E1,4.445441067E-1,-1.252236813E-1,-4.741701782E-1
1.379651870E1,2.961082160E-1,-6.245913357E-2,-3.636068404E-1
1.380567042E1,1.466033459E-1,4.642439261E-2,-2.186833173E-1
1.381482219E1,-7.788302377E-3,2.177670449E-1,-6.917845458E-2
1.382400047E1,-1.543916464E-1,4.260659516E-1,5.971032009E-2
1.383312563E1,-2.702999115E-1,6.649072170E-1,1.777565479E-1
1.384227735E1,-3.417690396E-1,8.756495714E-1,3.188622594E-1
1.385142912E1,-4.188885093E-1,1.076923728E0,4.804313779E-1
1.386058084E1,-5.566345453E-1,1.263384819E0,6.204680800E-1
1.386973261E1,-6.769714952E-1,1.319582820E0,6.873558760E-1
1.387888433E1,-3.897205591E-1,1.338366389E0,6.160394549E-1
1.388802329E1,4.457657933E-1,1.303089857E0,3.509317636E-1
1.389718782E1,7.759287357E-1,1.161678791E0,9.865183383E-2
1.390633954E1,-6.529957056E-1,1.733584523E0,2.475458533E-1
1.391547850E1,-2.269603014E0,2.237380743E0,7.713474035E-1
1.392464303E1,-2.629697561E0,2.317401886E0,1.205354333E0
1.393379474E1,-1.737555027E0,2.187749386E0,1.436560035E0
1.394293370E1,-6.891884208E-1,1.110520363E0,1.534448266E0
1.395209823E1,-5.932853818E-1,-4.214845970E-2,1.517650008E0
1.396124995E1,-1.271325827E0,1.217113137E-1,1.463284612E0
1.397038891E1,-1.620883226E0,3.684936166E-1,1.400825500E0
1.397955344E1,-1.475043416E0,-1.511846948E-2,1.227497578E0
1.398870516E1,-1.340198874E0,-3.588727713E-1,9.562813640E-1
1.399784417E1,-1.271631241E0,-3.098522723E-1,8.076927662E-1
1.400700865E1,-1.305838704E0,-4.326325655E-1,8.680139780E-1
1.401616037E1,-1.407544851E0,-8.032641411E-1,1.067913771E0
1.402529938E1,-1.374253631E0,-9.823951125E-1,1.302173615E0
1.403446386E1,-1.194359064E0,-9.720106721E-1,1.435338378E0
1.404361558E1,-1.133579850E0,-8.568660021E-1,1.396549582E0
1.405276730E1,-1.254222155E0,-7.342383862E-1,1.242310643E0
1.406191907E1,-1.386928678E0,-6.894938350E-1,1.032484531E0
1.407107079E1,-1.422663212E0,-5.902311802E-1,8.331956863E-1
1.408020980E1,-1.376391530E0,-3.996468186E-1,7.020162344E-1
1.408937428E1,-1.326912999E0,-2.455606014E-1,6.412369013E-1
1.409852600E1,-1.307824016E0,-9.254335612E-2,6.235223413E-1
1.410767777E1,-1.321568012E0,6.108472496E-2,6.390989423E-1
1.411682948E1,-1.311489105E0,9.437590092E-2,6.484143734E-1
1.412598120E1,-1.256818295E0,1.348445266E-1,6.322268844E-1
1.413513297E1,-1.194206357E0,2.541124523E-1,5.873296261E-1
1.414429365E1,-1.154195905E0,4.153761268E-1,5.210527182E-1
1.415343641E1,-1.153737783E0,6.128324866E-1,4.439332485E-1
1.416258818E1,-1.200009465E0,8.564078808E-1,3.713951409E-1
1.417173990E1,-1.244143128E0,1.076160192E0,3.110739589E-1
1.418089162E1,-1.297439575E0,1.264453769E0,2.819060087E-1
1.419004339E1,-1.377613306E0,1.397618532E0,2.866400778E-1
1.419919511E1,-1.429993391E0,1.456717968E0,3.350497186E-1
1.420834683E1,-1.420830727E0,1.427550077E0,4.176668227E-1
1.421748584E1,-1.367992401E0,1.320193648E0,5.047125220E-1
1.422665032E1,-1.340351582E0,1.099830508E0,5.728220344E-1
1.423580209E1,-1.323247910E0,8.473978639E-1,5.602996349E-1
1.424494105E1,-1.295912504E0,5.560237169E-1,5.010474920E-1
1.425410553E1,-1.257734537E0,2.539597452E-1,4.453076422E-1
1.426325730E1,-1.259414315E0,3.695625812E-2,4.094203711E-1
1.427240902E1,-1.295301557E0,-2.020377368E-1,3.501681983E-1
1.428156073E1,-1.287513256E0,-4.944808483E-1,2.880144715E-1
1.429071250E1,-1.296217918E0,-6.038225293E-1,2.270824611E-1
1.429985146E1,-1.375322580E0,-5.308262706E-1,2.777827978E-1
1.430901594E1,-1.455343604E0,-4.474456310E-1,3.906368315E-1
1.431816771E1,-1.551552057E0,-2.976353168E-1,5.199837089E-1
1.432730667E1,-1.511388779E0,-1.029277667E-1,5.297572613E-1
1.433647120E1,-1.415485859E0,3.535278440E-1,5.167768002E-1
1.434562292E1,-1.356233597E0,8.194515705E-1,5.332696438E-1
1.435476188E1,-1.390441060E0,1.087308168E0,6.409314871E-1
1.436392641E1,-1.442668557E0,1.274685502E0,7.864658237E-1
1.437307813E1,-1.424190402E0,1.558424115E0,9.182561636E-1
1.438221709E1,-1.345849276E0,1.790240645E0,1.001636744E0
1.439138162E1,-1.247197390E0,1.869956136E0,9.920159578E-1
1.440053334E1,-1.236202121E0,2.006938696E0,8.759549856E-1
1.440967235E1,-1.322484374E0,1.987544298E0,7.525638342E-1
1.441883683E1,-1.480540991E0,1.731446505E0,6.502469182E-1
1.442798855E1,-1.606222868E0,1.410293579E0,5.604523420E-1
1.443712756E1,-1.631267548E0,1.205201626E0,5.048652887E-1
1.444629204E1,-1.588355541E0,9.712471366E-1,4.417952895E-1
1.445544376E1,-1.529714227E0,5.859552622E-1,3.655920923E-1
1.446459553E1,-1.479319334E0,1.458397806E-1,2.826695740E-1
1.447374724E1,-1.449082375E0,-2.473931462E-1,2.183778882E-1
1.448289902E1,-1.411973476E0,-5.664080977E-1,1.412584335E-1
1.449203797E1,-1.381583810E0,-7.702783942E-1,6.963659078E-2
1.450120245E1,-1.374864459E0,-8.222004175E-1,4.474456236E-2
1.451035422E1,-1.409835458E0,-7.099572420E-1,9.132166207E-2
1.451949318E1,-1.469393134E0,-3.830012381E-1,2.171562016E-1
1.452865771E1,-1.429077148E0,1.359135192E-2,3.581092060E-1
1.453780943E1,-1.240630746E0,3.013004065E-1,3.733803928E-1
1.454696115E1,-1.066081166E0,5.638120174E-1,2.180724740E-1
1.455611292E1,-9.086353183E-1,6.977402568E-1,-1.088835225E-1
1.456526464E1,-7.259919643E-1,7.522584200E-1,-4.288147688E-1
1.457441636E1,-4.860817194E-1,7.501204610E-1,-6.091674566E-1
1.458356813E1,-1.615691036E-1,5.955760479E-1,-6.549809575E-1
1.459271985E1,2.246390730E-1,4.227063060E-1,-6.471926570E-1
1.460185886E1,6.053496599E-1,3.536805511E-1,-7.354601026E-1
1.461102334E1,8.967237473E-1,3.918585181E-1,-9.373451471E-1
1.462017506E1,1.057682037E0,4.979932308E-1,-1.178782463E0
1.462932683E1,1.181378603E0,5.192201734E-1,-1.348903418E0
1.463847855E1,1.348598003E0,3.860554695E-1,-1.369519591E0
1.464763027E1,1.585454106E0,3.130592033E-2,-1.278503299E0
1.465676928E1,1.905690789E0,-6.047387719E-1,-1.185959935E0
1.466593376E1,2.265326977E0,-1.287818789E0,-1.110214949E0
1.467508553E1,2.631682634E0,-1.856364846E0,-1.013242841E0
1.468422448E1,3.011324167E0,-2.113837004E0,-9.113841057E-1
1.469338896E1,3.345304966E0,-1.995943427E0,-8.188407421E-1
1.470254073E1,3.570402145E0,-1.724421859E0,-8.150229454E-1
1.471167969E1,3.636831760E0,-1.484053373E0,-1.001484036E0
1.472084422E1,3.550702333E0,-1.251320601E0,-1.244143128E0
1.472999594E1,3.377679825E0,-1.031415582E0,-1.332868695E0
1.473914766E1,3.221455812E0,-8.729007244E-1,-1.288276911E0
1.474829943E1,3.132424831E0,-7.600467205E-1,-1.337297320E0
1.475745115E1,3.110128880E0,-7.713474035E-1,-1.437476277E0
1.476660292E1,3.123261929E0,-7.372926474E-1,-1.383721709E0
1.477575464E1,3.177016497E0,-6.094728708E-1,-1.231315374E0
1.478490636E1,3.281624079E0,-4.288147688E-1,-1.132968903E0
1.479405813E1,3.399517775E0,-2.829749882E-1,-1.192831993E0
1.480320985E1,3.516952991E0,-2.209739983E-1,-1.257887244E0
1.481236162E1,3.567195177E0,-3.197785318E-1,-1.265980959E0
1.482150058E1,3.422577143E0,-5.167768002E-1,-1.222305417E0
1.483066506E1,3.087985516E0,-5.830537081E-1,-1.225970507E0
1.483981683E1,2.718423128E0,-4.471401870E-1,-1.289651275E0
1.484895579E1,2.500503302E0,-3.790307343E-1,-1.357760787E0
1.485812032E1,2.430408478E0,-5.245651007E-1,-1.387539506E0
1.486727204E1,2.382762432E0,-5.470137000E-1,-1.424495816E0
1.487641105E1,2.349013090E0,-4.888305068E-1,-1.463742733E0
1.488557553E1,2.334200144E0,-4.127800465E-1,-1.446333647E0
1.489472724E1,2.246848822E0,-4.167505503E-1,-1.337602735E0
1.490386626E1,2.043284178E0,-5.467082858E-1,-1.191763043E0
1.491303073E1,1.789171576E0,-5.661026835E-1,-1.116628766E0
1.492218250E1,1.614163876E0,-5.288410187E-1,-1.070204377E0
1.493133422E1,1.506960154E0,-5.661026835E-1,-1.000720501E0
1.494048594E1,1.411362648E0,-6.085565686E-1,-8.750386834E-1
1.494963771E1,1.316833973E0,-5.822901726E-1,-7.449282408E-1
1.495878943E1,1.220320106E0,-5.001311898E-1,-6.554391384E-1
1.496794120E1,1.096318126E0,-4.011739492E-1,-5.702258945E-1
1.497709292E1,9.659022093E-1,-3.400892019E-1,-4.631749392E-1
1.498624464E1,8.348754644E-1,-2.947337925E-1,-3.358132839E-1
1.499539641E1,6.981984377E-1,-2.261662036E-1,-1.963873953E-1
1.500454813E1,5.465555787E-1,-1.589729935E-1,-3.008422814E-2
1.501369990E1,3.881934285E-1,-9.055810422E-2,9.254335612E-2
1.502285162E1,2.449497581E-1,1.863084175E-2,2.142546773E-1
1.503200334E1,6.872031838E-2,1.550024897E-1,3.466558158E-1
1.504115511E1,-1.378987730E-1,1.954711229E-1,4.556920528E-1
1.505030683E1,-3.254288733E-1,1.815743446E-1,5.196782947E-1
1.505945860E1,-4.825693369E-1,2.290677279E-1,5.424323678E-1
1.506861032E1,-6.274928451E-1,3.776563108E-1,5.424323678E-1
1.507776209E1,-7.818844914E-1,5.331169367E-1,5.705313683E-1
1.508691381E1,-9.881981611E-1,6.377245188E-1,6.044333577E-1
1.509606558E1,-1.234675050E0,6.253548861E-1,6.277982593E-1
1.510521730E1,-1.367381573E0,4.318690002E-1,6.452074051E-1
1.511436902E1,-8.133431077E-1,2.217375487E-1,6.597150564E-1
1.512350803E1,8.997780085E-1,3.359659761E-2,7.018635273E-1
1.513267250E1,3.323009014E-1,5.792359114E-1,1.001025915E0
1.514182428E1,-2.251124859E0,1.472599983E0,1.338671803E0
1.515096323E1,-3.088443756E0,2.568918228E0,1.444959164E0
1.516012777E1,-1.782910466E0,1.621799469E0,1.390746474E0
1.516927948E1,-9.051229358E-1,1.288887709E-1,1.292400122E0
1.517841850E1,-9.101623893E-1,6.838434935E-1,1.291331053E0
1.518758297E1,-6.285618544E-1,2.727433145E-1,1.319888234E0
1.519673469E1,-3.883461356E-1,-7.911999226E-1,1.254069448E0
1.520587370E1,-6.091674566E-1,-1.308129430E0,1.209477544E0
1.521503818E1,-8.599202037E-1,-1.523911238E0,1.173132181E0
1.522418995E1,-1.010646820E0,-1.594158649E0,1.139688253E0
1.523332891E1,-1.158471823E0,-1.239103675E0,1.085170150E0
1.524249339E1,-1.242616057E0,-7.275190949E-1,9.402466416E-1
1.525164516E1,-1.272089362E0,-4.025483429E-1,6.899519563E-1
1.526078412E1,-1.265522838E0,-5.818320066E-2,4.411844313E-1
1.526994865E1,-1.263232112E0,1.684411317E-1,2.883199155E-1
1.527910037E1,-1.268729806E0,2.531961799E-1,2.553341687E-1
1.528823938E1,-1.264148355E0,3.820849657E-1,3.846810758E-1
1.529740386E1,-1.245364904E0,5.054761171E-1,6.186355352E-1
1.530655558E1,-1.171146870E0,6.116108298E-1,7.832589149E-1
1.531569459E1,-1.105480790E0,6.890357137E-1,8.246437907E-1
1.532485907E1,-1.128082156E0,7.748597264E-1,7.530219555E-1
1.533401084E1,-1.234369636E0,8.521319032E-1,6.617003083E-1
1.534314980E1,-1.304158926E0,8.473978639E-1,5.441122055E-1
1.535231433E1,-1.284306407E0,9.274188280E-1,3.541387022E-1
1.536146605E1,-1.277739763E0,9.472714067E-1,2.235700935E-1
1.537061782E1,-1.305533290E0,8.971819282E-1,1.855448484E-1
1.537976954E1,-1.302020907E0,8.567132950E-1,1.776038408E-1
1.538892126E1,-1.277281642E0,7.592831254E-1,2.096733153E-1
1.539807303E1,-1.263537526E0,6.904101372E-1,3.002314270E-1
1.540722474E1,-1.205812454E0,5.544965863E-1,3.611634374E-1
1.541637652E1,-1.164427638E0,5.143333673E-1,4.103366435E-1
1.542551547E1,-1.160151601E0,4.301891923E-1,4.573718905E-1
1.543468000E1,-1.138772011E0,2.247917950E-1,4.973823726E-1
1.544383172E1,-1.131441832E0,9.284878522E-2,4.902049303E-1
1.545298350E1,-1.130678296E0,-7.452336699E-2,3.658975065E-1
1.546213521E1,-1.213753462E0,-1.911951900E-1,2.987042964E-1
1.547128693E1,-1.373184681E0,-2.102841735E-1,4.314108789E-1
1.548043870E1,-1.416096687E0,-3.222219348E-1,6.326850653E-1
1.548959042E1,-1.249029875E0,-3.848337829E-1,6.015318632E-1
1.549874219E1,-1.089904189E0,-2.735068500E-1,4.871506989E-1
1.550788120E1,-1.167023659E0,-2.519745007E-2,3.900259733E-1
1.551704568E1,-1.432742238E0,2.076880634E-1,5.424323678E-1
1.552619740E1,-1.581636310E0,3.420744538E-1,7.548545003E-1
1.553533641E1,-1.526354551E0,6.870504618E-1,8.260182142E-1
1.554450089E1,-1.478250384E0,1.245823026E0,8.105943203E-1
1.555365266E1,-1.478403091E0,1.602557778E0,8.220477104E-1
1.556279162E1,-1.483442545E0,1.843384266E0,9.536852837E-1
1.557195615E1,-1.499019146E0,1.942799687E0,1.078145385E0
1.558110787E1,-1.505891204E0,1.929055691E0,1.134190679E0
1.559024688E1,-1.477944970E0,1.907370567E0,1.105786204E0
1.559941136E1,-1.399603724E0,1.814827204E0,1.004996419E0
1.560856308E1,-1.290567517E0,1.602863193E0,8.484668136E-1
1.561770209E1,-1.244448543E0,1.345696568E0,6.858287454E-1
1.562686662E1,-1.283084631E0,1.105328083E0,5.677825212E-1
1.563601834E1,-1.293010950E0,8.681666851E-1,4.805840850E-1
1.564517006E1,-1.301868200E0,7.275190949E-1,4.178195298E-1
1.565432183E1,-1.326302052E0,5.265503526E-1,3.365768492E-1
1.566347355E1,-1.339435339E0,2.893888950E-1,2.761029601E-1
1.567262532E1,-1.315917730E0,7.360709459E-2,2.741177082E-1
1.568177704E1,-1.228261113E0,-8.643488586E-2,2.973299026E-1
1.569092881E1,-1.113116384E0,-2.188360244E-1,2.921377122E-1
1.570008053E1,-1.041952729E0,-3.713951409E-1,2.408265322E-1
1.570923230E1,-1.051420808E0,-5.699204803E-1,1.560714692E-1
1.571838402E1,-1.105022669E0,-7.421793938E-1,6.536065787E-2
1.572752303E1,-1.146407604E0,-8.304468393E-1,-2.764083818E-2
1.573668750E1,-1.141215444E0,-8.797727823E-1,-1.276670843E-1
1.574583928E1,-1.116170645E0,-8.680139780E-1,-2.374668717E-1
1.575497823E1,-1.087155461E0,-7.510367036E-1,-3.509317636E-1
1.576414277E1,-1.082421303E0,-4.294256270E-1,-4.127800465E-1
1.577329448E1,-1.245364904E0,1.765348613E-1,-2.896943092E-1
1.578243350E1,-1.490009189E0,7.321004272E-1,-1.282779220E-2
1.579159797E1,-1.386165142E0,8.394568563E-1,2.667875290E-1
1.580074975E1,-9.918632507E-1,8.547280431E-1,4.588989913E-1
1.580988870E1,-5.726693273E-1,9.240592122E-1,4.337015450E-1
1.581905323E1,-1.615691036E-1,8.124268651E-1,9.177979827E-2
1.582820495E1,2.000524700E-1,5.725166202E-1,-3.939964771E-1
1.583735672E1,4.982986450E-1,2.315111160E-1,-8.093726039E-1
1.584650844E1,7.542436719E-1,-1.017060652E-1,-1.061347127E0
1.585566021E1,9.843803644E-1,-3.524588645E-1,-1.168245435E0
1.586479917E1,1.178018928E0,-4.871506989E-1,-1.186876178E0
1.587396370E1,1.312405348E0,-4.990622103E-1,-1.179851532E0
1.588311542E1,1.391662717E0,-3.116848171E-1,-1.228871942E0
1.589225443E1,1.443737507E0,1.441599578E-1,-1.363869190E0
1.590141891E1,1.470156670E0,8.588512540E-1,-1.524063945E0
1.591057068E1,1.472905397E0,1.582094431E0,-1.658450365E0
1.591970964E1,1.486649513E0,1.857281089E0,-1.689603567E0
1.592887417E1,1.542083859E0,1.458397865E0,-1.569877505E0
1.593802589E1,1.786575556E0,4.450022280E-1,-1.324316859E0
1.594716490E1,2.313125849E0,-7.623373866E-1,-9.625425935E-1
1.595632938E1,2.914352179E0,-1.761225343E0,-5.428904891E-1
1.596548115E1,3.360270739E0,-2.255706310E0,-1.620272398E-1
1.597462011E1,3.584146261E0,-2.083905458E0,4.520269856E-2
1.598378464E1,3.584146261E0,-1.608360887E0,-8.032641560E-2
1.599293636E1,3.417537689E0,-1.114338160E0,-5.111264586E-1
1.600207537E1,3.179001808E0,-8.069292307E-1,-1.005301833E0
1.601123985E1,3.013614893E0,-7.579087615E-1,-1.372879267E0
1.602039162E1,2.943214893E0,-8.641961813E-1,-1.557660460E0
1.602953058E1,2.905800343E0,-9.976662993E-1,-1.609124422E0
1.603869511E1,2.896332264E0,-9.342908859E-1,-1.559798479E0
1.604784683E1,2.910076380E0,-8.154810667E-1,-1.395480514E0
1.605699860E1,2.930692434E0,-6.478035450E-1,-1.225054145E0
1.606615032E1,2.918628216E0,-4.938700199E-1,-1.151447058E0
1.607530209E1,2.887169600E0,-4.425588250E-1,-1.116323352E0
1.608445381E1,2.854183912E0,-5.176930428E-1,-1.033400893E0
1.609360558E1,2.793404579E0,-6.804838181E-1,-8.736643195E-1
1.610275730E1,2.692309380E0,-8.270871639E-1,-7.321004272E-1
1.611190907E1,2.570445299E0,-8.751913905E-1,-6.736118197E-1
1.612106079E1,2.433157444E0,-8.678612709E-1,-7.235485911E-1
1.613021256E1,2.343057394E0,-8.678612709E-1,-8.512156606E-1
1.613935157E1,2.261356592E0,-9.022213817E-1,-9.848384857E-1
1.614851605E1,2.168813229E0,-8.467870355E-1,-1.094791055E0
1.615766777E1,2.097802162E0,-7.343910933E-1,-1.136328578E0
1.616680678E1,2.002510071E0,-6.470399499E-1,-1.086391807E0
1.617597126E1,1.884005666E0,-6.652126908E-1,-1.053558826E0
1.618512303E1,1.786880970E0,-6.923953891E-1,-1.040731072E0
1.619426204E1,1.689298153E0,-6.823163629E-1,-1.033553600E0
1.620342652E1,1.581636310E0,-6.221479177E-1,-1.039203882E0
1.621257829E1,1.464353561E0,-5.320479870E-1,-1.037676811E0
1.622173000E1,1.337602735E0,-4.911212027E-1,-1.020267606E0
1.623088178E1,1.236660242E0,-4.651601911E-1,-9.575030804E-1
1.624003350E1,1.157097459E0,-3.732276857E-1,-8.609892130E-1
1.624918527E1,1.097387075E0,-2.348707765E-1,-7.345438004E-1
1.625833698E1,1.029888511E0,-1.217113137E-1,-5.769452453E-1
1.626748876E1,9.232956171E-1,-5.573981255E-2,-4.361449480E-1
1.627664047E1,8.002098799E-1,-0.000000000E0,-3.405473530E-1
1.628579224E1,6.726955175E-1,2.367033064E-2,-2.284568697E-1
1.629494396E1,5.253286362E-1,4.566083103E-2,-1.000262350E-1
1.630409573E1,3.555130959E-1,5.803048983E-2,6.474980712E-2
1.631324745E1,1.664558798E-1,4.627167806E-2,2.130329758E-1
1.632239922E1,-8.399149403E-3,-1.939439960E-2,2.997733057E-1
1.633155094E1,-1.643179059E-1,-3.268032894E-2,3.457395434E-1
1.634070271E1,-3.210002482E-1,8.948912472E-2,3.842229247E-1
1.634985443E1,-4.572191834E-1,2.750339806E-1,4.283566475E-1
1.635900620E1,-5.609105229E-1,4.842491746E-1,4.860817194E-1
1.636815797E1,-6.511631608E-1,6.766660213E-1,5.639647245E-1
1.637730969E1,-7.824953198E-1,8.533536196E-1,6.522321701E-1
1.638646146E1,-9.677347541E-1,9.768974781E-1,7.374453545E-1
1.639561318E1,-1.048824787E0,9.384140968E-1,7.698202729E-1
1.640476495E1,-4.465293586E-1,6.400152445E-1,6.705575585E-1
1.641390391E1,9.323056340E-1,5.253286287E-2,4.211791754E-1
1.642306844E1,4.124746025E-1,6.297835112E-1,4.384356141E-1
1.643222016E1,-1.949519038E0,2.175532579E0,8.481613994E-1
1.644135917E1,-2.938328028E0,2.163926363E0,1.212531805E0
1.645052365E1,-1.806428075E0,2.001593828E0,1.467255116E0
1.645967542E1,-3.481829464E-1,8.231166601E-1,1.537044406E0
1.646881443E1,-5.317425132E-1,-2.461714447E-1,1.396702290E0
1.647797891E1,-1.400672793E0,2.336490750E-1,1.339588046E0
1.648713068E1,-1.435949206E0,2.637332976E-1,1.336228371E0
1.649626964E1,-1.112200141E0,-2.658712566E-1,1.070815206E0
1.650543417E1,-1.019351363E0,-3.657447994E-1,7.502731681E-1
1.651458589E1,-1.088377118E0,-3.765873313E-1,6.313106418E-1
1.652372490E1,-1.230093718E0,-8.136485219E-1,7.973083854E-1
1.653288938E1,-1.322026134E0,-1.048519373E0,1.179240584E0
1.654204115E1,-1.297897696E0,-9.805625677E-1,1.466338873E0
1.655119287E1,-1.227802992E0,-8.961129189E-1,1.436254621E0
1.656034464E1,-1.189472318E0,-7.531746626E-1,1.144575000E0
1.656949641E1,-1.123042703E0,-6.972821355E-1,7.559235096E-1
1.657863537E1,-1.116170645E0,-6.108472347E-1,5.317425132E-1
1.658779990E1,-1.142284393E0,-5.095993280E-1,5.173876286E-1
1.659695162E1,-1.160762548E0,-3.478775024E-1,6.186355352E-1
1.660610339E1,-1.168092728E0,-1.123958975E-1,7.240067124E-1
1.661525511E1,-1.169772506E0,1.282779276E-1,7.678350210E-1
1.662440688E1,-1.205507040E0,3.240544796E-1,7.692093849E-1
1.663355860E1,-1.233147860E0,4.588989913E-1,7.353073955E-1
1.664271037E1,-1.227802992E0,5.917583108E-1,6.565080881E-1
1.665186209E1,-1.242616057E0,7.322531343E-1,5.366293192E-1
1.666101386E1,-1.229177356E0,8.101361990E-1,4.083513916E-1
1.667016563E1,-1.201231122E0,9.759812355E-1,2.979407609E-1
1.667931735E1,-1.259719729E0,1.195275426E0,2.644968629E-1
1.668845636E1,-1.334395885E0,1.244143128E0,3.096995652E-1
1.669762084E1,-1.335770249E0,1.239409089E0,3.603998721E-1
1.670677261E1,-1.330272675E0,1.209477544E0,4.227063060E-1
1.671591162E1,-1.325080395E0,1.090362310E0,4.611896873E-1
1.672507610E1,-1.282626510E0,9.549070001E-1,4.659237564E-1
1.673422782E1,-1.290872931E0,7.551599145E-1,5.367820263E-1
1.674337959E1,-1.332257867E0,5.172349215E-1,6.088619828E-1
1.675253136E1,-1.303853512E0,2.544178963E-1,5.549547076E-1
1.676168308E1,-1.274685502E0,1.252236813E-1,4.799732268E-1
1.677083485E1,-1.167939901E0,4.479037523E-1,3.486410677E-1
1.677998657E1,-1.312405348E0,-2.528907657E-1,2.742704153E-1
1.678913834E1,-1.599808931E0,-6.140542030E-1,3.616215885E-1
1.679829006E1,-1.497033954E0,-2.290677279E-2,3.222219348E-1
1.680744183E1,-1.413653255E0,-1.722589284E-1,3.040492237E-1
1.681659355E1,-1.424190402E0,-3.138227761E-1,3.217637837E-1
1.682573256E1,-1.474585295E0,-4.581354442E-4,3.400892019E-1
1.683489709E1,-1.525132895E0,2.809897363E-1,3.713951409E-1
1.684404881E1,-1.465117097E0,3.758237660E-1,4.083513916E-1
1.685320058E1,-1.346918225E0,5.535803437E-1,4.785988331E-1
1.686235230E1,-1.309351087E0,7.895200849E-1,5.734328628E-1
1.687150407E1,-1.474738002E0,1.101357579E0,7.197307944E-1
1.688065579E1,-1.703958392E0,1.382347345E0,8.632798791E-1
1.688980756E1,-1.762294292E0,1.560562015E0,9.965972900E-1
1.689895933E1,-1.619203329E0,1.621799469E0,1.023169160E0
1.690811105E1,-1.409682751E0,1.703347564E0,9.799517393E-1
1.691726282E1,-1.246586561E0,1.800166845E0,8.651124239E-1
1.692641454E1,-1.129914761E0,1.922641754E0,7.050704360E-1
1.693555355E1,-1.137244940E0,1.853157878E0,5.213581324E-1
1.694471803E1,-1.202147365E0,1.515206575E0,3.886515796E-1
1.695386980E1,-1.227344871E0,1.130372882E0,3.165715933E-1
1.696300881E1,-1.206881523E0,9.109259844E-1,2.887780368E-1
1.697217329E1,-1.189472318E0,6.343649030E-1,2.646495700E-1
1.698132506E1,-1.190388560E0,2.000524700E-1,2.028012872E-1
1.699047678E1,-1.210241079E0,-2.298312783E-1,1.168245375E-1
1.699962855E1,-1.221236348E0,-5.424323678E-1,1.191152167E-2
1.700878027E1,-1.223068953E0,-7.779139876E-1,-8.735115826E-2
1.701791928E1,-1.240478039E0,-9.341381788E-1,-1.478250325E-1
1.702708381E1,-1.249793530E0,-9.747595191E-1,-1.850867122E-1
1.703623553E1,-1.262621284E0,-9.115368128E-1,-2.122694254E-1
1.704537454E1,-1.341115117E0,-6.259657145E-1,-1.713426560E-1
1.705453902E1,-1.530935884E0,-6.169557199E-2,-3.206948191E-2
1.706369079E1,-1.645927906E0,4.474456310E-1,1.455343664E-1
1.707282980E1,-1.541625738E0,7.760814428E-1,2.834331393E-1
1.708199428E1,-1.345849276E0,1.003469348E0,2.895416021E-1
1.709114605E1,-1.092500329E0,1.060278177E0,4.520269856E-2
1.710029777E1,-7.913526297E-1,1.107618809E0,-2.915268540E-1
1.710944954E1,-4.046863019E-1,1.147018433E0,-5.543438792E-1
1.711860126E1,3.451287001E-2,1.239409089E0,-6.948387623E-1
1.712774027E1,4.210264683E-1,1.351194143E0,-7.875348330E-1
1.713690480E1,6.526902914E-1,1.415638566E0,-8.890882134E-1
1.714605652E1,7.466080785E-1,1.307365894E0,-1.009883285E0
1.715519553E1,8.005153537E-1,1.028666735E0,-1.099066973E0
1.716436001E1,8.625163436E-1,7.119424939E-1,-1.091125965E0
1.717351178E1,1.010341406E0,3.382566571E-1,-1.004843712E0
1.718265079E1,1.333632231E0,-1.133121699E-1,-8.808417320E-1
1.719181527E1,1.839108348E0,-6.791094542E-1,-7.455390692E-1
1.720096704E1,2.380624533E0,-1.303853512E0,-6.520794630E-1
1.721010600E1,2.799054861E0,-1.863084197E0,-6.371136904E-1
1.721927053E1,3.054999828E0,-2.260745764E0,-7.070556879E-1
1.722842224E1,3.194731236E0,-2.453162670E0,-8.408312798E-1
1.723756126E1,3.268949032E0,-2.486759186E0,-9.881981611E-1
1.724672573E1,3.295521021E0,-2.425216436E0,-1.153432369E0
1.725587750E1,3.257037640E0,-2.232494116E0,-1.332105160E0
1.726501652E1,3.168312073E0,-1.968608022E0,-1.452136636E0
1.727418100E1,3.074852467E0,-1.711441278E0,-1.461452127E0
1.728333277E1,3.022166729E0,-1.508181930E0,-1.390593767E0
1.729247172E1,2.971466541E0,-1.271020412E0,-1.264606595E0
1.730163626E1,2.983072519E0,-9.654440880E-1,-1.122584581E0
1.731078797E1,3.071187258E0,-5.787777901E-1,-1.039814711E0
1.731993975E1,3.151819229E0,-1.908897758E-1,-9.741486907E-1
1.732909152E1,3.165257692E0,1.711899489E-1,-9.736905098E-1
1.733824323E1,3.096079350E0,4.958552718E-1,-1.020878434E0
1.734739501E1,2.975742340E0,6.755970716E-1,-1.059056401E0
1.735654672E1,2.810508251E0,6.717792749E-1,-1.051573515E0
1.736569850E1,2.617175102E0,4.770717025E-1,-9.924740791E-1
1.737483751E1,2.459576607E0,1.527118087E-1,-9.524635673E-1
1.738400198E1,2.401851416E0,-1.528645307E-1,-9.465078115E-1
1.739315376E1,2.432852030E0,-3.984251320E-1,-9.039012194E-1
1.740229271E1,2.493936539E0,-6.415423155E-1,-8.429692388E-1
1.741145724E1,2.486606598E0,-8.203678727E-1,-7.762341499E-1
1.742060896E1,2.368254900E0,-8.935168386E-1,-7.708892226E-1
1.742974797E1,2.231883287E0,-9.127585292E-1,-8.658760190E-1
1.743891250E1,2.138270855E0,-9.342908859E-1,-9.471186996E-1
1.744806422E1,2.026638508E0,-9.081771374E-1,-1.004232883E0
1.745720323E1,1.884616494E0,-8.197570443E-1,-9.985825419E-1
1.746636771E1,1.753895164E0,-7.702783942E-1,-9.359707236E-1
1.747551948E1,1.624242902E0,-7.893673778E-1,-8.312104344E-1
1.748467126E1,1.465117097E0,-8.373188972E-1,-7.076665759E-1
1.749382297E1,1.320957184E0,-8.533536196E-1,-5.616740584E-1
1.750297474E1,1.204743505E0,-8.107470274E-1,-4.225535989E-1
1.751211370E1,1.097234368E0,-6.911736727E-1,-3.000787199E-1
1.752127823E1,9.804098606E-1,-5.625903010E-1,-2.052446753E-1
1.753043000E1,8.527427912E-1,-4.654656053E-1,-1.078145429E-1
1.753958172E1,6.888830066E-1,-3.875826001E-1,9.162708884E-4
1.754873350E1,5.037962794E-1,-3.578037918E-1,1.217113137E-1
1.755788521E1,3.423798978E-1,-3.593308926E-1,2.689255178E-1
1.756703698E1,1.820324808E-1,-3.393256664E-1,3.955236077E-1
1.757618870E1,2.321219631E-2,-2.458660156E-1,4.584408700E-1
1.758534047E1,-1.346918195E-1,-1.252236869E-2,4.167505503E-1
1.759447948E1,-3.078670204E-1,4.185830951E-1,3.895678520E-1
1.760364396E1,-5.016583204E-1,8.791618943E-1,3.597890437E-1
1.761279573E1,-7.389724851E-1,1.225970507E0,3.865135908E-1
1.762193469E1,-9.240592122E-1,1.270562291E0,4.511106908E-1
1.763109922E1,-6.635328531E-1,1.066233873E0,4.909684956E-1
1.764025094E1,2.870981991E-1,5.670189857E-1,4.718795121E-1
1.764938995E1,4.126273096E-1,7.733326554E-1,6.594096422E-1
1.765855448E1,-1.339588046E0,2.298007488E0,1.108229637E0
1.766770620E1,-2.716284990E0,2.961081982E0,1.407697558E0
1.767684521E1,-2.184084415E0,3.089359999E0,1.664100647E0
1.768600969E1,-4.132381678E-1,9.156600237E-1,1.979755998E0
1.769516146E1,-2.852656841E-1,-9.723161459E-1,2.045727491E0
1.770430047E1,-1.379903913E0,1.753131598E-1,1.808718681E0
1.771346495E1,-1.789782524E0,5.667135715E-1,1.275449038E0
1.772261672E1,-1.482220888E0,-1.447708011E-1,5.874823332E-1
1.773175568E1,-9.240592122E-1,-2.498365343E-1,1.230857223E-1
1.774092021E1,-5.998520255E-1,-6.406260729E-1,8.231166750E-2
1.775007193E1,-7.293516397E-1,-1.443890214E0,4.581354558E-1
1.775921094E1,-1.016602516E0,-1.495201349E0,9.984298348E-1
1.776837547E1,-1.176797271E0,-1.192068458E0,1.375780702E0
1.777752719E1,-1.142131686E0,-9.961391687E-1,1.383721709E0
1.778666620E1,-1.088071704E0,-7.666133046E-1,1.062110662E0
1.779583068E1,-1.121821046E0,-4.428642690E-1,6.354338527E-1
1.780498245E1,-1.236202121E0,-1.934858710E-1,3.413109183E-1
1.781412146E1,-1.376391530E0,8.979454637E-2,2.614426315E-1
1.782328594E1,-1.451678514E0,3.465031087E-1,3.136700690E-1
1.783243771E1,-1.408919215E0,4.156815708E-1,4.275930822E-1
1.784158943E1,-1.283084631E0,4.253024161E-1,5.256340504E-1
1.785074120E1,-1.216655016E0,5.047125220E-1,5.656445622E-1
1.785989292E1,-1.257887244E0,5.557183027E-1,5.537330508E-1
1.786904469E1,-1.330883503E0,6.598677635E-1,5.347967744E-1
1.787819641E1,-1.339282632E0,7.904363275E-1,5.083776116E-1
1.788734818E1,-1.302020907E0,9.145910740E-1,4.737120569E-1
1.789649995E1,-1.288735032E0,1.045770526E0,4.152234197E-1
1.790565167E1,-1.324469566E0,1.215891480E0,3.640649617E-1
1.791480344E1,-1.407697558E0,1.278045177E0,3.720059693E-1
1.792394245E1,-1.474890709E0,1.262315869E0,4.106420577E-1
1.793310693E1,-1.492758036E0,1.146407604E0,5.173876286E-1
1.794225870E1,-1.442821264E0,1.040731072E0,5.734328628E-1
1.795139766E1,-1.390593767E0,7.785248160E-1,5.716003180E-1
1.796056219E1,-1.369366884E0,5.777087808E-1,5.053234100E-1
1.796971391E1,-1.370893955E0,3.090887070E-1,3.967452943E-1
1.797885292E1,-1.355011940E0,3.619270027E-2,2.597627938E-1
1.798801745E1,-1.292705536E0,1.688992679E-1,1.397313178E-1
1.799716917E1,-1.398229361E0,-4.138490185E-2,1.690519750E-1
1.800632094E1,-1.615538239E0,-1.519482583E-1,3.416163325E-1
1.801547266E1,-1.629893184E0,-2.492256761E-1,4.320217371E-1
1.802462443E1,-1.451678514E0,-4.694361091E-1,4.358395338E-1
1.803376344E1,-1.286291599E0,-5.471664071E-1,3.871244490E-1
1.804292792E1,-1.288887739E0,-2.857238054E-1,3.428380191E-1
1.805207969E1,-1.381125689E0,-2.246390730E-1,3.006895781E-1
1.806121865E1,-1.373337388E0,-1.162136942E-1,2.841966748E-1
1.807038318E1,-1.451067686E0,3.788780272E-1,4.046863019E-1
1.807953490E1,-1.573542595E0,7.847860456E-1,5.488462448E-1
1.808868667E1,-1.609887958E0,8.964183331E-1,5.967977643E-1
1.809783844E1,-1.563616276E0,1.092500329E0,6.244385839E-1
1.810699016E1,-1.513679504E0,1.423426867E0,6.569662094E-1
1.811614193E1,-1.515053868E0,1.638750434E0,6.885775924E-1
1.812529365E1,-1.508640051E0,1.661809921E0,7.258392572E-1
1.813444542E1,-1.510167122E0,1.606986403E0,7.417212725E-1
1.814358443E1,-1.462673783E0,1.485885978E0,7.201889157E-1
1.815274891E1,-1.395022392E0,1.332563281E0,6.242858768E-1
1.816190068E1,-1.331036210E0,1.112810969E0,5.143333673E-1
1.817103969E1,-1.278045177E0,8.675557971E-1,4.532486796E-1
1.818020417E1,-1.213600755E0,5.716003180E-1,4.159869850E-1
1.818935589E1,-1.172215939E0,2.321219593E-1,3.542914093E-1
1.819850766E1,-1.199093223E0,-4.428642616E-2,2.848075330E-1
1.820765943E1,-1.247655511E0,-3.460449576E-1,1.869192570E-1
1.821681115E1,-1.327676535E0,-5.906893015E-1,5.390727147E-2
1.822595016E1,-1.424953938E0,-7.545490861E-1,-6.383354217E-2
1.823511469E1,-1.512152433E0,-7.777612805E-1,-8.093725890E-2
1.824426641E1,-1.513374090E0,-5.578562617E-1,4.169032723E-2
1.825340542E1,-1.345849276E0,-2.875563502E-1,2.179197669E-1
1.826256990E1,-1.119377613E0,-1.374406368E-1,3.080197275E-1
1.827172167E1,-9.831586480E-1,-3.756710514E-2,2.299840003E-1
1.828087339E1,-8.591566682E-1,5.833591148E-2,9.773556143E-3
1.829002516E1,-6.418477297E-1,1.294996142E-1,-2.122694254E-1
1.829917693E1,-3.190149665E-1,1.475196183E-1,-3.649812341E-1
1.830832865E1,2.611372061E-2,1.540862173E-1,-5.238015056E-1
1.831748042E1,3.898732662E-1,1.068982705E-1,-7.191199064E-1
1.832663214E1,7.075138092E-1,1.765348613E-1,-9.330691695E-1
1.833578391E1,9.469659925E-1,3.217637837E-1,-1.155570269E0
1.834493568E1,1.087002754E0,5.286883116E-1,-1.333021402E0
1.835408740E1,1.127165914E0,7.670714259E-1,-1.406170368E0
1.836322641E1,1.141826272E0,9.697200060E-1,-1.370741248E0
1.837239089E1,1.220625520E0,1.002247691E0,-1.260330558E0
1.838154266E1,1.414874911E0,7.061394453E-1,-1.088987947E0
1.839068167E1,1.723352790E0,1.725643501E-2,-9.068027735E-1
1.839984615E1,2.161024809E0,-8.738170266E-1,-7.614210844E-1
1.840899792E1,2.652298689E0,-1.639055848E0,-6.426113248E-1
1.841813688E1,3.060192108E0,-1.947839141E0,-5.564818382E-1
1.842730141E1,3.329575777E0,-1.814063668E0,-5.234960914E-1
1.843645318E1,3.403640985E0,-1.499171853E0,-6.245913506E-1
1.844559214E1,3.267421961E0,-1.181531310E0,-8.559496999E-1
1.845475667E1,3.045378923E0,-9.266552925E-1,-1.075702071E0
1.846390839E1,2.907021999E0,-8.280034661E-1,-1.233147860E0
1.847304740E1,2.898928404E0,-8.512156606E-1,-1.289956689E0
1.848221193E1,2.896179676E0,-9.040539265E-1,-1.267966151E0
1.849136365E1,2.872051001E0,-7.745543122E-1,-1.226123214E0
1.850050266E1,2.865179062E0,-5.891621709E-1,-1.166412830E0
1.850966714E1,2.918017387E0,-4.060607255E-1,-1.037218690E0
1.851881891E1,3.013156891E0,-2.664821148E-1,-9.573503733E-1
1.852797068E1,3.074699640E0,-1.772984117E-1,-9.888089895E-1
1.853712240E1,3.076074123E0,-1.737860441E-1,-1.027903199E0
1.854627417E1,2.977880478E0,-1.893626451E-1,-9.570449591E-1
1.855542589E1,2.832498789E0,-3.501681983E-1,-8.913788795E-1
1.856457766E1,2.685742617E0,-5.769452453E-1,-8.623636365E-1
1.857372943E1,2.516385317E0,-7.111788988E-1,-9.043593407E-1
1.858286839E1,2.399255276E0,-7.382088900E-1,-9.863656163E-1
1.859203292E1,2.342446566E0,-7.447755337E-1,-1.091889501E0
1.860118464E1,2.294342279E0,-7.896727920E-1,-1.151294351E0
1.861032365E1,2.203478813E0,-7.637118101E-1,-1.138619304E0
1.861948813E1,2.110782623E0,-6.633801460E-1,-1.164274931E0
1.862863990E1,2.016865015E0,-5.677825212E-1,-1.172979474E0
1.863777891E1,1.909508586E0,-4.990622103E-1,-1.141520858E0
1.864694339E1,1.758629203E0,-4.540122151E-1,-1.117545009E0
1.865609516E1,1.586370349E0,-4.373666346E-1,-1.093111157E0
1.866524688E1,1.469240427E0,-4.566083252E-1,-1.057223916E0
1.867439865E1,1.420830727E0,-5.173876286E-1,-9.752176404E-1
1.868355042E1,1.386928678E0,-5.645755529E-1,-8.611419201E-1
1.869270214E1,1.322637081E0,-5.358657837E-1,-7.467607856E-1
1.870185391E1,1.213600755E0,-4.553866386E-1,-6.322268844E-1
1.871100563E1,1.072953224E0,-3.558185399E-1,-5.086830258E-1
1.872015740E1,9.216157794E-1,-2.524326444E-1,-3.761292100E-1
1.872930917E1,7.687512636E-1,-1.655396074E-1,-2.423536479E-1
1.873846089E1,6.103891134E-1,-1.085781008E-1,-1.097997949E-1
1.874759990E1,4.198047817E-1,-7.406523079E-2,1.038440317E-2
1.875676438E1,1.826433241E-1,-8.170082420E-2,1.290414780E-1
1.876591615E1,-6.352811307E-2,-4.077405483E-2,2.518217862E-1
1.877506792E1,-2.785463631E-1,1.046075895E-1,3.698680103E-1
1.878421964E1,-4.227063060E-1,2.776300907E-1,4.346178174E-1
1.879337141E1,-4.909684956E-1,3.979669809E-1,4.504998624E-1
1.880252313E1,-5.268557668E-1,4.602734149E-1,4.850127101E-1
1.881167490E1,-5.900784731E-1,4.628695250E-1,5.604523420E-1
1.882082667E1,-6.966713071E-1,4.034646153E-1,6.708629727E-1
1.882997839E1,-8.118160367E-1,3.193204105E-1,8.141067028E-1
1.883913016E1,-9.579612017E-1,3.263451457E-1,9.512419105E-1
1.884828188E1,-9.443698525E-1,4.381301999E-1,1.005607247E0
1.885742089E1,-3.429907262E-1,5.989357233E-1,8.918370008E-1
1.886658542E1,3.936910629E-1,4.165978432E-1,6.809419990E-1
1.887573714E1,-3.342861533E-1,6.908682585E-1,6.804838181E-1
1.888487615E1,-1.753589749E0,1.506654739E0,9.410101771E-1
1.889404063E1,-2.077186108E0,2.005717039E0,1.233300567E0
1.890319240E1,-1.513526797E0,1.331799746E0,1.409988165E0
1.891233141E1,-1.115865231E0,-4.138490185E-2,1.468782187E0
1.892149589E1,-1.083795786E0,-5.925218388E-2,1.502531528E0
1.893064766E1,-9.987352490E-1,1.101052165E-1,1.319277406E0
1.893978667E1,-9.846857786E-1,-3.921639323E-1,9.234483242E-1
1.894895115E1,-1.014770031E0,-4.760027230E-1,6.148177385E-1
1.895810292E1,-9.344435930E-1,-5.242596865E-1,5.396835804E-1
1.896724188E1,-9.559759498E-1,-8.649597168E-1,6.465818286E-1
1.897640641E1,-1.196344376E0,-6.940752268E-1,8.672503829E-1
1.898555813E1,-1.516581059E0,-2.232646793E-1,9.978190064E-1
1.899469714E1,-1.651883721E0,7.192726433E-2,8.921424150E-1
1.900386167E1,-1.574611545E0,3.005368412E-1,6.407787800E-1
1.901301339E1,-1.434269309E0,4.253024161E-1,4.201101959E-1
1.902215240E1,-1.344169378E0,4.482091665E-1,3.571929336E-1
1.903131688E1,-1.315459609E0,4.372139275E-1,4.599680007E-1
1.904046865E1,-1.306602240E0,4.511106908E-1,6.426113248E-1
1.904962037E1,-1.265980959E0,4.764608741E-1,7.814263701E-1
1.905877214E1,-1.212531805E0,4.653128982E-1,8.105943203E-1
1.906792391E1,-1.164885759E0,4.136963189E-1,7.406523228E-1
1.907706287E1,-1.144116879E0,3.596363366E-1,5.949652195E-1
1.908622740E1,-1.150378108E0,3.011476994E-1,4.540122151E-1
1.909537912E1,-1.184127450E0,3.135173619E-1,3.846810758E-1
1.910453089E1,-1.227497578E0,3.610107303E-1,3.599417508E-1
1.911368261E1,-1.262163162E0,4.506525695E-1,3.327590525E-1
1.912283438E1,-1.302173615E0,6.022953987E-1,3.035911024E-1
1.913198615E1,-1.359440565E0,7.414158583E-1,2.762556672E-1
1.914113787E1,-1.404796004E0,8.718317747E-1,2.434226274E-1
1.915028964E1,-1.433811188E0,9.901834130E-1,2.980934680E-1
1.915942865E1,-1.448013425E0,1.005149126E0,4.367557764E-1
1.916859313E1,-1.419914484E0,9.634588361E-1,5.737382770E-1
1.917774490E1,-1.363869190E0,9.043593407E-1,6.870504618E-1
1.918688391E1,-1.339588046E0,8.086090684E-1,6.983511448E-1
1.919604839E1,-1.321109891E0,6.522321701E-1,5.862606764E-1
1.920520016E1,-1.325538516E0,4.198047817E-1,5.063923597E-1
1.921435188E1,-1.322026134E0,2.779355049E-1,4.295783341E-1
1.922350365E1,-1.352568507E0,1.898207814E-1,4.233171642E-1
1.923265537E1,-1.344169378E0,-5.909947306E-2,3.955236077E-1
1.924180714E1,-1.354095697E0,-1.020114943E-1,3.629959822E-1
1.925095891E1,-1.346765518E0,-7.818844914E-2,2.945810854E-1
1.926011063E1,-1.343711257E0,-1.298050396E-2,1.860029846E-1
1.926924964E1,-1.444042921E0,1.356080920E-1,2.797680497E-1
1.927841412E1,-1.607902646E0,3.620797098E-1,4.946335554E-1
1.928756589E1,-1.755880475E0,6.152759194E-1,7.321004272E-1
1.929670490E1,-1.783674002E0,8.015843034E-1,9.290986657E-1
1.930586938E1,-1.748244882E0,1.010494113E0,1.033706307E0
1.931502115E1,-1.586217642E0,1.279114127E0,1.066386580E0
1.932417287E1,-1.363411069E0,1.559951186E0,9.749122262E-1
1.933332464E1,-1.278503299E0,1.798639774E0,8.214368224E-1
1.934247641E1,-1.327829242E0,1.863695025E0,6.720846891E-1
1.935161537E1,-1.445417285E0,1.830098391E0,5.703786016E-1
1.936077990E1,-1.508640051E0,1.598434567E0,5.584670901E-1
1.936993162E1,-1.429687977E0,1.303395391E0,5.813738704E-1
1.937907063E1,-1.242310643E0,1.067608237E0,6.285618544E-1
1.938823516E1,-1.076465607E0,7.136223316E-1,6.294780970E-1
1.939738688E1,-1.023169160E0,3.805578351E-1,5.195255876E-1
1.940653865E1,-1.089904189E0,1.123958975E-1,3.933856487E-1
1.941569037E1,-1.174048424E0,-2.171562016E-1,2.794626355E-1
1.942484214E1,-1.204896212E0,-5.218162537E-1,1.933331639E-1
1.943398115E1,-1.180309653E0,-6.998782754E-1,1.284306347E-1
1.944314563E1,-1.123042703E0,-7.324058414E-1,9.330692142E-2
1.945229740E1,-1.044396043E0,-6.962131858E-1,7.314895838E-2
1.946143641E1,-9.345963001E-1,-6.525375843E-1,8.979454637E-2
1.947060089E1,-8.134958148E-1,-5.021164417E-1,1.382041872E-1
1.947975266E1,-7.317950130E-1,-2.692309320E-1,1.812689304E-1
1.948889162E1,-7.412631512E-1,-3.481829539E-2,1.927223057E-1
1.949805615E1,-8.492304087E-1,2.542651594E-1,1.861557066E-1
1.950720792E1,-1.017060637E0,6.041279435E-1,2.012741715E-1
1.951635964E1,-1.205354333E0,9.668185115E-1,2.533488870E-1
1.952551141E1,-1.328898191E0,1.194053650E0,2.864873707E-1
1.953466313E1,-1.281099439E0,1.184585571E0,2.032594234E-1
1.954380214E1,-1.136328578E0,1.189166903E0,6.627693027E-2
1.955296667E1,-9.101623893E-1,1.124569774E0,-5.299099907E-2
1.956211839E1,-5.312843919E-1,8.011261821E-1,-1.875301152E-1
1.957125740E1,-8.933641016E-2,3.697153032E-1,-3.306210935E-1
1.958042188E1,2.866400778E-1,2.031067200E-2,-4.650074840E-1
1.958957365E1,5.526640415E-1,-2.377723008E-1,-6.041279435E-1
1.959871266E1,7.647807598E-1,-4.440859556E-1,-7.704311013E-1
1.960787714E1,9.845330715E-1,-5.253286362E-1,-9.958337545E-1
1.961702891E1,1.184432864E0,-4.104893506E-1,-1.280335903E0
1.962616792E1,1.268882513E0,-7.452336699E-2,-1.559034944E0
1.963533240E1,1.297897696E0,4.747810364E-1,-1.815743446E0
1.964448417E1,1.406475782E0,1.052642584E0,-2.047407389E0
1.965362313E1,1.622104883E0,1.347681761E0,-2.190956354E0
1.966278766E1,1.914242625E0,1.058903694E0,-2.181335449E0
1.967193938E1,2.276474953E0,2.015796006E-1,-1.938676476E0
1.968107839E1,2.681466818E0,-8.993198872E-1,-1.499629974E0
1.969024292E1,3.046295166E0,-1.769471765E0,-1.010952234E0
1.969939464E1,3.339196444E0,-2.057638884E0,-5.598415136E-1
1.970853365E1,3.603998899E0,-1.704569221E0,-3.524588645E-1
1.971769813E1,3.816573620E0,-9.388722181E-1,-4.981459379E-1
1.972684990E1,3.946836948E0,-2.893888950E-1,-7.375980616E-1
1.973598891E1,3.942408323E0,-7.788302377E-3,-9.955283403E-1
1.974515339E1,3.804356813E0,5.650337320E-3,-1.193748236E0
1.975430516E1,3.640344143E0,-3.206948191E-2,-1.245059371E0
1.976345688E1,3.545204878E0,-1.340809762E-1,-1.254222155E0
1.977260865E1,3.547495365E0,-2.021904439E-1,-1.232689738E0
1.978176042E1,3.594377995E0,-1.751604527E-1,-1.141368151E0
1.979089938E1,3.575441837E0,-3.329117596E-2,-1.057987452E0
1.980006391E1,3.456326485E0,1.698155403E-1,-9.996515512E-1
1.980921563E1,3.300102234E0,2.451024652E-1,-9.391776323E-1
1.981836740E1,3.224662781E0,9.819369763E-2,-8.614473343E-1
1.982751917E1,3.164799690E0,-2.046338320E-1,-7.884510756E-1
1.983667089E1,3.122345686E0,-5.137225389E-1,-7.560762167E-1
1.984582266E1,3.124941826E0,-8.029587269E-1,-7.528692484E-1
1.985497443E1,3.166174173E0,-1.142284393E0,-7.760814428E-1
1.986412615E1,3.176711082E0,-1.524063945E0,-8.643488884E-1
1.987326516E1,3.154109716E0,-1.702889442E0,-9.686510563E-1
1.988242964E1,3.122193098E0,-1.747175932E0,-1.056307673E0
1.989158141E1,3.060802937E0,-1.746412277E0,-1.140299082E0
1.990072042E1,2.939702511E0,-1.762447000E0,-1.165649295E0
1.990988490E1,2.689560413E0,-1.748550296E0,-1.225970507E0
1.991903667E1,2.459882021E0,-1.661199093E0,-1.291789293E0
1.992818839E1,2.313431263E0,-1.561936498E0,-1.294232607E0
1.993734016E1,2.223789454E0,-1.550483108E0,-1.249029875E0
1.994649193E1,2.125442982E0,-1.611873150E0,-1.189166903E0
1.995564365E1,1.980214119E0,-1.669140100E0,-1.119377613E0
1.996479542E1,1.807038903E0,-1.636612535E0,-1.060125470E0
1.997394714E1,1.628366113E0,-1.529561520E0,-1.025459886E0
1.998308615E1,1.444348335E0,-1.353332043E0,-1.016449809E0
1.999225068E1,1.246433854E0,-1.141978979E0,-9.808679819E-1
2.000140240E1,1.044548869E0,-9.550597072E-1,-8.748859763E-1
2.001055417E1,8.573241234E-1,-8.299887180E-1,-7.188144922E-1
2.001970589E1,6.873558760E-1,-7.223268747E-1,-5.373928547E-1
2.002885766E1,5.436540842E-1,-5.803049207E-1,-3.614688516E-1
2.003800943E1,4.101839364E-1,-4.178195298E-1,-2.043284029E-1
2.004716115E1,2.719797492E-1,-2.619007528E-1,-6.322269142E-2
2.005631292E1,1.267508119E-1,-1.363716573E-1,6.520794332E-2
2.006546469E1,1.832541823E-2,-4.337015375E-2,1.583621502E-1
2.007461641E1,-5.222744122E-2,8.750387281E-2,2.231119573E-1
2.008376818E1,-1.501157135E-1,3.298575282E-1,2.796153426E-1
2.009290714E1,-2.761029601E-1,6.161921620E-1,3.286358118E-1
2.010207167E1,-4.051444530E-1,8.246437907E-1,3.697153032E-1
2.011122344E1,-5.150969625E-1,8.414421082E-1,4.184303582E-1
2.012037516E1,-5.909947157E-1,6.041279435E-1,4.729484916E-1
2.012952693E1,-6.221479177E-1,2.076880634E-1,5.395308137E-1
2.013867865E1,-6.064186096E-1,-2.185306102E-1,6.212316751E-1
2.014781766E1,-5.661026835E-1,-5.647283196E-1,6.876612902E-1
2.015698219E1,-5.190674663E-1,-7.314895988E-1,6.923953891E-1
2.016613391E1,-4.069769979E-1,-6.948387623E-1,6.223006248E-1
2.017527292E1,-2.049392611E-1,-5.222744346E-1,4.599680007E-1
2.018443745E1,2.779355086E-2,-4.300364852E-1,1.873773932E-1
2.019358917E1,1.936385781E-1,-5.260922313E-1,-7.818844914E-2
2.020272818E1,2.884726226E-1,-7.588250041E-1,-1.359135211E-1
2.021189266E1,2.481566966E-1,-8.739697337E-1,-0.000000000E0
2.022104443E1,1.191152167E-2,-6.746807694E-1,2.179197669E-1
2.023018344E1,-3.280249834E-1,-3.996468186E-1,5.946598053E-1
2.023934792E1,-4.750864506E-1,-5.421269313E-2,9.836167693E-1
2.024849969E1,-2.215848416E-1,5.088357925E-1,1.243226886E0
2.025763870E1,2.186833173E-1,1.015380859E0,1.304006219E0
2.026680318E1,3.235963285E-1,1.397313118E0,1.218945742E0
2.027595495E1,-1.374406368E-1,1.556591511E0,1.137397647E0
2.028509391E1,-7.692093849E-1,1.420983434E0,1.115407109E0
2.029425844E1,-1.015228152E0,1.068830013E0,1.166412830E0
2.030341016E1,-1.047144890E0,1.033400893E0,1.199704051E0
2.031254917E1,-1.202147365E0,1.107007980E0,1.108229637E0
2.032171370E1,-1.358218908E0,9.312366247E-1,9.197832346E-1
2.033086542E1,-1.426175594E0,6.267293096E-1,7.253811359E-1
2.034000443E1,-1.428466320E0,3.976615667E-1,5.770979524E-1
2.034916891E1,-1.276059866E0,1.247655526E-1,5.209000111E-1
2.035832068E1,-9.979717135E-1,-2.119639963E-1,5.952706337E-1
2.036745969E1,-8.012788892E-1,-4.321744442E-1,7.623373866E-1
2.037662417E1,-8.519791961E-1,-4.202629030E-1,9.255862832E-1
2.038577594E1,-1.025918007E0,-2.370087355E-1,1.009730577E0
2.039491495E1,-1.087460876E0,-2.076880634E-2,9.852966070E-1
2.040407943E1,-1.019351363E0,1.241547018E-1,8.953493834E-1
2.041323120E1,-9.739959836E-1,2.739650011E-1,7.995990515E-1
2.042238292E1,-1.032637239E0,4.579827189E-1,7.166765332E-1
2.043153469E1,-1.133579850E0,6.021426916E-1,6.444438696E-1
2.044068646E1,-1.190083146E0,6.807892919E-1,5.890094638E-1
2.044983818E1,-1.180309653E0,7.156075835E-1,5.535803437E-1
2.045898995E1,-1.147781968E0,6.673506498E-1,5.331169367E-1
2.046814167E1,-1.120751977E0,5.401417017E-1,5.247178078E-1
2.047728068E1,-1.082115889E0,3.576510847E-1,5.184566379E-1
2.048644521E1,-1.017060637E0,1.852394342E-1,5.080721974E-1
2.049559693E1,-9.549070001E-1,7.070557028E-2,4.824166298E-1
2.050474870E1,-9.023740888E-1,1.466033421E-2,4.253024161E-1
2.051390042E1,-8.287670016E-1,6.108472589E-3,3.550549746E-1
2.052305219E1,-7.660024762E-1,3.680354729E-2,3.316900730E-1
2.053220396E1,-8.322793841E-1,1.255291104E-1,3.781144619E-1
2.054135568E1,-9.228374958E-1,1.814216375E-1,3.939964771E-1
2.055050745E1,-9.626953006E-1,2.982461751E-1,3.849864900E-1
2.055965917E1,-9.733850956E-1,3.837648034E-1,3.837648034E-1
2.056881094E1,-9.839222431E-1,3.941491842E-1,4.056025743E-1
2.057796271E1,-9.881981611E-1,3.749074936E-1,4.428642690E-1
2.058711443E1,-9.920159578E-1,3.701734245E-1,4.844018817E-1
2.059626620E1,-9.880454540E-1,3.891097009E-1,5.070032477E-1
2.060541792E1,-9.758284688E-1,3.956763148E-1,5.112791657E-1
2.061456969E1,-9.541434050E-1,3.914003670E-1,4.979932308E-1
2.062372146E1,-9.350544214E-1,4.065188468E-1,4.785988331E-1
2.063287318E1,-9.263498783E-1,3.944546282E-1,4.756973088E-1
2.064202495E1,-9.200887084E-1,3.721587062E-1,4.873034060E-1
2.065117667E1,-9.017632604E-1,3.330644667E-1,4.776825607E-1
2.066032844E1,-9.009997249E-1,2.570139766E-1,4.636330605E-1
2.066948021E1,-9.258917570E-1,1.485885978E-1,4.697415531E-1
2.067863193E1,-9.283351302E-1,-1.282779220E-2,4.917320311E-1
2.068778370E1,-9.173398614E-1,-1.351499557E-1,4.894413650E-1
2.069693542E1,-9.286405444E-1,-2.623589039E-1,4.828747511E-1
2.070608719E1,-9.527690411E-1,-3.811686933E-1,4.570664763E-1
2.071523896E1,-9.457442760E-1,-4.434750974E-1,4.156815708E-1
2.072437797E1,-9.022213817E-1,-4.544703662E-1,3.549022675E-1
2.073354245E1,-8.593093753E-1,-3.938437700E-1,2.745758295E-1
2.074269422E1,-8.457180262E-1,-2.422009408E-1,2.159345001E-1
2.075183318E1,-8.675557971E-1,-4.825693369E-2,1.985253543E-1
2.076099771E1,-8.926005363E-1,1.270562261E-1,1.939440072E-1
2.077014943E1,-9.040539265E-1,2.988570333E-1,2.102841735E-1
2.077930120E1,-8.935168386E-1,4.266768098E-1,2.260134816E-1
2.078845297E1,-8.541171551E-1,5.170822144E-1,2.018850148E-1
2.079760469E1,-8.038749695E-1,6.464291215E-1,1.427855492E-1
2.080675646E1,-7.716528177E-1,7.849387527E-1,9.910997003E-2
2.081590818E1,-7.823426127E-1,9.591829181E-1,1.049130186E-1
2.082505995E1,-8.138012886E-1,1.081505060E0,1.308740228E-1
2.083419896E1,-8.486195803E-1,1.103801012E0,1.354553849E-1
2.084336344E1,-8.797727823E-1,1.086239100E0,1.224748790E-1
2.085251521E1,-8.947384953E-1,9.877400398E-1,9.132166207E-2
2.086165422E1,-8.953493834E-1,8.431219459E-1,6.887302548E-2
2.087081870E1,-8.773293495E-1,6.135960817E-1,6.490252167E-2
2.087997047E1,-8.331956863E-1,3.622324169E-1,7.757759839E-2
2.088912219E1,-7.824953198E-1,1.985253543E-1,9.452861547E-2
2.089827396E1,-7.330167294E-1,5.039490014E-2,9.193251282E-2
2.090742568E1,-6.980457306E-1,-6.230641901E-2,6.780404598E-2
2.091657745E1,-6.713211536E-1,-1.359135211E-1,5.329642445E-2
2.092572922E1,-6.264238358E-1,-2.093679011E-1,5.558710173E-2
2.093488094E1,-5.716003180E-1,-2.814478874E-1,7.498150319E-2
2.094403271E1,-5.387672782E-1,-3.101576865E-1,1.021642014E-1
2.095318448E1,-5.332696438E-1,-3.107685447E-1,1.241547018E-1
2.096233620E1,-5.462501645E-1,-3.220692277E-1,1.514901221E-1
2.097147521E1,-5.413633585E-1,-3.477247953E-1,2.205158621E-1
2.098063974E1,-5.279247165E-1,-3.590254784E-1,2.622061968E-1
2.098979146E1,-5.587725043E-1,-4.199574888E-1,2.767138183E-1
2.099893047E1,-6.238277555E-1,-5.326588154E-1,2.756448388E-1
2.100809495E1,-6.905628443E-1,-6.430694461E-1,2.661767006E-1
2.101724672E1,-7.266027927E-1,-6.733064055E-1,2.554868758E-1
2.102638573E1,-7.395833135E-1,-5.992411375E-1,2.522799075E-1
2.103555021E1,-7.525638342E-1,-4.732539058E-1,2.606790662E-1
2.104470198E1,-7.818844914E-1,-3.159607351E-1,2.872509360E-1
2.105384100E1,-8.345700502E-1,-8.200624585E-2,3.293993771E-1
2.106300547E1,-9.057337642E-1,2.018850148E-1,3.727695346E-1
2.107215724E1,-9.837695360E-1,4.495835900E-1,4.019374847E-1
2.108130896E1,-1.042105436E0,6.302416325E-1,4.123218954E-1
2.109046073E1,-1.060889006E0,7.368345261E-1,4.048390090E-1
2.109961250E1,-1.042563558E0,7.675296068E-1,3.840702176E-1
2.110875146E1,-9.920159578E-1,7.024743557E-1,3.607053161E-1
2.111791600E1,-9.083298445E-1,5.790832043E-1,3.339807391E-1
2.112706771E1,-8.096780181E-1,4.524851143E-1,2.974826097E-1
2.113620672E1,-7.194253802E-1,3.281776905E-1,2.457133085E-1
2.114537126E1,-6.380299330E-1,2.021904439E-1,1.901262105E-1
2.115452297E1,-5.659499764E-1,9.483403713E-2,1.382041872E-1
2.116367474E1,-5.100574493E-1,-4.581354442E-4,9.773556143E-2
2.117282646E1,-4.796678126E-1,-7.284353673E-2,7.055285573E-2
2.118197823E1,-4.708105326E-1,-9.819369763E-2,5.054761097E-2
2.119113000E1,-4.647020400E-1,-7.956285775E-2,3.649812192E-2
2.120028172E1,-4.425588250E-1,-6.398624927E-2,2.748812735E-2
2.120943350E1,-4.051444530E-1,-5.482354015E-2,2.947338112E-2
2.121858527E1,-3.788780272E-1,-2.809897438E-2,4.871506989E-2
2.122773698E1,-3.807105422E-1,2.076880634E-2,6.872031838E-2
2.123688876E1,-4.048390090E-1,9.849911928E-2,8.078455180E-2
2.124604047E1,-4.349232614E-1,2.147128135E-1,8.353336155E-2
2.125519224E1,-4.564556181E-1,3.544441164E-1,8.506047726E-2
2.126434402E1,-4.636330605E-1,4.785988331E-1,7.574506104E-2
2.127349573E1,-4.666872919E-1,5.479300022E-1,5.803048983E-2
2.128264750E1,-4.779879749E-1,5.821374655E-1,4.871506989E-2
2.129179922E1,-4.911212027E-1,5.757235289E-1,8.292251825E-2
2.130095100E1,-4.892886579E-1,5.065450668E-1,1.220167428E-1
2.131010277E1,-4.607315361E-1,4.017847776E-1,1.333174109E-1
2.131925448E1,-4.191939235E-1,3.071034551E-1,1.256818175E-1
2.132840626E1,-3.723114133E-1,2.432699203E-1,1.149920002E-1
2.133755803E1,-3.188622594E-1,1.968455315E-1,1.056765765E-1
2.134670975E1,-2.580829561E-1,1.487413049E-1,9.391776472E-2
2.135586152E1,-1.860029846E-1,9.468132257E-2,7.803573459E-2
2.136501323E1,-1.200314835E-1,3.313846514E-2,5.528167635E-2
2.137416501E1,-7.635590434E-2,-1.985253580E-2,4.046862945E-2
2.138331678E1,-6.245913357E-2,-5.543438718E-2,3.756710514E-2
2.139246850E1,-7.024743408E-2,-7.834116369E-2,3.558185324E-2
2.140162027E1,-7.818844914E-2,-8.918370306E-2,3.497100621E-2
2.141077204E1,-7.956285775E-2,-7.834116369E-2,3.619270027E-2
2.141992376E1,-7.040014863E-2,-6.994201243E-2,3.985778242E-2
2.142907553E1,-6.627693027E-2,-4.810422286E-2,4.107947648E-2
2.143822724E1,-7.696675509E-2,-1.740914769E-2,3.802524135E-2
2.144737902E1,-1.014006436E-1,2.397575416E-2,3.038965166E-2
2.145653079E1,-1.178935245E-1,8.429691941E-2,2.473931387E-2
2.146568250E1,-1.240019947E-1,1.487413049E-1,2.412846684E-2
2.147483428E1,-1.250709742E-1,1.933331639E-1,2.412846684E-2
2.148398600E1,-1.131594554E-1,1.902789176E-1,1.618745178E-2
2.149313777E1,-8.643488586E-2,1.583621502E-1,3.512371797E-3
2.150228954E1,-4.917320609E-2,1.432436854E-1,-4.734066315E-3
2.151144126E1,-1.175880991E-2,1.530172378E-1,-8.093725890E-3
2.152059303E1,1.527118124E-2,1.699682474E-1,-3.665083554E-3
2.152974475E1,3.222219273E-2,1.863084137E-1,3.817795310E-3
2.153889652E1,4.718795046E-2,1.742441803E-1,1.313321572E-2
2.154804829E1,5.940489471E-2,1.079672500E-1,1.924168877E-2
