"Time (s)","Gyroscope x (rad/s)","Gyroscope y (rad/s)","Gyroscope z (rad/s)"
1.395592022E1,-5.543438718E-2,-2.580829710E-2,-8.108997345E-2
1.396507141E1,-5.558710173E-2,-9.009997360E-3,-8.353336155E-2
1.397422261E1,-5.268557742E-2,1.832541777E-3,-8.658760041E-2
1.398337381E1,-4.703523964E-2,3.665083554E-3,-8.842013776E-2
1.399252501E1,-4.337015375E-2,-4.581354442E-4,-8.780929446E-2
1.400167620E1,-4.199574888E-2,-8.399149403E-3,-8.719844371E-2
1.401082740E1,-4.749337584E-2,-1.740914769E-2,-8.597674966E-2
1.401997860E1,-5.558710173E-2,-1.618745178E-2,-8.170082420E-2
1.402912980E1,-6.306997687E-2,-8.857285604E-3,-7.513421029E-2
1.403828100E1,-6.917845458E-2,-4.123218823E-3,-6.841489673E-2
1.404743214E1,-7.543963939E-2,-2.290677279E-3,-6.108472496E-2
1.405658334E1,-8.093725890E-2,-7.024743594E-3,-5.497625470E-2
1.406573454E1,-8.582404256E-2,-1.664558798E-2,-5.085303262E-2
1.407488574E1,-9.009996802E-2,-2.336490713E-2,-4.840964451E-2
1.408403693E1,-9.132166207E-2,-2.702999115E-2,-5.085303262E-2
1.409318813E1,-9.071081877E-2,-1.969982497E-2,-5.146388337E-2
1.410233933E1,-8.780929446E-2,-5.344913341E-3,-5.024218559E-2
1.411149053E1,-8.002099395E-2,1.038440317E-2,-4.703523964E-2
1.412064173E1,-6.963659078E-2,2.489202656E-2,-4.214845970E-2
1.412979292E1,-6.108472496E-2,3.756710514E-2,-3.665083647E-2
1.413894412E1,-5.375456065E-2,4.306473210E-2,-3.405473381E-2
1.414809532E1,-4.886778072E-2,4.001049697E-2,-3.833066672E-2
1.415724652E1,-4.504998401E-2,3.038965166E-2,-4.627167806E-2
1.416639766E1,-4.046862945E-2,1.710372418E-2,-5.543438718E-2
1.417554886E1,-3.787253052E-2,4.428642802E-3,-6.459710002E-2
1.418470006E1,-3.176405653E-2,7.635590737E-4,-7.055285573E-2
1.419385126E1,-2.565558441E-2,1.282779220E-2,-7.177454978E-2
1.420300246E1,-1.847812906E-2,3.573456407E-2,-6.627693027E-2
1.421215365E1,-1.252236869E-2,5.741964281E-2,-6.016845629E-2
1.422130485E1,-7.024743594E-3,6.474980712E-2,-5.390727147E-2
1.423045605E1,9.162708884E-4,6.123743951E-2,-5.146388337E-2
1.423960725E1,1.084253844E-2,5.329642445E-2,-5.070032179E-2
1.424875845E1,2.199050039E-2,5.161659420E-2,-5.619794875E-2
1.425790964E1,3.237490356E-2,6.352811307E-2,-6.398624927E-2
1.426706084E1,4.520269856E-2,8.154810965E-2,-7.253811508E-2
1.427621199E1,6.001574174E-2,9.666658193E-2,-8.032641560E-2
1.428536318E1,7.101099193E-2,1.050657257E-1,-8.643488586E-2
1.429451438E1,7.849387079E-2,1.033858955E-1,-8.994726092E-2
1.430366558E1,8.108997345E-2,8.521319181E-2,-9.361234307E-2
1.431281678E1,8.444963396E-2,6.047387794E-2,-9.910997003E-2
1.432196798E1,8.765657991E-2,4.367557913E-2,-1.027750522E-1
1.433111917E1,9.254335612E-2,3.756710514E-2,-1.015533581E-1
1.434027037E1,9.819369763E-2,3.588727489E-2,-9.895725548E-2
1.434942157E1,1.030804738E-1,2.977880463E-2,-9.590301663E-2
1.435857277E1,1.032331884E-1,1.893626526E-2,-8.979454637E-2
1.436772397E1,1.026223376E-1,6.261184346E-3,-8.612946421E-2
1.437687511E1,1.064401343E-1,-7.482878864E-3,-8.429691941E-2
1.438602631E1,1.110214889E-1,-2.260134928E-2,-8.780929446E-2
1.439517751E1,1.148392856E-1,-3.833066672E-2,-9.513945878E-2
1.440432871E1,1.211004704E-1,-4.963133857E-2,-1.030804738E-1
1.441347990E1,1.255291104E-1,-5.451811850E-2,-1.110214889E-1
1.442263110E1,1.299577504E-1,-6.001574174E-2,-1.175880954E-1
1.443178230E1,1.311794519E-1,-6.368082762E-2,-1.206423342E-1
1.444093350E1,1.317902952E-1,-6.062658876E-2,-1.236965731E-1
1.445008470E1,1.317902952E-1,-5.405998230E-2,-1.273616552E-1
1.445923589E1,1.359135211E-1,-4.321744293E-2,-1.304158866E-1
1.446838704E1,1.408002973E-1,-3.054236248E-2,-1.334701329E-1
1.447753824E1,1.481304616E-1,-1.969982497E-2,-1.365243644E-1
1.448668943E1,1.609582454E-1,-1.236965694E-2,-1.375933439E-1
1.449584063E1,1.763821393E-1,-9.926267900E-3,-1.404948682E-1
1.450499183E1,1.968455315E-1,-1.359135192E-2,-1.403421611E-1
1.451414303E1,2.191414535E-1,-2.504473738E-2,-1.383569092E-1
1.452329423E1,2.432699203E-1,-4.001049697E-2,-1.327065676E-1
1.453244542E1,2.704526186E-1,-5.314370990E-2,-1.232384369E-1
1.454159662E1,2.994678617E-1,-6.688777357E-2,-1.023169160E-1
1.455074782E1,3.303156495E-1,-8.536590636E-2,-7.223268598E-2
1.455989897E1,3.617742956E-1,-1.165191159E-1,-4.016320780E-2
1.456905016E1,3.862081766E-1,-1.647760421E-1,-2.290677279E-2
1.457820136E1,3.999522328E-1,-2.388412803E-1,-2.458660305E-2
1.458735256E1,4.045335948E-1,-3.257342875E-1,-5.314370990E-2
1.459650376E1,4.126273096E-1,-3.956763148E-1,-1.018587798E-1
1.460565496E1,4.390464723E-1,-4.278984964E-1,-1.646233350E-1
1.461480615E1,4.822639227E-1,-4.111002088E-1,-2.119639963E-1
1.462395735E1,5.422796607E-1,-3.599417508E-1,-2.316638231E-1
1.463310855E1,6.212316751E-1,-2.935121059E-1,-2.293731421E-1
1.464225975E1,7.197307944E-1,-2.244863659E-1,-2.092151791E-1
1.465141089E1,8.307522535E-1,-1.688992679E-1,-1.791309565E-1
1.466056209E1,9.425373077E-1,-1.432436854E-1,-1.551551968E-1
1.466971329E1,1.043174386E0,-1.533226669E-1,-1.488940120E-1
1.467886449E1,1.131594539E0,-1.893626451E-1,-1.592784226E-1
1.468801568E1,1.209935665E0,-2.478512824E-1,-1.800472289E-1
1.469716688E1,1.280183196E0,-3.206948042E-1,-2.046338320E-1
1.470631808E1,1.338366389E0,-4.056025743E-1,-2.272351831E-1
1.471546928E1,1.387539506E0,-5.176930428E-1,-2.396048307E-1
1.472462048E1,1.430146098E0,-6.574243903E-1,-2.435753495E-1
1.473377162E1,1.462215662E0,-8.086090684E-1,-2.510582209E-1
1.474292282E1,1.475043416E0,-9.846857786E-1,-2.722851634E-1
1.475207402E1,1.466644287E0,-1.141978979E0,-3.016058207E-1
1.476122522E1,1.437628984E0,-1.264453769E0,-3.303156495E-1
1.477037641E1,1.398534775E0,-1.357455373E0,-3.465031087E-1
1.477952761E1,1.359898686E0,-1.449845910E0,-3.698680103E-1
1.478867881E1,1.331952453E0,-1.475806952E0,-3.938437700E-1
1.479783001E1,1.327218413E0,-1.421594262E0,-4.019374847E-1
1.480698121E1,1.365243673E0,-1.324011445E0,-4.022429287E-1
1.481613240E1,1.459314108E0,-1.240630746E0,-4.101839364E-1
1.482527084E1,1.590951681E0,-1.265217423E0,-4.282039404E-1
1.483443480E1,1.745954156E0,-1.411515355E0,-4.611896873E-1
1.484358595E1,1.942341566E0,-1.571709991E0,-5.256340504E-1
1.485272438E1,2.134147644E0,-1.676164865E0,-6.317687631E-1
1.486188834E1,2.286401272E0,-1.746870399E0,-7.569924593E-1
1.487103954E1,2.427354336E0,-1.803831935E0,-8.774821162E-1
1.488019074E1,2.601751089E0,-1.805359125E0,-1.033859015E0
1.488934193E1,2.763167620E0,-1.720604062E0,-1.174506545E0
1.489849313E1,2.869760513E0,-1.621188641E0,-1.239103675E0
1.490763157E1,2.917101145E0,-1.546512604E0,-1.233911514E0
1.491679548E1,2.895874262E0,-1.450609565E0,-1.198024154E0
1.492594667E1,2.795542479E0,-1.283695459E0,-1.172674060E0
1.493508511E1,2.660239697E0,-1.033248186E0,-1.168856263E0
1.494424907E1,2.525700808E0,-7.404996157E-1,-1.154195905E0
1.495340027E1,2.429034233E0,-5.095993280E-1,-1.094027400E0
1.496255147E1,2.365047932E0,-3.581092060E-1,-9.987352490E-1
1.497170266E1,2.330382347E0,-2.389939874E-1,-8.994725943E-1
1.498085386E1,2.360161066E0,-1.043021679E-1,-7.991409302E-1
1.499000501E1,2.407807112E0,4.077405483E-2,-7.036960125E-1
1.499915620E1,2.460340023E0,1.302631795E-1,-6.423059106E-1
1.500830740E1,2.467517614E0,1.461452097E-1,-6.154286265E-1
1.501744584E1,2.395437479E0,1.495048702E-1,-6.201626658E-1
1.502660980E1,2.248986959E0,1.371352077E-1,-6.694886088E-1
1.503576100E1,2.066038132E0,8.704573661E-2,-7.537854910E-1
1.504489943E1,1.921725512E0,1.114796288E-2,-8.463288546E-1
1.505406339E1,1.836054206E0,-1.097997949E-1,-9.202414155E-1
1.506321459E1,1.779856205E0,-2.183778882E-1,-9.455915689E-1
1.507236574E1,1.702736735E0,-3.009949923E-1,-9.136747718E-1
1.508151693E1,1.605001211E0,-3.574983478E-1,-8.495358229E-1
1.509066813E1,1.489703774E0,-3.888042867E-1,-7.757760286E-1
1.509981933E1,1.370588541E0,-4.001049399E-1,-6.917845011E-1
1.510897053E1,1.255443811E0,-4.040754735E-1,-5.917583108E-1
1.511812173E1,1.148087382E0,-3.720059693E-1,-4.955498278E-1
1.512727292E1,1.048061132E0,-2.912214398E-1,-4.425588250E-1
1.513642412E1,9.416210651E-1,-2.057028115E-1,-3.981196880E-1
1.514557532E1,8.307522535E-1,-1.527118087E-1,-3.605526090E-1
1.515472647E1,7.331694365E-1,-1.453816444E-1,-3.264978528E-1
1.516387766E1,6.560499668E-1,-1.598892659E-1,-3.013004065E-1
1.517302886E1,5.784723759E-1,-1.858502775E-1,-2.744231224E-1
1.518218006E1,5.103628635E-1,-2.183778882E-1,-2.527380586E-1
1.519133126E1,4.524851143E-1,-2.363978922E-1,-2.312056869E-1
1.520048246E1,3.985778391E-1,-2.255553454E-1,-1.986780763E-1
1.520963365E1,3.284831047E-1,-2.014268786E-1,-1.496575773E-1
1.521878485E1,2.400629669E-1,-1.869192570E-1,-9.239064902E-2
1.522793600E1,1.466033459E-1,-1.753131598E-1,-2.886253223E-2
1.523708720E1,5.253286287E-2,-1.679829955E-1,3.634541109E-2
1.524623839E1,-3.466558084E-2,-1.684411317E-1,1.041494608E-1
1.525538959E1,-1.113269106E-1,-1.659977436E-1,1.688992679E-1
1.526454074E1,-1.721062213E-1,-1.585148573E-1,2.266243398E-1
1.527369199E1,-2.179197669E-1,-1.517955512E-1,2.666348219E-1
1.528284318E1,-2.574721277E-1,-1.536280811E-1,2.980934680E-1
1.529199438E1,-3.023693860E-1,-1.681357026E-1,3.271087110E-1
1.530114553E1,-3.515425920E-1,-2.017323077E-1,3.523061574E-1
1.531029673E1,-4.023956358E-1,-2.379250079E-1,3.684936166E-1
1.531944792E1,-4.614951015E-1,-2.675510943E-1,3.833066523E-1
1.532859912E1,-5.311316848E-1,-2.663294077E-1,4.085040987E-1
1.533775032E1,-5.993938446E-1,-2.446443290E-1,4.477510452E-1
1.534690152E1,-6.146650314E-1,-1.957765520E-1,4.640912116E-1
1.535605272E1,-5.517477989E-1,-5.543438718E-2,4.222481549E-1
1.536520391E1,-4.488200247E-1,7.223268598E-2,3.532224298E-1
1.537434235E1,-3.738385141E-1,8.918370306E-2,3.373403847E-1
1.538350626E1,-3.411581814E-1,-6.673506647E-2,3.804051280E-1
1.539265746E1,-3.504736125E-1,-1.748550236E-1,4.824166298E-1
1.540180865E1,-3.278722763E-1,-1.997470558E-1,5.864133835E-1
1.541095985E1,-2.104368806E-1,-1.908897758E-1,6.287145615E-1
1.542011105E1,-7.314895838E-2,-2.199050039E-2,6.082511544E-1
1.542924949E1,7.024743594E-3,2.116585821E-1,5.474718809E-1
1.543841344E1,7.177455351E-3,4.207210541E-1,5.071559548E-1
1.544756459E1,-5.848862603E-2,5.213581324E-1,5.322006941E-1
1.545670303E1,-2.096733153E-1,4.947862923E-1,6.172611713E-1
1.546586699E1,-4.321744442E-1,5.053234100E-1,7.530219555E-1
1.547501818E1,-5.899257660E-1,7.015580535E-1,9.057337642E-1
1.548415662E1,-7.127060294E-1,1.063485026E0,1.051726222E0
1.549332058E1,-9.177979827E-1,1.417776465E0,1.147018433E0
1.550247178E1,-1.159082651E0,1.600572586E0,1.125791550E0
1.551161022E1,-1.353942990E0,1.649287581E0,1.039356589E0
1.552077412E1,-1.491994381E0,1.537960649E0,9.799517393E-1
1.552992532E1,-1.522994876E0,1.298508525E0,9.365815520E-1
1.553906376E1,-1.441141367E0,1.103953719E0,9.280297160E-1
1.554822772E1,-1.386623263E0,9.999569654E-1,9.443698525E-1
1.555737891E1,-1.372879267E0,8.414421082E-1,9.465078115E-1
1.556651735E1,-1.360967636E0,6.375718117E-1,8.959602118E-1
1.557568131E1,-1.428619027E0,5.279247165E-1,7.844805717E-1
1.558483246E1,-1.478097677E0,5.496098399E-1,6.308525205E-1
1.559398365E1,-1.401741743E0,6.291726828E-1,4.779879749E-1
1.560313485E1,-1.325691223E0,6.481089592E-1,3.607053161E-1
1.561228605E1,-1.269646049E0,6.154286265E-1,3.006895781E-1
1.562142449E1,-1.253611326E0,6.006155610E-1,3.271087110E-1
1.563058844E1,-1.315306902E0,7.069029808E-1,4.107947946E-1
1.563973964E1,-1.309503794E0,9.211576581E-1,5.132644176E-1
1.564887808E1,-1.235591292E0,1.084406614E0,5.864133835E-1
1.565804199E1,-1.187487125E0,1.089751482E0,5.836645365E-1
1.566719318E1,-1.143200636E0,9.860602021E-1,5.468609929E-1
1.567633162E1,-1.096776247E0,8.993198872E-1,5.196782947E-1
1.568549558E1,-1.082115889E0,8.521319032E-1,5.033381581E-1
1.569464678E1,-1.060430884E0,7.721109390E-1,4.920374751E-1
1.570378522E1,-9.973608851E-1,6.322268844E-1,4.515688419E-1
1.571294912E1,-9.161182046E-1,4.602734149E-1,3.796415627E-1
1.572210032E1,-8.270871639E-1,2.660239935E-1,2.991624475E-1
1.573125152E1,-7.282826304E-1,1.363716573E-1,2.273878902E-1
1.574040272E1,-6.606312990E-1,2.244863659E-2,2.003578991E-1
1.574955391E1,-6.545228362E-1,-1.087308154E-1,2.127275616E-1
1.575869235E1,-6.700994372E-1,-1.647760421E-1,2.316638231E-1
1.576785626E1,-7.110261917E-1,-8.689302206E-2,2.819060087E-1
1.577700746E1,-7.678350210E-1,2.412846684E-2,3.535278440E-1
1.578615865E1,-8.522846103E-1,1.482831687E-1,3.936910629E-1
1.579530985E1,-8.545753360E-1,2.090624720E-1,3.814741075E-1
1.580446105E1,-8.389987350E-1,2.716743052E-1,3.258870244E-1
1.581361225E1,-8.645015955E-1,3.350497186E-1,2.591519356E-1
1.582276345E1,-9.077190161E-1,4.492781460E-1,1.873773932E-1
1.583191459E1,-9.509364963E-1,5.563291311E-1,1.198787764E-1
1.584106579E1,-9.801044464E-1,6.705575585E-1,8.903098851E-2
1.585021699E1,-1.007134438E0,8.556442857E-1,1.203369126E-1
1.585936818E1,-1.080741525E0,1.104869962E0,2.394521236E-1
1.586851938E1,-1.118614078E0,1.198329568E0,4.051444530E-1
1.587767058E1,-1.127776742E0,1.307365894E0,5.784723759E-1
1.588682173E1,-1.177408099E0,1.504822254E0,6.890357137E-1
1.589597292E1,-1.217113137E0,1.576138616E0,7.571451664E-1
1.590512412E1,-1.198787689E0,1.519482613E0,7.530219555E-1
1.591427532E1,-1.134954214E0,1.390899181E0,6.589514613E-1
1.592342652E1,-1.090056896E0,1.307365894E0,5.476245880E-1
1.593257772E1,-1.042105436E0,1.243074179E0,4.416425824E-1
1.594172891E1,-9.857547879E-1,1.124722481E0,3.371876776E-1
1.595088006E1,-9.630007148E-1,1.008814216E0,2.762556672E-1
1.596003126E1,-9.526162744E-1,9.654440880E-1,2.690782249E-1
1.596918246E1,-9.382613897E-1,9.191724062E-1,2.948864996E-1
1.597833365E1,-9.190196991E-1,7.481352091E-1,3.306210935E-1
1.598748485E1,-9.107732773E-1,5.228852630E-1,3.338280320E-1
1.599663605E1,-8.867974877E-1,2.622061968E-1,2.858765125E-1
1.600578725E1,-8.616000414E-1,4.749337584E-2,1.971509457E-1
1.601493839E1,-8.744278550E-1,-6.917845458E-2,1.000262350E-1
1.602408959E1,-8.837432861E-1,-1.623326540E-1,1.206423342E-2
1.603322803E1,-8.600729704E-1,-2.301367074E-1,-6.337540597E-2
1.604239199E1,-8.446490765E-1,-2.031067163E-1,-1.116323397E-1
1.605154318E1,-8.423583508E-1,-1.067455560E-1,-1.232384369E-1
1.606069438E1,-8.386932611E-1,2.641914412E-2,-9.269607067E-2
1.606984553E1,-8.444963098E-1,2.286095917E-1,-2.275406010E-2
1.607899673E1,-8.842014074E-1,3.596363366E-1,5.268557742E-2
1.608814792E1,-9.407047629E-1,3.988832533E-1,8.215895295E-2
1.609729912E1,-9.660549164E-1,3.300102353E-1,8.322793990E-2
1.610645032E1,-9.402466416E-1,1.982199401E-1,9.880454093E-2
1.611558876E1,-8.776348233E-1,7.895200700E-2,1.053711548E-1
1.612475266E1,-7.736380696E-1,-2.993151546E-2,9.834641218E-2
1.613390386E1,-6.145123243E-1,-1.803526580E-1,6.536065787E-2
1.614304230E1,-3.869717419E-1,-3.490992188E-1,-1.725643501E-2
1.615220626E1,-1.082726792E-1,-4.944808483E-1,-1.641651988E-1
1.616135746E1,1.601946950E-1,-6.502469182E-1,-3.703261614E-1
1.617049589E1,3.602471650E-1,-8.570187092E-1,-6.082511544E-1
1.617965980E1,4.943281412E-1,-1.053558826E0,-8.440381885E-1
1.618881100E1,6.471926570E-1,-1.215738773E0,-1.079825282E0
1.619794943E1,8.732061386E-1,-1.365701795E0,-1.318666577E0
1.620711339E1,1.180920482E0,-1.509403586E0,-1.521620512E0
1.621626459E1,1.470003963E0,-1.504516840E0,-1.650814772E0
1.622540303E1,1.645469785E0,-1.456870675E0,-1.712510347E0
1.623456693E1,1.797418118E0,-1.445722699E0,-1.684563994E0
1.624371813E1,2.004495382E0,-1.340198874E0,-1.590340853E0
1.625285657E1,2.183931589E0,-1.123653531E0,-1.458703279E0
1.626202053E1,2.308391809E0,-8.313631415E-1,-1.343100429E0
1.627117173E1,2.400629759E0,-5.532749295E-1,-1.295148849E0
1.628031016E1,2.467975616E0,-3.465031087E-1,-1.316833973E0
1.628947407E1,2.558991909E0,-1.476723254E-1,-1.380362034E0
1.629862527E1,2.760113239E0,6.795676053E-2,-1.453511000E0
1.630776370E1,3.111350536E0,1.739387512E-1,-1.495201349E0
1.631692766E1,3.573303699E0,7.528692484E-2,-1.484511495E0
1.632607886E1,4.015404224E0,-7.131642103E-2,-1.377460599E0
1.633523006E1,4.261270523E0,-2.913741469E-1,-1.191763043E0
1.634438126E1,4.187357903E0,-4.987567961E-1,-1.055849433E0
1.635353240E1,3.840091228E0,-2.302894145E-1,-9.797990322E-1
1.636267084E1,3.521839857E0,2.238755226E-1,-8.681666851E-1
1.637183480E1,3.266658545E0,4.958552718E-1,-7.082774043E-1
1.638098600E1,3.006590128E0,7.948650122E-1,-5.949652195E-1
1.639012443E1,2.771719456E0,1.055544019E0,-5.515950918E-1
1.639928834E1,2.605721712E0,1.074022174E0,-5.528167486E-1
1.640843954E1,2.498365402E0,8.762603998E-1,-5.265503526E-1
1.641757798E1,2.429186821E0,5.201364160E-1,-4.920374751E-1
1.642674193E1,2.386885643E0,1.302631795E-1,-4.737120569E-1
1.643589313E1,2.360313892E0,-1.475196183E-1,-4.651601911E-1
1.644503157E1,2.314347506E0,-2.965663373E-1,-4.903576374E-1
1.645419553E1,2.221651554E0,-3.950654566E-1,-5.251759291E-1
1.646334667E1,2.101925373E0,-5.105155706E-1,-5.638120174E-1
1.647248511E1,1.959292531E0,-6.406260729E-1,-6.600204706E-1
1.648164907E1,1.765653968E0,-7.316423059E-1,-7.302678823E-1
1.649080027E1,1.539182425E0,-8.524373770E-1,-7.220214605E-1
1.649993870E1,1.293927193E0,-9.634588361E-1,-6.284091473E-1
1.650910266E1,1.081199646E0,-1.071731567E0,-5.253286362E-1
1.651825381E1,8.854231238E-1,-1.138161182E0,-4.619532526E-1
1.652739225E1,6.983511448E-1,-1.174506545E0,-4.358395338E-1
1.653655620E1,5.279247165E-1,-1.160915256E0,-4.236225784E-1
1.654570740E1,3.775036037E-1,-1.099525094E0,-3.868190348E-1
1.655485860E1,2.441861928E-1,-1.026681542E0,-3.549022675E-1
1.656400975E1,8.154810965E-2,-8.429692388E-1,-3.109212518E-1
1.657316094E1,-6.902574003E-2,-5.044071078E-1,-2.469350100E-1
1.658229938E1,-1.719534993E-1,-1.250709742E-1,-1.623326540E-1
1.659146334E1,-2.509055138E-1,1.908897758E-1,-6.123743951E-2
1.660061454E1,-3.260397315E-1,3.327590525E-1,3.939964995E-2
1.660976574E1,-4.086568058E-1,2.979407609E-1,1.128540337E-1
1.661891688E1,-4.944808483E-1,1.498102844E-1,1.721062213E-1
1.662806808E1,-5.905365944E-1,1.985253580E-2,2.600682080E-1
1.663721928E1,-6.772769094E-1,-4.077405483E-2,3.584146202E-1
1.664637048E1,-7.493568659E-1,-8.460234851E-2,4.288147688E-1
1.665552167E1,-7.976137996E-1,-1.490467340E-1,4.627167881E-1
1.666467282E1,-8.614473343E-1,-1.895153672E-1,4.842491746E-1
1.667382402E1,-9.593356252E-1,-1.363716573E-1,5.152496696E-1
1.668297522E1,-1.006065488E0,-3.817795217E-2,5.442649126E-1
1.669211365E1,-9.145910740E-1,1.349972486E-1,5.575508475E-1
1.670127761E1,-7.951704264E-1,4.836383164E-1,6.168029904E-1
1.671042881E1,-7.472189069E-1,8.477032781E-1,7.585195899E-1
1.671956725E1,-7.282826304E-1,9.645278454E-1,8.721371889E-1
1.672873115E1,-7.226322889E-1,8.136485219E-1,9.981244206E-1
1.673788235E1,-7.343910933E-1,5.341859460E-1,1.169161677E0
1.674702079E1,-8.507575393E-1,4.411844313E-1,1.334548593E0
1.675618475E1,-1.143047929E0,5.225798488E-1,1.474585295E0
1.676533594E1,-1.455954432E0,8.803836107E-1,1.563158154E0
1.677447438E1,-1.766417503E0,1.621646762E0,1.561630964E0
1.678363829E1,-1.967844486E0,2.093373537E0,1.439614296E0
1.679278949E1,-2.111546278E0,1.924779654E0,1.217113137E0
1.680192792E1,-2.214779377E0,1.552162886E0,1.046839476E0
1.681109188E1,-2.085127115E0,1.120293856E0,1.030346632E0
1.682024303E1,-1.814063668E0,4.054498672E-1,1.087766290E0
1.682938147E1,-1.667002201E0,-1.652341783E-1,1.152821541E0
1.683854542E1,-1.509709001E0,-3.794888556E-1,1.165496588E0
1.684769662E1,-1.313779712E0,-5.129590034E-1,1.030957460E0
1.685684782E1,-1.267049909E0,-7.290462255E-1,7.571451664E-1
1.686599897E1,-1.176186442E0,-7.667660117E-1,4.721849263E-1
1.687515016E1,-1.076465607E0,-6.623111367E-1,2.840439677E-1
1.688428860E1,-1.002705812E0,-6.691831946E-1,2.044811249E-1
1.689345256E1,-9.491039515E-1,-6.768187881E-1,2.305948436E-1
1.690260376E1,-9.523108602E-1,-5.071559548E-1,3.373403847E-1
1.691174220E1,-1.007745266E0,-2.066190839E-1,4.472928941E-1
1.692090610E1,-1.124417067E0,1.032331884E-1,5.372401476E-1
1.693005730E1,-1.213295341E0,3.672719002E-1,6.120689511E-1
1.693920850E1,-1.233147860E0,5.795413256E-1,6.551336646E-1
1.694835970E1,-1.214211583E0,7.214106321E-1,6.807892919E-1
1.695751084E1,-1.167481780E0,7.800519466E-1,7.201889157E-1
1.696664933E1,-1.110520363E0,7.314895988E-1,7.603521347E-1
1.697581324E1,-1.068982720E0,6.332958937E-1,7.673768401E-1
1.698496443E1,-1.048061132E0,4.588989913E-1,7.175928354E-1
1.699411563E1,-1.034011722E0,2.924431264E-1,6.519267559E-1
1.700326683E1,-1.023169160E0,2.675510943E-1,6.018372774E-1
1.701241798E1,-1.021336675E0,2.173089087E-1,5.598415136E-1
1.702156917E1,-1.032331824E0,1.611109674E-1,5.144860744E-1
1.703072037E1,-1.044548869E0,1.722589284E-1,4.625640810E-1
1.703987157E1,-1.067761064E0,1.774511337E-1,3.982724249E-1
1.704902277E1,-1.090056896E0,1.656923145E-1,3.339807391E-1
1.705817391E1,-1.073411345E0,1.915006191E-1,2.761029601E-1
1.706732511E1,-1.053253412E0,3.558185399E-1,2.518217862E-1
1.707647631E1,-1.061194420E0,6.288672686E-1,2.350234836E-1
1.708562751E1,-1.084559321E0,8.820634484E-1,2.742704153E-1
1.709477870E1,-1.142131686E0,1.127776742E0,4.135435820E-1
1.710392985E1,-1.196344376E0,1.339893460E0,5.688515306E-1
1.711308105E1,-1.216349602E0,1.411209822E0,6.369609833E-1
1.712223225E1,-1.238034725E0,1.418845415E0,6.325323582E-1
1.713138344E1,-1.267202616E0,1.518260837E0,6.077930331E-1
1.714053464E1,-1.269340634E0,1.630809426E0,5.967977643E-1
1.714968579E1,-1.228261113E0,1.526507258E0,5.726693273E-1
1.715882423E1,-1.194664478E0,1.311947227E0,5.169295073E-1
1.716798818E1,-1.215433359E0,1.164122105E0,4.723376334E-1
1.717713938E1,-1.217876673E0,9.819369912E-1,4.314108789E-1
1.718627782E1,-1.165649295E0,7.461498976E-1,3.709369898E-1
1.719544178E1,-1.145644069E0,5.488462448E-1,2.863346636E-1
1.720459292E1,-1.159388065E0,3.868190348E-1,2.020377368E-1
1.721374412E1,-1.140451789E0,3.083251417E-1,1.327065676E-1
1.722289532E1,-1.124569774E0,2.767138183E-1,6.933116168E-2
1.723204652E1,-1.118919492E0,2.108950168E-1,4.856235534E-2
1.724119766E1,-1.114796281E0,1.537808031E-1,6.520794332E-2
1.725034886E1,-1.164122105E0,6.459710002E-2,9.177979827E-2
1.725950006E1,-1.209324837E0,-4.382828996E-2,9.697200358E-2
1.726865126E1,-1.218945742E0,-5.008947477E-2,5.787777901E-2
1.727780246E1,-1.234980464E0,4.077405483E-2,2.168507688E-2
1.728695360E1,-1.228566527E0,1.015533581E-1,-1.252236869E-2
1.729610480E1,-1.194511771E0,1.550024897E-1,-3.848337755E-2
1.730525600E1,-1.149614573E0,1.779092699E-1,-6.322269142E-2
1.731440720E1,-1.072647810E0,7.971556485E-2,-1.102579311E-1
1.732354563E1,-9.465078115E-1,-1.505738497E-1,-1.800472289E-1
1.733270954E1,-7.032378912E-1,-4.755446017E-1,-3.179459870E-1
1.734186074E1,-3.089359999E-1,-8.223531246E-1,-5.659499764E-1
1.735099917E1,2.032594234E-1,-1.135565042E0,-9.156600237E-1
1.736016313E1,7.727217674E-1,-1.307824016E0,-1.305991411E0
1.736931433E1,1.350125194E0,-1.330119848E0,-1.671430826E0
1.737845277E1,1.843078852E0,-1.149919987E0,-2.019766569E0
1.738761667E1,2.174310923E0,-8.309049606E-1,-2.280292749E0
1.739676787E1,2.326717138E0,-3.875826001E-1,-2.375279665E0
1.740590631E1,2.321525097E0,1.432436854E-1,-2.254789829E0
1.741507027E1,2.255553484E0,3.979669809E-1,-1.925696015E0
1.742422141E1,2.237686157E0,4.104893506E-1,-1.499019146E0
1.743335985E1,2.307933569E0,2.570139766E-1,-1.021489382E0
1.744252381E1,2.451635361E0,1.907370538E-1,-5.990884304E-1
1.745167501E1,2.668028116E0,3.547495604E-1,-3.411581814E-1
1.746081344E1,2.930539608E0,5.767925382E-1,-2.168507725E-1
1.746997735E1,3.227564096E0,7.124006152E-1,-1.994416267E-1
1.747912855E1,3.562003136E0,6.438329816E-1,-2.971771955E-1
1.748826699E1,3.840854883E0,3.119902313E-1,-5.277720094E-1
1.749743094E1,3.942255497E0,-1.339282542E-1,-8.509102464E-1
1.750658209E1,3.894762039E0,-6.021426916E-1,-1.161067963E0
1.751572053E1,3.851086617E0,-9.423846006E-1,-1.386470556E0
1.752488449E1,3.814741135E0,-1.201536536E0,-1.551552057E0
1.753403568E1,3.707690239E0,-1.418234587E0,-1.589882731E0
1.754317412E1,3.551160574E0,-1.463284612E0,-1.482220888E0
1.755233803E1,3.450065374E0,-1.361273170E0,-1.268729806E0
1.756148923E1,3.434030533E0,-1.129151106E0,-1.033400893E0
1.757062766E1,3.391576767E0,-7.922688723E-1,-8.646543026E-1
1.757979162E1,3.207864285E0,-4.095730782E-1,-7.838697433E-1
1.758894282E1,2.943978310E0,-5.619794875E-2,-7.711946368E-1
1.759809397E1,2.704526186E0,1.779092699E-1,-7.444701195E-1
1.760724516E1,2.537154198E0,3.135173619E-1,-6.601731777E-1
1.761639636E1,2.424605370E0,3.643703759E-1,-5.395308137E-1
1.762553480E1,2.318165302E0,2.846548259E-1,-4.077405334E-1
1.763469876E1,2.189887524E0,1.076618284E-1,-3.156553209E-1
1.764384990E1,2.046185493E0,-5.619794875E-2,-2.499892414E-1
1.765298834E1,1.879424334E0,-1.907370538E-1,-1.968455315E-1
1.766215230E1,1.688839912E0,-3.527642787E-1,-1.241547018E-1
1.767130350E1,1.533379316E0,-6.001574397E-1,-1.299577504E-1
1.768044193E1,1.392579079E0,-8.434273601E-1,-1.655396074E-1
1.768960584E1,1.234675050E0,-1.024390817E0,-1.878355294E-1
1.769875704E1,1.066233873E0,-1.140451789E0,-2.086043358E-1
1.770789548E1,8.582404256E-1,-1.186112642E0,-2.050919682E-1
1.771705943E1,6.416950226E-1,-1.223068953E0,-1.998997629E-1
1.772621058E1,4.419479966E-1,-1.174506545E0,-1.768402755E-1
1.773534902E1,2.464768738E-1,-9.721634388E-1,-1.209477559E-1
1.774451298E1,5.161659420E-2,-7.143858671E-1,-5.360184610E-2
1.775366417E1,-1.496575773E-1,-4.932591617E-1,2.489202656E-2
1.776280261E1,-3.391729295E-1,-3.213056624E-1,1.418692768E-1
1.777196652E1,-5.016583204E-1,-2.023431510E-1,2.846548259E-1
1.778111772E1,-6.569662094E-1,-1.507265568E-1,4.295783341E-1
1.779025615E1,-8.289197087E-1,-1.401894391E-1,5.839699507E-1
1.779942011E1,-9.849911928E-1,-1.392731816E-1,7.576032877E-1
1.780857126E1,-1.075854778E0,-1.296523362E-1,9.272661209E-1
1.781772246E1,-1.105480790E0,-1.122431830E-1,1.064401388E0
1.782687365E1,-1.066539288E0,-7.650861889E-2,1.098303318E0
1.783602485E1,-9.042066336E-1,2.748812735E-2,9.851438999E-1
1.784516329E1,-7.571451664E-1,2.115058601E-1,8.199097514E-1
1.785432720E1,-7.954758406E-1,4.057552814E-1,7.273663878E-1
1.786347839E1,-1.006523609E0,4.987567961E-1,7.209524512E-1
1.787261683E1,-1.197718740E0,5.482354164E-1,7.933378816E-1
1.788178079E1,-1.349361539E0,4.749337435E-1,9.414683580E-1
1.789093193E1,-1.480540991E0,3.188622594E-1,1.120141149E0
1.790008313E1,-1.527881742E0,2.814478874E-1,1.311489105E0
1.790923433E1,-1.674943209E0,3.029802442E-1,1.493063450E0
1.791838553E1,-1.874995708E0,6.100836992E-1,1.652647257E0
1.792752397E1,-2.041604280E0,1.184890985E0,1.693268657E0
1.793668787E1,-2.138576269E0,1.497492075E0,1.518260837E0
1.794583907E1,-2.126206636E0,1.423274159E0,1.199704051E0
1.795497751E1,-2.136896372E0,1.160762548E0,9.316948056E-1
1.796414147E1,-2.052446842E0,8.144121170E-1,7.927270532E-1
1.797329261E1,-1.825669765E0,4.860817194E-1,7.444701195E-1
1.798243105E1,-1.635238171E0,1.333174109E-1,7.363763452E-1
1.799159501E1,-1.472447276E0,-1.330119967E-1,6.942279339E-1
1.800074621E1,-1.343863964E0,-2.667875290E-1,6.189410090E-1
1.800988464E1,-1.331494331E0,-4.534013867E-1,5.416688323E-1
1.801904855E1,-1.339435339E0,-4.987567961E-1,4.708105326E-1
1.802819975E1,-1.271173120E0,-3.240544796E-1,4.332434237E-1
1.803733818E1,-1.220014691E0,-1.733279079E-1,4.158342779E-1
1.804650214E1,-1.204590797E0,-2.580829710E-2,3.987305462E-1
1.805565329E1,-1.206423283E0,1.736333370E-1,4.034646153E-1
1.806480449E1,-1.269187927E0,4.178195298E-1,4.535540938E-1
1.807395568E1,-1.362342119E0,6.482616663E-1,5.650337338E-1
1.808310688E1,-1.433200359E0,8.544226289E-1,7.640172243E-1
1.809224532E1,-1.435796499E0,8.968765140E-1,9.654440880E-1
1.810140923E1,-1.457634330E0,7.429429889E-1,1.068066478E0
1.811056042E1,-1.444042921E0,4.758500159E-1,1.038440347E0
1.811969886E1,-1.365854502E0,1.994416267E-1,8.993198872E-1
1.812886282E1,-1.280641317E0,-3.054236295E-3,7.076665759E-1
1.813801397E1,-1.221999884E0,-1.476723254E-1,5.354076028E-1
1.814716516E1,-1.165954709E0,-2.884726226E-1,4.089622498E-1
1.815631636E1,-1.123348117E0,-3.266505599E-1,3.341334462E-1
1.816546756E1,-1.114032745E0,-3.219164908E-1,2.932066917E-1
1.817460600E1,-1.117086887E0,-2.383831441E-1,2.406738251E-1
1.818376990E1,-1.092347622E0,-7.223268598E-2,1.950129867E-1
1.819292110E1,-1.070204377E0,1.554606259E-1,1.699682474E-1
1.820207230E1,-1.063943267E0,3.513898849E-1,1.765348613E-1
1.821122350E1,-1.083337665E0,5.906893015E-1,1.786728203E-1
1.822037464E1,-1.165343881E0,8.568660021E-1,1.962346882E-1
1.822952584E1,-1.234216928E0,1.182905674E0,2.241809368E-1
1.823867704E1,-1.292705536E0,1.569266558E0,2.663294077E-1
1.824782824E1,-1.350430608E0,1.972731233E0,3.804051280E-1
1.825696667E1,-1.387844920E0,2.310682535E0,5.257867575E-1
1.826613058E1,-1.385859728E0,2.389939785E0,5.958815217E-1
1.827528178E1,-1.415791273E0,2.359244823E0,6.201626658E-1
1.828442022E1,-1.429077148E0,2.244252920E0,6.439857483E-1
1.829358417E1,-1.389524817E0,2.092457294E0,6.546755433E-1
1.830273532E1,-1.292552829E0,1.809176922E0,6.226060390E-1
1.831187376E1,-1.194206357E0,1.375933409E0,5.633538961E-1
1.832103772E1,-1.140299082E0,9.581139088E-1,4.833329022E-1
1.833018891E1,-1.129303813E0,5.842754245E-1,4.068242610E-1
1.833934006E1,-1.133427143E0,2.704526186E-1,3.165715933E-1
1.834849126E1,-1.155570269E0,-2.779355086E-2,1.785201132E-1
1.835764246E1,-1.208408594E0,-2.544178963E-1,3.252761811E-2
1.836678089E1,-1.220778227E0,-3.348970115E-1,-6.826218218E-2
1.837594485E1,-1.183058381E0,-3.319954872E-1,-1.217113137E-1
1.838509600E1,-1.143200636E0,-3.736858070E-1,-1.324011385E-1
1.839423443E1,-1.100135922E0,-4.549284875E-1,-1.064401343E-1
1.840339839E1,-1.035233378E0,-4.834856093E-1,-7.421794534E-2
1.841254959E1,-9.084826112E-1,-5.117372870E-1,-1.014006436E-1
1.842168803E1,-7.287407517E-1,-5.746545792E-1,-2.258607745E-1
1.843085193E1,-4.741701782E-1,-6.142069101E-1,-4.280512035E-1
1.844000313E1,-1.325538605E-1,-5.844281316E-1,-6.526902914E-1
1.844914157E1,2.428117841E-1,-5.502206683E-1,-8.669449687E-1
1.845830548E1,6.132906675E-1,-5.263976455E-1,-1.079367161E0
1.846745667E1,9.747595191E-1,-4.579827189E-1,-1.316223145E0
1.847660787E1,1.297744989E0,-2.757975459E-1,-1.553995371E0
1.848575907E1,1.572778940E0,-4.535540938E-2,-1.754353285E0
1.849491027E1,1.798487067E0,8.994726092E-2,-1.788255334E0
1.850404865E1,1.985253572E0,1.243074164E-1,-1.697849989E0
1.851321261E1,2.157817841E0,-2.107422985E-2,-1.512152433E0
1.852236381E1,2.297396660E0,-3.278722763E-1,-1.258192658E0
1.853150225E1,2.411624908E0,-6.164975762E-1,-9.811733961E-1
1.854066620E1,2.567238331E0,-7.408050299E-1,-7.759287357E-1
1.854981735E1,2.790350199E0,-6.227588058E-1,-7.151494026E-1
1.855895579E1,3.040034056E0,-2.716743052E-1,-7.447755337E-1
1.856811975E1,3.273683071E0,1.200314835E-1,-8.331956863E-1
1.857727095E1,3.504736185E0,4.001049399E-1,-9.747595191E-1
1.858642209E1,3.738538027E0,4.517215490E-1,-1.123348117E0
1.859557329E1,3.882697821E0,3.720059693E-1,-1.224748731E0
1.860472449E1,3.908048153E0,2.194468826E-1,-1.246433854E0
1.861386292E1,3.891402483E0,-4.581354558E-3,-1.201231122E0
1.862302683E1,3.823445797E0,-2.417428046E-1,-1.108229637E0
1.863217803E1,3.576510668E0,-6.635328531E-1,-1.008814216E0
1.864131647E1,3.270018101E0,-9.744541049E-1,-8.843541145E-1
1.865048042E1,3.053167343E0,-1.050199151E0,-7.600467205E-1
1.865963162E1,2.939855099E0,-8.863393664E-1,-6.931589246E-1
1.866877006E1,2.812493563E0,-5.473191738E-1,-7.040014863E-1
1.867793397E1,2.637485743E0,-2.573194206E-1,-7.476770282E-1
1.868708516E1,2.448428631E0,-7.727217674E-2,-7.215633392E-1
1.869623636E1,2.250972033E0,-1.404948719E-2,-6.540647149E-1
1.870538751E1,2.116433144E0,-1.081199646E-1,-6.122216582E-1
1.871453871E1,2.062067747E0,-3.225273490E-1,-5.746545792E-1
1.872367714E1,2.035648584E0,-6.201626658E-1,-5.225798488E-1
1.873284110E1,1.998081326E0,-9.458969831E-1,-4.561502039E-1
1.874199230E1,1.899124146E0,-1.118461370E0,-4.358395338E-1
1.875113068E1,1.749619246E0,-1.137397647E0,-4.564556181E-1
1.876029464E1,1.577818513E0,-1.073869467E0,-4.914266169E-1
1.876944584E1,1.407544851E0,-9.688037634E-1,-5.323534012E-1
1.877858428E1,1.249488115E0,-9.210049510E-1,-5.651864409E-1
1.878774818E1,1.098456025E0,-9.123004079E-1,-5.625903010E-1
1.879689938E1,9.394831061E-1,-8.713735938E-1,-5.320479870E-1
1.880603782E1,7.518002391E-1,-7.948650122E-1,-4.668400288E-1
1.881520178E1,5.431959033E-1,-7.191199064E-1,-4.054498672E-1
1.882435298E1,3.315373361E-1,-6.554391384E-1,-3.562766612E-1
1.883349141E1,1.557660550E-1,-4.672981501E-1,-2.747285664E-1
1.884265532E1,3.634541109E-2,-1.403421611E-1,-1.291942000E-1
1.885180652E1,-4.825693369E-2,1.638597846E-1,2.015795931E-2
1.886095772E1,-1.365243644E-1,3.184041381E-1,1.452289373E-1
1.887010886E1,-2.254026383E-1,2.903051674E-1,2.515163720E-1
1.887926006E1,-3.132119179E-1,1.470614821E-1,3.321481943E-1
1.888841126E1,-4.469874799E-1,-6.108472589E-4,3.668137789E-1
1.889756246E1,-6.177192926E-1,-3.985778242E-2,4.272876680E-1
1.890671365E1,-7.887565494E-1,-4.734066315E-3,5.457920432E-1
1.891586480E1,-9.581139088E-1,5.573981255E-2,6.720846891E-1
1.892501600E1,-1.099219680E0,8.597674966E-2,7.518002391E-1
1.893416720E1,-1.177102685E0,1.710372269E-1,7.876875401E-1
1.894330563E1,-1.125791550E0,3.231382072E-1,8.777875304E-1
1.895246954E1,-1.121821046E0,5.176930428E-1,1.110367656E0
1.896162074E1,-1.247350097E0,5.674771070E-1,1.402505279E0
1.897075917E1,-1.185349107E0,3.472666740E-1,1.642415524E0
1.897992313E1,-1.236660242E0,3.897205591E-1,1.739693046E0
1.898907428E1,-1.677692056E0,4.107947946E-1,1.621188641E0
1.899821277E1,-2.130940676E0,6.655181050E-1,1.289345860E0
1.900737667E1,-2.293578863E0,1.558424115E0,9.840749502E-1
1.901652787E1,-2.015795946E0,1.769929886E0,7.470661998E-1
1.902566631E1,-1.634474516E0,9.984298348E-1,6.531484127E-1
1.903483022E1,-1.497644782E0,2.893888950E-1,8.519791961E-1
1.904398141E1,-1.495506763E0,4.947862774E-2,1.149461865E0
1.905311985E1,-1.600267053E0,1.006370857E-1,1.306907654E0
1.906228381E1,-1.626991630E0,2.260134928E-2,1.238340139E0
1.907143501E1,-1.506502032E0,-1.246128380E-1,1.011563063E0
1.908057345E1,-1.354401112E0,-2.597627938E-1,7.446228266E-1
1.908973735E1,-1.219556570E0,-4.158342779E-1,5.320479870E-1
1.909888855E1,-1.166565537E0,-4.963133931E-1,4.140017331E-1
1.910802699E1,-1.164122105E0,-4.760027230E-1,3.694098890E-1
1.911719094E1,-1.187792540E0,-3.103103936E-1,3.666610718E-1
1.912634209E1,-1.247044683E0,-9.758284688E-2,3.978142738E-1
1.913549329E1,-1.287207842E0,2.367033064E-2,4.421007037E-1
1.914464449E1,-1.271020412E0,1.919587553E-1,5.024218559E-1
1.915379568E1,-1.260330558E0,4.045335948E-1,5.946598053E-1
1.916294683E1,-1.234369636E0,4.982986450E-1,6.858287454E-1
1.917209803E1,-1.188556075E0,5.764871240E-1,7.611156702E-1
1.918124923E1,-1.160457134E0,5.789304972E-1,7.875348330E-1
1.919040042E1,-1.142284393E0,4.300364852E-1,7.603521347E-1
1.919955162E1,-1.132358074E0,2.267770469E-1,7.014053464E-1
1.920870277E1,-1.113879919E0,6.734590977E-2,6.221479177E-1
1.921785397E1,-1.101357579E0,2.489202656E-2,5.172349215E-1
1.922700516E1,-1.117545009E0,1.582094431E-1,4.388937652E-1
1.923615636E1,-1.117697716E0,1.948602796E-1,3.833066523E-1
1.924530751E1,-1.120293856E0,3.055763543E-1,3.397837877E-1
1.925445870E1,-1.122431874E0,4.747810364E-1,3.249707520E-1
1.926360990E1,-1.144422293E0,6.007682681E-1,3.352024257E-1
1.927276110E1,-1.163511276E0,7.159129977E-1,3.617742956E-1
1.928191230E1,-1.170383334E0,8.551861644E-1,3.872771561E-1
1.929106345E1,-1.233147860E0,1.104717255E0,4.208737612E-1
1.930021464E1,-1.289498568E0,1.321109891E0,4.715740979E-1
1.930936584E1,-1.345543742E0,1.607139111E0,5.937435627E-1
1.931851704E1,-1.379598498E0,1.727934241E0,6.716265678E-1
1.932766818E1,-1.376697063E0,1.737707734E0,7.040014863E-1
1.933681938E1,-1.354859233E0,1.766112089E0,7.072083950E-1
1.934597058E1,-1.322637081E0,1.691894174E0,6.678087711E-1
1.935510902E1,-1.311489105E0,1.586828470E0,5.958815217E-1
1.936427298E1,-1.294232607E0,1.471531034E0,5.392253995E-1
1.937342412E1,-1.236812949E0,1.297134161E0,4.640912116E-1
1.938256256E1,-1.194817185E0,1.112963676E0,3.698680103E-1
1.939172652E1,-1.174506545E0,8.927532434E-1,2.712161839E-1
1.940087772E1,-1.159235358E0,7.267554998E-1,2.061609477E-1
1.941002886E1,-1.171146870E0,6.267293096E-1,1.713426560E-1
1.941918006E1,-1.209172130E0,4.727957845E-1,1.430909634E-1
1.942833126E1,-1.236049414E0,3.206948042E-1,1.258345395E-1
1.943748246E1,-1.251167893E0,2.127275616E-1,1.099525094E-1
1.944663365E1,-1.257581830E0,6.810946763E-2,7.406523079E-2
1.945578480E1,-1.228413820E0,-9.055810422E-2,4.260659590E-2
1.946492324E1,-1.194511771E0,-1.537808031E-1,3.619270027E-2
1.947408720E1,-1.148087382E0,-1.711899489E-1,3.588727489E-2
1.948323839E1,-1.078298092E0,-1.204896197E-1,1.863084175E-2
1.949237683E1,-9.776610136E-1,-1.120904684E-1,-2.947338112E-2
1.950154074E1,-8.116632700E-1,-2.272351831E-1,-1.174353883E-1
1.951069193E1,-5.891621709E-1,-4.569137394E-1,-2.524326444E-1
1.951983037E1,-3.219164908E-1,-7.458444834E-1,-4.353813827E-1
1.952899433E1,5.390727147E-2,-1.028208613E0,-6.888830066E-1
1.953814548E1,5.008947253E-1,-1.236049414E0,-1.007592559E0
1.954728391E1,9.562813640E-1,-1.323553324E0,-1.368908763E0
1.955644787E1,1.413958669E0,-1.056765795E0,-1.747328639E0
1.956559907E1,1.815743446E0,-5.409052372E-1,-2.066190958E0
1.957473751E1,2.076575279E0,-1.730224788E-1,-2.271588326E0
1.958390141E1,2.163926363E0,9.468132630E-3,-2.304115772E0
1.959305261E1,2.152167559E0,-1.380514801E-1,-2.125137568E0
1.960219105E1,2.167286158E0,-4.072824121E-1,-1.796349049E0
1.961135501E1,2.241656780E0,-5.241069198E-1,-1.354248405E0
1.962050615E1,2.331451178E0,-4.993676245E-1,-9.182561636E-1
1.962964459E1,2.464005232E0,-3.564293683E-1,-6.113054156E-1
1.963880855E1,2.626185179E0,-1.724116355E-1,-4.369085133E-1
1.964795975E1,2.843188524E0,-6.872031838E-2,-3.768927455E-1
1.965709818E1,3.207406282E0,-2.687728032E-2,-4.506525695E-1
1.966626209E1,3.643703938E0,-3.497100621E-2,-7.107207775E-1
1.967541329E1,3.907589912E0,-2.287622988E-1,-1.067302823E0
1.968456449E1,3.885599375E0,-6.004628539E-1,-1.347987175E0
1.969371568E1,3.722350597E0,-1.101968408E0,-1.497797489E0
1.970286683E1,3.665083647E0,-1.432589531E0,-1.542694807E0
1.971200527E1,3.687685013E0,-1.508334637E0,-1.502684236E0
1.972116923E1,3.649201632E0,-1.440988660E0,-1.397313118E0
1.973032042E1,3.569485903E0,-1.273769259E0,-1.262468576E0
1.973945886E1,3.503819942E0,-9.246700406E-1,-1.185043693E0
1.974862277E1,3.385010004E0,-4.100312293E-1,-1.137397647E0
1.975777397E1,3.141892910E0,-4.810422286E-2,-1.100288630E0
1.976692516E1,2.883657217E0,6.551336497E-2,-1.046686769E0
1.977607636E1,2.696585178E0,1.104106456E-1,-9.161182046E-1
1.978522756E1,2.568154573E0,1.198787764E-1,-7.398887277E-1
1.979436595E1,2.471946239E0,1.183516532E-1,-5.934380889E-1
1.980352990E1,2.357259512E0,8.246438205E-2,-5.129590034E-1
1.981268110E1,2.218597174E0,-1.985253533E-3,-4.705050886E-1
1.982181954E1,2.045574665E0,-1.064401343E-1,-4.705050886E-1
1.983098344E1,1.852394342E0,-2.188360244E-1,-4.601207078E-1
1.984013464E1,1.636765242E0,-2.974826097E-1,-4.504998624E-1
1.984927308E1,1.428466320E0,-3.779617548E-1,-4.526378214E-1
1.985843704E1,1.255443811E0,-5.934380889E-1,-4.671454430E-1
1.986758824E1,1.068066478E0,-8.058602214E-1,-4.474456310E-1
1.987672667E1,8.443436027E-1,-9.681929350E-1,-4.239279926E-1
1.988589058E1,5.664080977E-1,-1.054016948E0,-3.891097009E-1
1.989504178E1,2.730487287E-1,-9.811733961E-1,-2.698417902E-1
1.990418022E1,6.444438547E-2,-8.188407421E-1,-1.253764033E-1
1.991334412E1,-1.059819981E-1,-6.287145615E-1,2.092151903E-2
1.992249532E1,-2.655658424E-1,-4.892886579E-1,1.278197914E-1
1.993163376E1,-4.046863019E-1,-3.284831047E-1,2.012741715E-1
1.994079772E1,-5.166240931E-1,-1.681357026E-1,2.553341687E-1
1.994994891E1,-6.184828281E-1,3.436015919E-2,2.910687327E-1
1.995910006E1,-7.233958840E-1,3.026748300E-1,3.549022675E-1
1.996825126E1,-8.365553021E-1,5.746545792E-1,4.613423944E-1
1.997740246E1,-9.787300229E-1,7.725690603E-1,5.841227174E-1
1.998655365E1,-1.128998399E0,8.886300325E-1,7.295043468E-1
1.999570480E1,-1.336381078E0,9.255862832E-1,8.733588457E-1
2.000485600E1,-1.581025362E0,9.214630723E-1,1.002247691E0
2.001399443E1,-1.605001211E0,9.895725846E-1,1.163969398E0
2.002315839E1,-1.584843159E0,1.020573020E0,1.417471051E0
2.003230959E1,-1.582247138E0,1.044396043E0,1.775274873E0
2.004144803E1,-1.448166132E0,1.279572248E0,2.086348772E0
2.005061193E1,-1.658908486E0,1.469240427E0,2.136590958E0
2.005976313E1,-2.104368925E0,9.397885203E-1,1.753437042E0
2.006890157E1,-2.574415684E0,7.983773947E-1,1.243379593E0
2.007806548E1,-2.351456642E0,1.362952948E0,9.636115432E-1
2.008721667E1,-1.738318563E0,1.297134161E0,8.379297256E-1
2.009635511E1,-1.641193867E0,6.068767309E-1,8.787037730E-1
2.010551907E1,-1.634169102E0,-8.047912270E-2,1.097997904E0
2.011467027E1,-1.647913218E0,-2.385358512E-1,1.357455373E0
2.012380865E1,-1.735875249E0,-1.832541823E-1,1.493521571E0
2.013297261E1,-1.693726778E0,-4.112529159E-1,1.431825995E0
2.014212381E1,-1.561020136E0,-6.788040400E-1,1.225359559E0
2.015126225E1,-1.387081385E0,-9.170344472E-1,9.671239257E-1
2.016042615E1,-1.259261608E0,-9.761339426E-1,7.354601026E-1
2.016957735E1,-1.212531805E0,-9.507837296E-1,5.489989519E-1
2.017871579E1,-1.204438090E0,-8.628217578E-1,3.840702176E-1
2.018787975E1,-1.249029875E0,-6.591041684E-1,2.828222811E-1
2.019703094E1,-1.280488610E0,-4.428642690E-1,2.611372173E-1
2.020618209E1,-1.232689738E0,-2.130329758E-1,3.107685447E-1
2.021533329E1,-1.184738278E0,1.175880991E-2,4.237752855E-1
2.022448449E1,-1.159998894E0,1.688992679E-1,5.386145711E-1
2.023363568E1,-1.172674060E0,2.510582209E-1,6.045860648E-1
2.024278683E1,-1.210393786E0,3.920112252E-1,6.181774139E-1
2.025193803E1,-1.240325332E0,5.859552622E-1,5.952706337E-1
2.026108923E1,-1.223832488E0,6.882721782E-1,5.256340504E-1
2.027024042E1,-1.177255392E0,7.125533223E-1,4.332434237E-1
2.027939162E1,-1.132052660E0,7.244648337E-1,3.578037918E-1
2.028854277E1,-1.099372387E0,6.682668924E-1,3.208475113E-1
2.029769397E1,-1.070509791E0,6.128324866E-1,3.118375242E-1
2.030684516E1,-1.081352353E0,6.394043565E-1,3.289412558E-1
2.031599636E1,-1.113421798E0,7.099572420E-1,3.335226178E-1
2.032514751E1,-1.140451789E0,7.061394453E-1,3.126010895E-1
2.033429871E1,-1.170536041E0,7.650861740E-1,2.964136302E-1
2.034344990E1,-1.195580840E0,8.915315866E-1,2.631224692E-1
2.035260110E1,-1.221541762E0,9.907942414E-1,2.322746664E-1
2.036175230E1,-1.205201626E0,1.048519373E0,1.939440072E-1
2.037090344E1,-1.236202121E0,1.200314879E0,2.235700935E-1
2.038005464E1,-1.324622273E0,1.465728045E0,3.130592108E-1
2.038920584E1,-1.355317354E0,1.545596242E0,4.104893506E-1
2.039835704E1,-1.352263093E0,1.580261827E0,4.886777997E-1
2.040750818E1,-1.369825006E0,1.656465054E0,5.422796607E-1
2.041665938E1,-1.352415800E0,1.703500271E0,5.479300022E-1
2.042581058E1,-1.324469566E0,1.702736735E0,5.053234100E-1
2.043496178E1,-1.288887739E0,1.603779435E0,4.524851143E-1
2.044411292E1,-1.218029380E0,1.502989650E0,3.785725832E-1
2.045325141E1,-1.172063231E0,1.311030984E0,2.672456801E-1
2.046241532E1,-1.160304427E0,1.010341406E0,1.546970755E-1
2.047156652E1,-1.185807228E0,7.901309133E-1,7.696675509E-2
2.048071772E1,-1.209172130E0,6.730009913E-1,3.298575059E-2
2.048986886E1,-1.233758807E0,4.654656053E-1,-1.038440317E-2
2.049902006E1,-1.263690233E0,1.777565479E-1,-5.680879578E-2
2.050815850E1,-1.248724461E0,-8.383878320E-2,-1.078145429E-1
2.051732246E1,-1.168092728E0,-3.834593594E-1,-1.863084137E-1
2.052647360E1,-1.028819442E0,-6.754443645E-1,-3.054236174E-1
2.053561204E1,-8.486195803E-1,-9.173398614E-1,-4.621059597E-1
2.054477600E1,-6.358919740E-1,-1.175117373E0,-6.577298045E-1
2.055392720E1,-3.639122546E-1,-1.482373595E0,-9.040539265E-1
2.056306563E1,7.635590620E-3,-1.753437042E0,-1.195122719E0
2.057222954E1,3.523061574E-1,-1.781077862E0,-1.479624748E0
2.058138074E1,6.355865598E-1,-1.482220888E0,-1.742289066E0
2.059051917E1,9.419264793E-1,-8.956547976E-1,-1.968302608E0
2.059968313E1,1.299424887E0,-2.055501044E-1,-2.093220949E0
2.060883428E1,1.612942219E0,4.236225784E-1,-2.050003290E0
2.061797272E1,1.803068399E0,8.275453448E-1,-1.790698767E0
2.062713667E1,1.976243615E0,8.863393664E-1,-1.432742238E0
2.063628787E1,2.138423443E0,6.762079000E-1,-1.021794796E0
2.064542631E1,2.230508804E0,4.614951015E-1,-6.197045445E-1
2.065459022E1,2.335116386E0,3.440597057E-1,-3.324536085E-1
2.066374141E1,2.482483149E0,2.043284029E-1,-1.971509457E-1
2.067287985E1,2.661767006E0,-4.795150831E-2,-2.304421216E-1
2.068204381E1,2.932372332E0,-4.280512035E-1,-4.724903405E-1
2.069119496E1,3.292772055E0,-7.551599145E-1,-8.831323981E-1
2.070034615E1,3.586284161E0,-8.568660021E-1,-1.297439575E0
2.070949735E1,3.760681152E0,-9.295567870E-1,-1.607597232E0
2.071864855E1,3.828179836E0,-1.232995152E0,-1.745496035E0
2.072778699E1,3.926678896E0,-1.466949701E0,-1.816048861E0
2.073695089E1,3.957984924E0,-1.542694807E0,-1.774969459E0
2.074610209E1,3.852308273E0,-1.557507753E0,-1.544832706E0
2.075524053E1,3.691502810E0,-1.301104665E0,-1.215738773E0
2.076440449E1,3.552229404E0,-7.505785823E-1,-9.045121074E-1
2.077355563E1,3.346374035E0,-8.842013776E-2,-6.853706241E-1
2.078269407E1,3.117000818E0,4.329380095E-1,-5.670189857E-1
2.079185803E1,2.865331888E0,7.557707429E-1,-4.970769584E-1
2.080100917E1,2.674747467E0,7.963921428E-1,-3.830012381E-1
2.081014761E1,2.553952456E0,5.410579443E-1,-2.809897363E-1
2.081931157E1,2.486453772E0,1.522536725E-1,-2.855710983E-1
2.082846277E1,2.459423780E0,-2.614426315E-1,-3.330644667E-1
2.083760121E1,2.418497086E0,-4.874561131E-1,-3.513898849E-1
2.084676511E1,2.340461254E0,-5.810684562E-1,-3.660502136E-1
2.085591631E1,2.230508804E0,-6.879667044E-1,-3.862081766E-1
2.086505475E1,2.060235023E0,-7.498149872E-1,-3.923166394E-1
2.087421870E1,1.820172071E0,-7.803573608E-1,-4.025483429E-1
2.088336985E1,1.547886968E0,-8.018897176E-1,-4.049917459E-1
2.089250829E1,1.289345860E0,-8.617527485E-1,-3.597890437E-1
2.090167225E1,1.030957460E0,-9.523108602E-1,-2.840439677E-1
2.091082345E1,7.359182239E-1,-9.929322004E-1,-2.334963679E-1
2.091996188E1,4.390464723E-1,-1.026376128E0,-1.977618039E-1
2.092912579E1,1.546970755E-1,-1.038745761E0,-1.484358907E-1
2.093827699E1,-8.643488586E-2,-9.271134138E-1,-4.520269856E-2
2.094741542E1,-2.664821148E-1,-6.352811456E-1,9.865183383E-2
2.095657938E1,-4.140017331E-1,-2.614426315E-1,2.127275616E-1
2.096573053E1,-5.667135715E-1,9.468132257E-2,3.078670204E-1
2.097486897E1,-6.951441765E-1,4.376720488E-1,3.805578351E-1
2.098403292E1,-8.044858575E-1,7.203416228E-1,4.364503622E-1
2.099318407E1,-9.894198179E-1,8.831323981E-1,5.192201734E-1
2.100233527E1,-1.311641812E0,1.003163934E0,6.794148684E-1
2.101148647E1,-1.645011663E0,1.169314384E0,9.113841057E-1
2.102063766E1,-1.804290056E0,1.341115117E0,1.178782463E0
2.102978886E1,-1.812383771E0,1.342947721E0,1.349056125E0
2.103894001E1,-1.577513099E0,1.372726560E0,1.433811188E0
2.104809121E1,-1.515664816E0,1.652647257E0,1.676317573E0
2.105722964E1,-1.732210159E0,2.034732103E0,2.087417841E0
2.106639360E1,-1.939592719E0,2.172631025E0,2.310682535E0
2.107554475E1,-2.532572746E0,1.624548316E0,2.000219345E0
2.108468318E1,-3.267421961E0,1.109298587E0,1.342031479E0
2.109384714E1,-2.856627226E0,1.434727550E0,8.935168386E-1
2.110299829E1,-1.738623977E0,1.736027956E0,7.301151752E-1
2.111213673E1,-1.384332657E0,1.189472318E0,5.827482939E-1
2.112130068E1,-1.533990145E0,-1.014006436E-1,6.186355352E-1
2.113045188E1,-1.657228589E0,-2.701472044E-1,8.225058317E-1
2.113959032E1,-1.613705754E0,-1.313321590E-1,8.765658140E-1
2.114875423E1,-1.523453116E0,-2.562504113E-1,7.824953198E-1
2.115790542E1,-1.529561520E0,-6.279509664E-1,6.581879258E-1
2.116704386E1,-1.475043416E0,-8.585458398E-1,5.207473040E-1
2.117620782E1,-1.397465825E0,-7.802046537E-1,3.594835997E-1
2.118535897E1,-1.327829242E0,-6.311579347E-1,2.156290859E-1
2.119449740E1,-1.279114127E0,-4.711159468E-1,1.420219839E-1
2.120366136E1,-1.278961420E0,-3.474193811E-1,1.609582454E-1
2.121281251E1,-1.342336893E0,-5.543438718E-2,2.567085624E-1
2.122196370E1,-1.393648028E0,3.206948042E-1,3.538332880E-1
2.123111490E1,-1.341725945E0,4.144598544E-1,4.077405334E-1
2.124026610E1,-1.256054640E0,3.335226178E-1,4.676035643E-1
2.124941725E1,-1.185959935E0,3.074088693E-1,5.482354164E-1
2.125856844E1,-1.175117373E0,2.437280566E-1,6.111527085E-1
2.126771964E1,-1.182447553E0,1.606528312E-1,6.105418205E-1
2.127685808E1,-1.188250661E0,1.501157135E-1,5.586197972E-1
2.128602199E1,-1.181531310E0,1.285833418E-1,4.427115619E-1
2.129517318E1,-1.153432369E0,1.469087601E-1,3.147390485E-1
2.130432438E1,-1.119530320E0,1.930277348E-1,2.275405973E-1
2.131347558E1,-1.095249176E0,3.104631305E-1,2.075353563E-1
2.132262673E1,-1.149156451E0,4.995203316E-1,1.881409585E-1
2.133177792E1,-1.235591292E0,6.650599241E-1,1.580567211E-1
2.134092912E1,-1.258192658E0,6.649072170E-1,1.284306347E-1
2.135008032E1,-1.282473803E0,7.467607856E-1,1.276670843E-1
2.135923147E1,-1.313932419E0,8.246437907E-1,1.475196183E-1
2.136838266E1,-1.327676535E0,1.012784719E0,2.194468826E-1
2.137753386E1,-1.342031479E0,1.188708782E0,3.345915973E-1
2.138668501E1,-1.411668062E0,1.413042426E0,4.517215490E-1
2.139583621E1,-1.402963400E0,1.451373100E0,5.152496696E-1
2.140498740E1,-1.388913989E0,1.438239813E0,5.453338623E-1
2.141412584E1,-1.443890214E0,1.386928678E0,5.511369109E-1
2.142328975E1,-1.470767498E0,1.420678020E0,5.679352283E-1
2.143244094E1,-1.426481009E0,1.417776465E0,5.902311802E-1
2.144157938E1,-1.393648028E0,1.253916740E0,5.906893015E-1
2.145074334E1,-1.393189907E0,9.585720897E-1,5.322006941E-1
2.145989449E1,-1.380972981E0,6.678087711E-1,4.482091665E-1
2.146904568E1,-1.360814929E0,3.871244490E-1,3.454341292E-1
2.147819688E1,-1.349514365E0,1.467560530E-1,2.156290859E-1
2.148734803E1,-1.341725945E0,-1.171299592E-1,6.994201243E-2
2.149649923E1,-1.336075664E0,-4.008685052E-1,-8.246438205E-2
2.150565042E1,-1.351194143E0,-5.935907960E-1,-1.991362125E-1
2.151480162E1,-1.353026628E0,-8.958075047E-1,-2.874036431E-1
2.152394006E1,-1.337144613E0,-1.266744494E0,-3.687990308E-1
2.153310397E1,-1.307976723E0,-1.514748454E0,-4.723376334E-1
2.154225516E1,-1.187487125E0,-1.619356036E0,-6.209262609E-1
2.155139360E1,-9.927794933E-1,-1.595074892E0,-8.113578558E-1
2.156055751E1,-7.861604095E-1,-1.724421859E0,-1.015075445E0
2.156970870E1,-4.526378214E-1,-1.710830450E0,-1.194664478E0
2.157884714E1,-5.253286287E-2,-1.212531805E0,-1.363258362E0
2.158801105E1,2.399102598E-1,-6.829272509E-1,-1.545290828E0
2.159716225E1,4.920374751E-1,-2.962609194E-2,-1.741830945E0
2.160630068E1,8.064711094E-1,7.881456614E-1,-1.889808655E0
2.161546464E1,1.107771516E0,1.607291818E0,-1.822310090E0
2.162461579E1,1.314848781E0,2.096275091E0,-1.509861708E0
2.163375423E1,1.533532023E0,2.023889780E0,-1.014770031E0
2.164291818E1,1.801999450E0,1.540556788E0,-5.019637346E-1
2.165206933E1,2.059624195E0,9.016105533E-1,-1.876828223E-1
2.166120777E1,2.310987949E0,2.741177082E-1,-1.641651988E-1
2.167037173E1,2.601598501E0,-1.623326540E-1,-3.266505599E-1
2.167952287E1,2.970244884E0,-3.524588645E-1,-5.450284481E-1
2.168866131E1,3.426242352E0,-4.286620617E-1,-8.110524416E-1
2.169782527E1,3.896747351E0,-5.205945969E-1,-1.101357579E0
2.170697647E1,4.165520191E0,-6.193991303E-1,-1.359593272E0
2.171611485E1,4.153303146E0,-8.930587173E-1,-1.528492570E0
2.172527881E1,4.094203949E0,-1.138619304E0,-1.611109614E0
2.173443001E1,4.076183796E0,-1.224596024E0,-1.548345089E0
2.174356844E1,3.976157427E0,-1.086544514E0,-1.352568507E0
2.175273235E1,3.788321972E0,-7.788302302E-1,-1.128234863E0
2.176188355E1,3.596668720E0,-4.721849263E-1,-9.240592122E-1
2.177102199E1,3.438001156E0,-1.835595965E-1,-7.334748507E-1
2.178018589E1,3.266811132E0,-4.886778072E-3,-5.467082858E-1
2.178933709E1,3.071950912E0,-1.527118147E-3,-4.040754735E-1
2.179847553E1,2.916184902E0,-3.588727489E-2,-3.434488773E-1
2.180763943E1,2.782714605E0,-8.658760041E-2,-3.113794029E-1
2.181679063E1,2.635195017E0,-1.530172378E-1,-2.750339806E-1
2.182594183E1,2.502183199E0,-1.850867122E-1,-2.478512824E-1
2.183509298E1,2.392230511E0,-3.063398898E-1,-2.302894145E-1
2.184424417E1,2.282430887E0,-5.114318728E-1,-2.309002578E-1
2.185338261E1,2.182251930E0,-7.430956960E-1,-2.516690791E-1
2.186254657E1,2.075200796E0,-9.697200060E-1,-2.716743052E-1
2.187169772E1,1.914853454E0,-1.029124975E0,-2.820587158E-1
2.188083615E1,1.691588759E0,-9.827005267E-1,-3.257342875E-1
2.189000011E1,1.447402596E0,-9.567395449E-1,-3.634541333E-1
2.189915126E1,1.185501814E0,-9.607100487E-1,-3.652866483E-1
2.190828970E1,9.000834227E-1,-9.827005267E-1,-3.203893900E-1
2.191745365E1,6.076403260E-1,-1.038898468E0,-2.496838123E-1
2.192660485E1,2.929012477E-1,-1.054780483E0,-1.542389393E-1
2.193574324E1,-1.832541823E-2,-9.596410394E-1,-5.146388337E-2
2.194490720E1,-2.990097404E-1,-7.149966955E-1,5.268557742E-2
2.195405839E1,-5.189147592E-1,-4.083513916E-1,1.363716573E-1
2.196320954E1,-6.882721782E-1,-1.957765520E-1,1.966928244E-1
2.197236074E1,-8.247964978E-1,-9.926267713E-2,2.499892414E-1
2.198151193E1,-8.990144730E-1,-4.001049697E-2,3.300102353E-1
2.199065037E1,-8.910734653E-1,5.085303262E-2,4.393518865E-1
2.199981428E1,-8.812998533E-1,2.145601064E-1,5.534276366E-1
2.200896548E1,-9.321529269E-1,4.016320705E-1,6.720846891E-1
2.201811667E1,-1.178629756E0,5.519005060E-1,7.837170362E-1
2.202726782E1,-1.539945960E0,7.162184119E-1,9.185615778E-1
2.203641902E1,-1.809787750E0,8.948912621E-1,1.078908920E0
2.204555746E1,-1.867512822E0,1.014617324E0,1.221236348E0
2.205472136E1,-1.698918939E0,1.074938416E0,1.322637081E0
2.206387256E1,-1.526201844E0,1.315306902E0,1.539793253E0
2.207301100E1,-1.402505279E0,1.712815762E0,1.906759739E0
2.208217490E1,-1.440988660E0,1.968149900E0,2.175074339E0
2.209132610E1,-1.849340081E0,1.905690789E0,2.106812239E0
2.210046454E1,-2.455453157E0,1.564532518E0,1.696780920E0
2.210962850E1,-2.665279388E0,1.367839694E0,1.277739763E0
2.211877964E1,-2.058249950E0,1.357608080E0,1.006065488E0
2.212791808E1,-1.290720224E0,1.233300567E0,8.063184023E-1
2.213708204E1,-1.075549364E0,4.411844313E-1,6.685723066E-1
2.214623318E1,-1.052795291E0,-5.173876286E-1,6.786513329E-1
2.215537162E1,-9.743013978E-1,-6.543701291E-1,7.556180358E-1
2.216453558E1,-9.620844126E-1,-6.490252018E-1,7.550072074E-1
2.217368673E1,-1.056154966E0,-7.724163532E-1,6.702521443E-1
2.218282516E1,-1.176644564E0,-8.900044560E-1,5.332696438E-1
2.219198912E1,-1.211157441E0,-8.816053271E-1,3.797942698E-1
2.220114032E1,-1.156944752E0,-6.717792749E-1,2.377723008E-1
2.221027870E1,-1.091889501E0,-3.816268146E-1,1.440072358E-1
2.221944266E1,-1.052031636E0,-1.918060333E-1,8.979454637E-2
2.222859386E1,-1.060583591E0,-1.374406274E-3,1.096470803E-1
2.223773225E1,-1.073105931E0,2.024958730E-1,1.679829955E-1
2.224689621E1,-1.151752472E0,3.376458287E-1,2.528907657E-1
2.225604740E1,-1.234216928E0,4.132381678E-1,3.559712470E-1
2.226519855E1,-1.295912504E0,5.877877474E-1,4.508052766E-1
2.227434975E1,-1.279724956E0,7.530219555E-1,5.002838969E-1
2.228350094E1,-1.225512266E0,7.131641507E-1,4.663818777E-1
2.229263938E1,-1.187639832E0,5.618267655E-1,3.965925872E-1
2.230180329E1,-1.165954709E0,5.030327439E-1,3.429907262E-1
2.231095449E1,-1.139382839E0,4.584408700E-1,2.932066917E-1
2.232010568E1,-1.142895222E0,3.943018913E-1,2.254026383E-1
2.232925683E1,-1.175881028E0,3.872771561E-1,1.580567211E-1
2.233840803E1,-1.210241079E0,5.515950918E-1,1.101052165E-1
2.234755923E1,-1.227802992E0,7.226322889E-1,8.353336155E-2
2.235671037E1,-1.223068953E0,8.214368224E-1,7.803573459E-2
2.236586157E1,-1.274990916E0,1.041341901E0,1.043021679E-1
2.237501277E1,-1.324774981E0,1.262010455E0,1.649287641E-1
2.238416391E1,-1.341267824E0,1.356386304E0,2.489202619E-1
2.239331511E1,-1.411973476E0,1.506654739E0,3.344388604E-1
2.240246631E1,-1.414416790E0,1.600878000E0,3.991886973E-1
2.241161746E1,-1.376849771E0,1.601030707E0,4.268295169E-1
2.242076865E1,-1.350430608E0,1.613094926E0,4.147652984E-1
2.242991985E1,-1.341878772E0,1.618592501E0,4.106420577E-1
2.243907100E1,-1.350430608E0,1.480540991E0,4.002576768E-1
2.244822220E1,-1.390593767E0,1.373642802E0,3.524588645E-1
2.245736063E1,-1.402657986E0,1.242463350E0,2.870981991E-1
2.246652454E1,-1.367839694E0,1.103190184E0,2.179197669E-1
2.247567574E1,-1.340504289E0,9.680401683E-1,1.656923145E-1
2.248482693E1,-1.301410079E0,7.365291119E-1,1.061347127E-1
2.249397808E1,-1.238950968E0,4.089622498E-1,2.504473738E-2
2.250312928E1,-1.162136912E0,1.351499557E-1,-6.093201414E-2
2.251228048E1,-1.115712523E0,-6.276455522E-2,-1.472141892E-1
2.252143162E1,-1.057987452E0,-2.202104330E-1,-2.089097649E-1
2.253058282E1,-1.006218195E0,-3.431434333E-1,-2.389939874E-1
2.253972126E1,-1.025612593E0,-5.016583204E-1,-2.554868758E-1
2.254888516E1,-1.063485026E0,-6.801784039E-1,-2.702999115E-1
2.255803636E1,-1.027903199E0,-7.844805717E-1,-2.919849753E-1
2.256718756E1,-9.411629438E-1,-7.693621516E-1,-3.158080280E-1
2.257633870E1,-8.307522535E-1,-6.824691296E-1,-3.388675153E-1
2.258548990E1,-6.949914694E-1,-6.830799580E-1,-3.886515796E-1
2.259462834E1,-5.155550838E-1,-8.428165317E-1,-4.873034060E-1
2.260379230E1,-2.915268540E-1,-9.484930634E-1,-6.450546980E-1
2.261294345E1,-1.618745178E-2,-8.970292211E-1,-8.428165317E-1
2.262208188E1,3.283303976E-1,-7.495095730E-1,-1.024390817E0
2.263124579E1,7.082774043E-1,-5.757235289E-1,-1.125027895E0
2.264039699E1,1.009883285E0,-4.059080184E-1,-1.110214949E0
2.264953542E1,1.202605486E0,-3.695625961E-1,-9.856020808E-1
2.265869938E1,1.355164647E0,-5.399889946E-1,-8.652651310E-1
2.266785053E1,1.557813168E0,-6.823163629E-1,-8.063184023E-1
2.267698897E1,1.844453335E0,-6.884248853E-1,-7.950177193E-1
2.268615287E1,2.123457670E0,-5.909947157E-1,-8.157865405E-1
2.269530407E1,2.369781971E0,-5.228852630E-1,-8.922951221E-1
2.270445527E1,2.594420910E0,-5.465555787E-1,-1.057987452E0
2.271360647E1,2.786990643E0,-6.187883019E-1,-1.261246920E0
2.272275761E1,2.972535372E0,-6.835380793E-1,-1.422205091E0
2.273190881E1,3.133341074E0,-5.798467398E-1,-1.468782187E0
2.274105996E1,3.186637402E0,-4.294256270E-1,-1.412431598E0
2.275021115E1,3.192898512E0,-3.651339412E-1,-1.274990916E0
2.275934959E1,3.280860662E0,-2.913741469E-1,-1.107007980E0
2.276851355E1,3.346832037E0,-2.040229887E-1,-9.839222431E-1
2.277766470E1,3.383635759E0,-1.618745178E-2,-8.866447806E-1
2.278680313E1,3.330797434E0,2.038702667E-1,-8.310576677E-1
2.279596704E1,3.229091406E0,4.194993675E-1,-8.209787011E-1
2.280511824E1,3.127232552E0,3.597890437E-1,-7.947123051E-1
2.281426943E1,2.956500769E0,9.177979827E-2,-6.882721782E-1
2.282342063E1,2.797374964E0,-8.231166750E-2,-6.055023670E-1
2.283257178E1,2.695974350E0,-1.244601309E-1,-5.696150661E-1
2.284172298E1,2.617785931E0,-1.577513069E-1,-5.384618640E-1
2.285087417E1,2.528907537E0,-2.759502530E-1,-5.529694557E-1
2.286002532E1,2.412693977E0,-4.185830951E-1,-6.018372774E-1
2.286916376E1,2.264716148E0,-5.299099684E-1,-6.523848772E-1
2.287832766E1,2.128344536E0,-5.897729993E-1,-6.581879258E-1
2.288747886E1,2.000677586E0,-5.874823332E-1,-6.310052276E-1
2.289661730E1,1.862320542E0,-5.224271417E-1,-5.752654076E-1
2.290578120E1,1.719993114E0,-4.903576374E-1,-5.022691488E-1
2.291493240E1,1.584079623E0,-5.644228458E-1,-4.104893506E-1
2.292407084E1,1.441294074E0,-6.413896084E-1,-3.026748300E-1
2.293323475E1,1.268271565E0,-6.520794630E-1,-1.927223057E-1
2.294238594E1,1.060583591E0,-6.308525205E-1,-9.651386738E-2
2.295152438E1,8.490777016E-1,-6.394043565E-1,-4.428642616E-2
2.296068834E1,6.336013079E-1,-6.519267559E-1,-7.513421029E-2
2.296983949E1,3.834593594E-1,-6.394043565E-1,-1.307213157E-1
2.297897792E1,1.444653720E-1,-6.464291215E-1,-1.395785958E-1
2.298814183E1,-3.451287001E-2,-6.626165509E-1,-5.238015205E-2
2.299729303E1,-1.412584335E-1,-6.447492838E-1,8.979454637E-2
2.300643147E1,-2.359397560E-1,-6.160394549E-1,2.588465214E-1
2.301559537E1,-3.362714052E-1,-4.967715442E-1,3.965925872E-1
2.302474657E1,-4.222481549E-1,-2.327328026E-1,5.039489865E-1
2.303388501E1,-5.260922313E-1,5.314370990E-2,5.706840754E-1
2.304304891E1,-6.346703172E-1,3.086305857E-1,6.137487888E-1
2.305220011E1,-7.172874212E-1,4.567610323E-1,6.239804626E-1
2.306133855E1,-8.067765236E-1,5.456393361E-1,5.916055441E-1
2.307050246E1,-9.286405444E-1,6.557445526E-1,6.041279435E-1
2.307965365E1,-1.054169655E0,8.067765236E-1,7.221741676E-1
2.308879209E1,-1.191152096E0,8.000571728E-1,9.171871543E-1
2.309795600E1,-1.400520086E0,6.769714952E-1,1.272394896E0
2.310710720E1,-1.400061965E0,6.722373962E-1,1.778787255E0
2.311624563E1,-1.296828747E0,1.044243336E0,2.233562946E0
2.312540954E1,-1.486954927E0,1.167176366E0,2.343821049E0
2.313456074E1,-1.881562233E0,7.453863621E-1,1.904774427E0
2.314369917E1,-2.279071093E0,7.742488980E-1,1.263690233E0
2.315286308E1,-2.135674715E0,1.126096964E0,8.559496999E-1
2.316201428E1,-1.764585018E0,1.326760292E0,7.119424939E-1
2.317115272E1,-1.793905735E0,9.526162744E-1,7.296570539E-1
2.318031662E1,-1.677844763E0,9.926267713E-2,8.269344568E-1
2.318946782E1,-1.413653255E0,-3.391729295E-1,9.396358132E-1
2.319860626E1,-1.310420036E0,-3.901786804E-1,9.752176404E-1
2.320777016E1,-1.276518106E0,-6.074876189E-1,8.547280431E-1
2.321692136E1,-1.253916740E0,-8.275453448E-1,6.499415040E-1
2.322605980E1,-1.180615067E0,-7.479824424E-1,4.671454430E-1
2.323522371E1,-1.155417562E0,-5.286883116E-1,3.042019308E-1
2.324437490E1,-1.156028390E0,-3.176405728E-1,1.708845198E-1
2.325351334E1,-1.149309158E0,-1.473668963E-1,1.165191159E-1
2.326267725E1,-1.164885759E0,6.200099736E-2,1.681357026E-1
2.327182844E1,-1.173895717E0,2.515163720E-1,2.722851634E-1
2.328097959E1,-1.175881028E0,3.658975065E-1,3.894151151E-1
2.329013079E1,-1.180920482E0,4.034646153E-1,4.676035643E-1
2.329928193E1,-1.165954709E0,4.404208660E-1,4.926483035E-1
2.330843313E1,-1.138008475E0,4.958552718E-1,4.756973088E-1
2.331758433E1,-1.120293856E0,5.361711979E-1,4.367557764E-1
2.332673553E1,-1.118461370E0,5.522059202E-1,3.848337829E-1
2.333588667E1,-1.121973753E0,5.610632300E-1,3.292466700E-1
2.334503787E1,-1.138619304E0,5.819846988E-1,2.997733057E-1
2.335418902E1,-1.163663983E0,6.163448691E-1,3.264978528E-1
2.336334022E1,-1.140146375E0,5.176930428E-1,3.384093940E-1
2.337249141E1,-1.127776742E0,5.338805318E-1,3.206948042E-1
2.338164256E1,-1.137397647E0,5.957288146E-1,2.716743052E-1
2.339079376E1,-1.138313890E0,5.841227174E-1,2.179197669E-1
2.339994496E1,-1.174811959E0,6.032116413E-1,1.841704547E-1
2.340909610E1,-1.216502309E0,6.578825116E-1,1.771457046E-1
2.341824730E1,-1.242005229E0,7.603521347E-1,1.646233350E-1
2.342739850E1,-1.288429618E0,9.999569654E-1,1.702736765E-1
2.343654964E1,-1.291636586E0,1.184127450E0,2.354816198E-1
2.344570084E1,-1.253611326E0,1.231620789E0,3.297048211E-1
2.345485199E1,-1.256971002E0,1.292247415E0,4.376720488E-1
2.346400318E1,-1.278808713E0,1.402199864E0,5.186093450E-1
2.347315438E1,-1.254985690E0,1.430604339E0,5.468609929E-1
2.348230553E1,-1.229788303E0,1.369061470E0,5.380037427E-1
2.349145673E1,-1.217113137E0,1.276212692E0,5.118899941E-1
2.350060792E1,-1.194359064E0,1.156792045E0,4.694361091E-1
2.350975907E1,-1.146865726E0,9.723161459E-1,4.136963189E-1
2.351891027E1,-1.101510286E0,8.105943203E-1,3.542914093E-1
2.352806147E1,-1.077229142E0,6.694886088E-1,2.965663373E-1
2.353721261E1,-1.064706802E0,5.331169367E-1,2.454078794E-1
2.354636381E1,-1.044090629E0,3.949127495E-1,2.053973973E-1
2.355551501E1,-1.007897973E0,2.875563502E-1,1.611109674E-1
2.356466615E1,-9.542961121E-1,1.765348613E-1,1.175880954E-1
2.357381735E1,-9.028322697E-1,8.368607610E-2,8.872556686E-2
2.358296855E1,-8.519791961E-1,-5.955760833E-3,7.574506104E-2
2.359211970E1,-8.044858575E-1,-3.298575059E-2,8.948912472E-2
2.360127089E1,-7.568397522E-1,-6.352811307E-2,1.143811494E-1
2.361042204E1,-7.001836896E-1,-1.200314835E-1,1.134648770E-1
2.361957324E1,-6.407787800E-1,-1.925695986E-1,5.772506446E-2
2.362872443E1,-5.830537081E-1,-3.387148082E-1,-3.939964995E-2
2.363787558E1,-5.277720094E-1,-3.883461356E-1,-1.433963925E-1
2.364702678E1,-5.274665952E-1,-3.188622594E-1,-2.331909388E-1
2.365617798E1,-6.096255779E-1,-2.047865391E-1,-2.967190444E-1
2.366531636E1,-7.288935184E-1,-8.139539510E-2,-3.226800561E-1
2.367448032E1,-8.385405540E-1,4.138490185E-2,-3.138227761E-1
2.368363152E1,-9.410101771E-1,1.756185889E-1,-2.742704153E-1
2.369278266E1,-1.031720996E0,2.467822880E-1,-2.286095917E-1
2.370193386E1,-1.050351858E0,3.090887070E-1,-1.805053651E-1
2.371108501E1,-1.037676811E0,3.217637837E-1,-1.493521482E-1
2.372022345E1,-9.591829181E-1,2.183778882E-1,-1.340809762E-1
2.372938740E1,-7.631009221E-1,-1.221694518E-3,-1.423274130E-1
2.373853855E1,-5.233433843E-1,-3.628432751E-1,-2.403683960E-1
2.374767699E1,-2.353289127E-1,-7.453863621E-1,-4.866925478E-1
2.375684094E1,1.571404636E-1,-8.628217578E-1,-8.031114340E-1
2.376599209E1,6.192464232E-1,-6.336013079E-1,-1.092042208E0
2.377513053E1,1.009577751E0,-4.109475017E-1,-1.331952453E0
2.378429449E1,1.200467587E0,-4.115583301E-1,-1.422052383E0
2.379344563E1,1.247502804E0,-5.175403357E-1,-1.242768764E0
2.380258407E1,1.310572743E0,-7.620319724E-1,-9.350544214E-1
2.381174798E1,1.430298805E0,-1.006523609E0,-7.452336550E-1
2.382089917E1,1.592631459E0,-1.138924718E0,-6.584933400E-1
2.383003761E1,1.808565974E0,-1.101204872E0,-6.398624778E-1
2.383920152E1,2.052141428E0,-9.600991607E-1,-6.931589246E-1
2.384835272E1,2.258302212E0,-8.426637650E-1,-8.322793841E-1
2.385750391E1,2.435753345E0,-7.890619636E-1,-1.054016948E0
2.386665506E1,2.601445675E0,-7.505785823E-1,-1.286749721E0
2.387580626E1,2.737206459E0,-6.105418205E-1,-1.460535765E0
2.388494470E1,2.832498789E0,-4.034646153E-1,-1.548650503E0
2.389410860E1,2.910687208E0,-2.484621257E-1,-1.533532023E0
2.390325980E1,3.024304867E0,-1.249182671E-1,-1.425870180E0
2.391241094E1,3.104020357E0,-7.788302749E-2,-1.289803982E0
2.392156214E1,3.073019743E0,-1.038440317E-1,-1.162442327E0
2.393071334E1,3.047058821E0,-9.330692142E-2,-1.049588323E0
2.393986449E1,3.059733868E0,-3.436015919E-2,-9.451334476E-1
2.394901568E1,3.030107737E0,7.131642103E-2,-8.599202037E-1
2.395816688E1,2.968106747E0,2.334963679E-1,-8.067765236E-1
2.396730527E1,2.903357029E0,4.023956358E-1,-7.365291119E-1
2.397646923E1,2.837385416E0,5.254813433E-1,-6.907155514E-1
2.398562037E1,2.774621010E0,5.688515306E-1,-6.653653979E-1
2.399475881E1,2.734763145E0,3.307738006E-1,-6.545228362E-1
2.400392277E1,2.670013428E0,-3.054236295E-4,-6.927008033E-1
2.401307391E1,2.661767006E0,-2.999260128E-1,-7.186617851E-1
2.402222511E1,2.714605331E0,-5.529694557E-1,-7.401941419E-1
2.403137626E1,2.781951189E0,-6.868977547E-1,-7.847860456E-1
2.404052746E1,2.850366116E0,-8.104416132E-1,-8.324320912E-1
2.404967865E1,2.861972094E0,-9.177979827E-1,-8.762603998E-1
2.405882980E1,2.772941113E0,-9.313893318E-1,-9.074136019E-1
2.406798100E1,2.605263472E0,-7.973083854E-1,-9.197832346E-1
2.407711943E1,2.445832491E0,-6.166502833E-1,-9.008470178E-1
2.408628334E1,2.317859888E0,-5.088357925E-1,-8.657232523E-1
2.409543454E1,2.183168173E0,-5.129590034E-1,-7.737907767E-1
2.410457298E1,2.048018217E0,-5.777087808E-1,-6.368082762E-1
2.411373688E1,1.902178407E0,-5.986303091E-1,-4.863871336E-1
2.412288808E1,1.737707734E0,-5.880932212E-1,-3.807105422E-1
2.413202652E1,1.565143347E0,-4.978405237E-1,-3.226800561E-1
2.414119042E1,1.384179831E0,-3.339807391E-1,-2.519744933E-1
2.415034162E1,1.214211583E0,-1.873773932E-1,-1.574458778E-1
2.415949277E1,1.065623045E0,-9.559759498E-2,-4.566083103E-2
2.416864397E1,9.460496902E-1,-2.412846684E-2,8.780929446E-2
2.417779511E1,8.238802552E-1,6.826218218E-2,2.084516287E-1
2.418693355E1,6.937697530E-1,1.230857223E-1,2.654131353E-1
2.419609751E1,5.586197972E-1,1.290414780E-1,2.779355049E-1
2.420524865E1,4.292729199E-1,1.227803007E-1,2.666348219E-1
2.421439985E1,3.239017725E-1,7.360709459E-2,2.212794125E-1
2.422355100E1,2.431172132E-1,-3.161134571E-2,1.586675793E-1
2.423270220E1,1.727170646E-1,-1.288887709E-1,1.233911440E-1
2.424185339E1,7.009471953E-2,-1.736333370E-1,1.378987730E-1
2.425100454E1,-5.253286287E-2,-2.681619525E-1,1.866138428E-1
2.426015574E1,-1.565296054E-1,-3.755183518E-1,2.298312783E-1
2.426930693E1,-2.403683960E-1,-4.049917459E-1,2.835858464E-1
2.427845808E1,-3.035911024E-1,-3.217637837E-1,3.258870244E-1
2.428760928E1,-3.329117596E-1,-1.791309565E-1,4.330907166E-1
2.429676042E1,-3.542914093E-1,-5.222744122E-2,5.665608048E-1
2.430591162E1,-3.665083647E-1,2.351761982E-2,6.592568755E-1
2.431506282E1,-3.448232710E-1,6.108472496E-2,7.058340311E-1
2.432421397E1,-3.486410677E-1,5.344913527E-2,7.447755337E-1
2.433336516E1,-4.065188468E-1,3.222219273E-2,7.634063363E-1
2.434251636E1,-5.367820263E-1,5.253286287E-2,7.710419297E-1
2.435166751E1,-7.601994276E-1,1.337755471E-1,8.225058317E-1
2.436081870E1,-8.724426031E-1,2.000524700E-1,8.454126120E-1
2.436996985E1,-7.388197780E-1,1.889045089E-1,7.432484031E-1
2.437910829E1,-5.427377820E-1,1.545443535E-1,6.548282504E-1
2.438827225E1,-5.977140665E-1,1.068982761E-3,6.844543815E-1
2.439742339E1,-7.438592315E-1,-1.904316396E-1,8.044858575E-1
2.440656183E1,-8.568660021E-1,-3.594835997E-1,9.442171454E-1
2.441572574E1,-9.607100487E-1,-3.281776905E-1,9.636115432E-1
2.442487693E1,-1.136786699E0,-3.723114133E-1,8.385405540E-1
2.443401537E1,-1.286291599E0,-3.781144619E-1,6.273401380E-1
2.444317928E1,-1.263690233E0,2.895416021E-1,4.622586668E-1
2.445233048E1,-1.183363795E0,1.056002140E0,4.213318825E-1
2.446146891E1,-1.076465607E0,8.188407421E-1,4.136963189E-1
2.447063282E1,-1.096470833E0,1.574458778E-1,5.306735635E-1
2.447978402E1,-1.252236843E0,8.704573847E-3,7.983773947E-1
2.448892240E1,-1.408461094E0,3.762819171E-1,1.001484036E0
2.449808636E1,-1.497492075E0,8.119687438E-1,1.029277682E0
2.450723751E1,-1.556133389E0,1.070662498E0,9.498674870E-1
2.451637594E1,-1.558118701E0,9.914051294E-1,8.498412371E-1
2.452553990E1,-1.516733766E0,8.472451568E-1,8.073873520E-1
2.453469105E1,-1.482373595E0,8.576295376E-1,8.278507590E-1
2.454382949E1,-1.458397865E0,8.663341403E-1,8.542698622E-1
2.455299339E1,-1.454121947E0,8.481613994E-1,8.689302206E-1
2.456214459E1,-1.437018156E0,7.452336550E-1,8.588512540E-1
2.457129579E1,-1.406323075E0,5.595360994E-1,8.267817497E-1
2.458044693E1,-1.393495321E0,4.443913698E-1,8.226585388E-1
2.458959813E1,-1.329967141E0,4.359922409E-1,8.170081973E-1
2.459874933E1,-1.257887244E0,3.877353072E-1,7.882983685E-1
2.460790048E1,-1.227039456E0,3.352024257E-1,7.261446714E-1
2.461705167E1,-1.194664478E0,3.463504016E-1,6.323796511E-1
2.462620282E1,-1.163663983E0,3.687990308E-1,5.262449384E-1
2.463535402E1,-1.149003744E0,3.648285270E-1,4.398100376E-1
2.464450516E1,-1.084864736E0,2.609844804E-1,3.407000601E-1
2.465365636E1,-1.069288135E0,1.414111406E-1,2.628170252E-1
2.466280756E1,-1.059361815E0,7.574506104E-2,2.501419485E-1
2.467195870E1,-1.019351363E0,1.068982668E-2,2.425063550E-1
2.468110990E1,-1.033859015E0,-8.047912270E-2,2.203631550E-1
2.469026105E1,-1.013853788E0,-1.140757278E-1,2.194468826E-1
2.469941225E1,-9.808679819E-1,-9.055810422E-2,2.354816198E-1
2.470856345E1,-9.883508682E-1,-8.811471611E-2,2.525853515E-1
2.471771459E1,-1.011563063E0,-3.939964995E-2,2.547233105E-1
2.472686579E1,-1.021794796E0,7.513421029E-2,2.447970361E-1
2.473601693E1,-1.024085402E0,1.383569092E-1,2.344126403E-1
2.474516813E1,-1.038745761E0,1.780619770E-1,2.318165302E-1
2.475431933E1,-1.027139664E0,1.968455315E-1,2.275405973E-1
2.476347048E1,-1.004232883E0,1.847812980E-1,2.345653474E-1
2.477262167E1,-9.961391687E-1,1.739387512E-1,2.571666837E-1
2.478177287E1,-1.006829023E0,2.506000996E-1,2.753393948E-1
2.479092402E1,-1.040272832E0,3.408527672E-1,2.725905776E-1
2.480007522E1,-1.066997409E0,3.842229247E-1,2.559449971E-1
2.480922636E1,-1.098608851E0,4.720322192E-1,2.464768738E-1
2.481837756E1,-1.147629261E0,5.722111464E-1,2.698417902E-1
2.482752876E1,-1.167481780E0,6.253548861E-1,3.155026138E-1
2.483667990E1,-1.171757698E0,5.913001299E-1,3.746020794E-1
2.484583110E1,-1.178477049E0,4.998257756E-1,4.308000207E-1
2.485498225E1,-1.183822036E0,3.842229247E-1,4.559974670E-1
2.486413344E1,-1.156181097E0,2.516690791E-1,4.514161348E-1
2.487328459E1,-1.127929449E0,1.414111406E-1,4.338542521E-1
2.488243579E1,-1.139230132E0,3.634541109E-2,3.965925872E-1
2.489158699E1,-1.131136417E0,-8.444963396E-2,3.358132839E-1
2.490073813E1,-1.114185452E0,-1.551551968E-1,2.675510943E-1
2.490988933E1,-1.097234368E0,-1.499630064E-1,1.925695986E-1
2.491904048E1,-1.093263865E0,-1.353026628E-1,1.101052165E-1
2.492819167E1,-1.092347622E0,-7.650861889E-2,3.069507517E-2
2.493734287E1,-1.089598775E0,-4.428642802E-3,-3.649812192E-2
2.494649402E1,-1.073869467E0,1.076618284E-1,-4.199574888E-2
2.495564522E1,-1.066691995E0,2.292204350E-1,5.696150661E-2
2.496479636E1,-1.074633002E0,3.718532622E-1,1.942494214E-1
2.497394756E1,-1.081199646E0,5.073086619E-1,3.002314270E-1
2.498309876E1,-1.059667230E0,5.407525301E-1,3.626905680E-1
2.499224990E1,-1.004843712E0,5.314370990E-1,4.040754735E-1
2.500140110E1,-9.985825419E-1,5.670189857E-1,4.254551232E-1
2.501055225E1,-1.010646820E0,6.206207871E-1,4.204156399E-1
2.501970344E1,-9.991934299E-1,5.854970813E-1,3.839175105E-1
2.502885464E1,-9.756757617E-1,5.360184908E-1,3.242071867E-1
2.503800579E1,-9.559759498E-1,5.140279531E-1,2.559449971E-1
2.504715699E1,-9.378032684E-1,4.879142344E-1,1.998997629E-1
2.505630813E1,-8.864920735E-1,4.317162931E-1,1.710372269E-1
2.506545933E1,-8.328902125E-1,3.613161445E-1,1.531699449E-1
2.507461048E1,-7.936432958E-1,3.185568452E-1,1.455343664E-1
2.508376167E1,-7.872294188E-1,2.890834510E-1,1.491994411E-1
2.509291287E1,-8.044858575E-1,2.884726226E-1,1.661504507E-1
2.510206402E1,-8.028060198E-1,3.035911024E-1,1.765348613E-1
2.511121522E1,-7.806627750E-1,3.620797098E-1,1.944021434E-1
2.512036636E1,-7.631009221E-1,4.616478086E-1,2.279987335E-1
2.512951756E1,-7.643226385E-1,5.812211633E-1,2.530434728E-1
2.513866876E1,-7.446228266E-1,7.211052179E-1,2.695363462E-1
2.514781990E1,-7.261446714E-1,7.922688723E-1,2.658712566E-1
2.515697110E1,-7.142331600E-1,7.782194018E-1,2.318165302E-1
2.516612225E1,-7.059867382E-1,7.130114436E-1,1.947075576E-1
2.517526068E1,-7.087355256E-1,6.629219651E-1,1.843231618E-1
2.518442464E1,-7.159129977E-1,6.442911625E-1,1.861557066E-1
2.519357579E1,-7.291989326E-1,6.093201637E-1,1.878355294E-1
2.520272699E1,-7.319477201E-1,5.804576278E-1,1.994416267E-1
2.521187813E1,-6.934643388E-1,6.053496599E-1,2.284568697E-1
2.522102933E1,-6.545228362E-1,6.339067221E-1,2.744231224E-1
2.523018048E1,-6.642963886E-1,6.678087711E-1,3.263451457E-1
2.523933167E1,-7.285880446E-1,7.293516397E-1,3.666610718E-1
2.524848287E1,-8.367080092E-1,7.742488980E-1,3.658975065E-1
2.525763402E1,-9.498674870E-1,7.643226385E-1,3.046600819E-1
2.526678522E1,-1.020420313E0,6.850652099E-1,2.492256761E-1
2.527593636E1,-1.052642584E0,5.215108395E-1,2.095206082E-1
2.528507480E1,-1.032179117E0,3.361186981E-1,1.377460510E-1
2.529423870E1,-9.604045749E-1,1.853921413E-1,5.589252338E-2
2.530338990E1,-8.535063267E-1,1.064401343E-1,1.649287529E-2
2.531254110E1,-7.310314775E-1,6.978929788E-2,7.635590737E-4
2.532169225E1,-6.166502833E-1,3.863608837E-2,-4.428642802E-3
2.533084345E1,-5.376983285E-1,-3.344388679E-2,-1.527118147E-4
2.533999459E1,-4.897467792E-1,-9.300149232E-2,9.315420873E-3
2.534914579E1,-4.650074840E-1,-1.062874198E-1,2.107422985E-2
2.535829693E1,-4.573718905E-1,-7.910472155E-2,3.084778599E-2
2.536744813E1,-4.624113739E-1,4.581354442E-4,4.001049697E-2
2.537659933E1,-4.570664763E-1,1.035386100E-1,5.451811850E-2
2.538575048E1,-4.254551232E-1,2.061609477E-1,7.070557028E-2
2.539490167E1,-3.808632791E-1,2.460187376E-1,7.101099193E-2
2.540405282E1,-3.269560039E-1,2.864873707E-1,5.726693198E-2
2.541320402E1,-2.831276953E-1,3.568875194E-1,4.291202128E-2
2.542235522E1,-2.486148328E-1,4.304946065E-1,3.817795217E-2
2.543150636E1,-2.270824611E-1,5.010474920E-1,4.245388508E-2
2.544065756E1,-2.218902707E-1,5.523586273E-1,5.405998230E-2
2.544980871E1,-2.225011140E-1,5.325061083E-1,5.344913527E-2
2.545895990E1,-2.179197669E-1,4.558447599E-1,3.771981969E-2
2.546811105E1,-2.038702667E-1,4.039227366E-1,1.343864016E-2
2.547726225E1,-1.791309565E-1,3.973561525E-1,-4.734066315E-3
2.548641344E1,-1.484358907E-1,4.172086716E-1,-1.664558798E-2
2.549556459E1,-1.348445266E-1,4.147652984E-1,-1.420219894E-2
2.550471579E1,-1.418692768E-1,3.623851240E-1,-4.428642802E-3
2.551386693E1,-1.814216375E-1,2.472404242E-1,1.527118147E-3
2.552301813E1,-2.502946556E-1,9.590301663E-2,-6.872031838E-3
2.553216928E1,-3.206948042E-1,-2.962609194E-2,-1.878355257E-2
2.554132048E1,-3.918585181E-1,-7.910472155E-2,-1.863084175E-2
2.555047162E1,-4.624113739E-1,-4.734066129E-2,-7.024743594E-3
2.555962282E1,-5.361711979E-1,9.315420873E-3,5.192201585E-3
2.556877402E1,-5.803049207E-1,2.565558441E-2,2.504473738E-2
2.557792516E1,-5.954233408E-1,-1.847812906E-2,2.748812735E-2
2.558707636E1,-5.679352283E-1,-1.142284349E-1,1.068982668E-2
2.559622751E1,-4.882196784E-1,-1.745496094E-1,-2.596100792E-2
2.560537871E1,-3.684936166E-1,-1.798945218E-1,-7.330167294E-2
2.561452985E1,-2.449497581E-1,-1.901262105E-1,-1.043021679E-1
2.562368105E1,-1.485885978E-1,-2.104368806E-1,-1.029277667E-1
2.563283220E1,-1.067455560E-1,-2.235700935E-1,-8.368607610E-2
2.564198339E1,-1.253764033E-1,-2.283041626E-1,-5.146388337E-2
2.565113459E1,-1.971509457E-1,-2.107423097E-1,-2.153236605E-2
2.566028574E1,-2.893888950E-1,-1.681357026E-1,-3.206948051E-3
2.566943693E1,-3.726168275E-1,-9.284878522E-2,2.748812549E-3
2.567858808E1,-4.153761268E-1,-3.817795310E-3,-7.941014133E-3
2.568773928E1,-4.077405334E-1,6.001574174E-2,-1.466033421E-2
2.569689042E1,-3.553603888E-1,1.162136942E-1,-1.252236869E-2
2.570604162E1,-2.816005945E-1,1.386623234E-1,-8.246437646E-3
2.571519282E1,-2.189887464E-1,1.073564067E-1,-8.399149403E-3
2.572434397E1,-1.843231618E-1,2.550287358E-2,-1.175880991E-2
2.573349516E1,-1.843231618E-1,-5.115845799E-2,-2.825168520E-2
2.574264631E1,-1.934858710E-1,-1.065928489E-1,-3.619270027E-2
2.575179751E1,-1.988307834E-1,-1.409530044E-1,-3.802524135E-2
2.576094865E1,-1.904316396E-1,-1.730224788E-1,-4.840964451E-2
2.577009985E1,-1.785201132E-1,-2.055501044E-1,-6.108472496E-2
2.577925100E1,-1.646233350E-1,-2.333436459E-1,-7.253811508E-2
2.578840220E1,-1.594311297E-1,-2.531961799E-1,-7.864658535E-2
2.579755339E1,-1.629435122E-1,-2.730487287E-1,-8.842013776E-2
2.580670454E1,-1.647760421E-1,-2.809897363E-1,-9.269607067E-2
2.581585574E1,-1.641651988E-1,-2.677038014E-1,-8.597674966E-2
2.582500688E1,-1.615691036E-1,-2.325800955E-1,-7.253811508E-2
2.583415808E1,-1.630962193E-1,-1.904316396E-1,-5.665608495E-2
2.584330923E1,-1.708845198E-1,-1.681357026E-1,-4.398100078E-2
2.585246042E1,-1.832541823E-1,-1.620272398E-1,-3.542914242E-2
2.586161157E1,-1.950129867E-1,-1.583621502E-1,-3.313846514E-2
2.587076277E1,-2.037175596E-1,-1.560714692E-1,-3.130592033E-2
2.587991397E1,-1.933331639E-1,-1.343863904E-1,-2.886253223E-2
2.588906511E1,-1.678302884E-1,-9.208522737E-2,-2.932066843E-2
2.589821631E1,-1.359135211E-1,-6.551336497E-2,-4.001049697E-2
2.590736746E1,-1.038440317E-1,-6.490252167E-2,-5.390727147E-2
2.591651865E1,-7.482878864E-2,-7.345438004E-2,-7.131642103E-2
2.592566980E1,-5.238015205E-2,-9.636115283E-2,-8.154810965E-2
2.593482100E1,-3.985778242E-2,-1.233911440E-1,-8.399149776E-2
2.594397214E1,-3.802524135E-2,-1.185043678E-1,-6.994201243E-2
2.595312334E1,-3.588727489E-2,-9.315420687E-2,-5.283828825E-2
2.596227449E1,-3.985778242E-2,-6.536065787E-2,-3.390202299E-2
2.597142568E1,-4.627167806E-2,-4.672981426E-2,-1.939439960E-2
2.598057688E1,-5.741964281E-2,-4.245388508E-2,-1.756185852E-2
2.598972803E1,-7.223268598E-2,-4.550812021E-2,-2.199050039E-2
2.599887923E1,-8.444963396E-2,-5.329642445E-2,-2.748812735E-2
2.600803037E1,-8.368607610E-2,-6.001574174E-2,-3.359659761E-2
2.601718157E1,-6.887302548E-2,-6.123743951E-2,-3.710897267E-2
2.602633272E1,-4.504998401E-2,-4.138490185E-2,-3.756710514E-2
2.603548391E1,-2.367033064E-2,-1.298050396E-2,-3.634541109E-2
2.604463506E1,-2.122694254E-2,-1.053711493E-2,-3.206948191E-2
2.605378626E1,-3.527642787E-2,-3.100049868E-2,-2.901524492E-2
2.606293746E1,-5.482354015E-2,-5.512896553E-2,-2.672456764E-2
2.607208860E1,-6.826218218E-2,-6.291726977E-2,-2.321219631E-2
2.608123980E1,-7.635590434E-2,-5.161659420E-2,-2.199050039E-2
2.609039095E1,-7.895200700E-2,-4.917320609E-2,-2.870982140E-2
2.609954214E1,-7.437065244E-2,-6.062658876E-2,-3.848337755E-2
2.610869329E1,-6.306997687E-2,-7.818844914E-2,-4.443913698E-2
2.611784449E1,-4.871506989E-2,-9.926267713E-2,-4.489727318E-2
2.612699563E1,-4.077405483E-2,-1.039967462E-1,-4.062134400E-2
2.613614683E1,-3.909422457E-2,-7.986827940E-2,-2.962609194E-2
2.614529803E1,-3.955236077E-2,-3.817795217E-2,-1.679829881E-2
2.615444917E1,-3.741439432E-2,-4.428642802E-3,-1.084253844E-2
2.616360037E1,-3.206948191E-2,1.175880991E-2,-1.618745178E-2
2.617275152E1,-2.641914412E-2,1.481304597E-2,-2.473931387E-2
2.618190272E1,-2.397575416E-2,2.382304333E-2,-3.268032894E-2
2.619105386E1,-3.344388679E-2,3.588727489E-2,-3.084778599E-2
2.620020506E1,-4.993676394E-2,2.687728032E-2,-2.244863659E-2
2.620935621E1,-5.925218388E-2,2.687728032E-2,-1.160609815E-2
2.621850740E1,-4.886778072E-2,3.115320951E-2,-8.399149403E-3
2.622765855E1,-3.206948191E-2,1.542389300E-2,-1.130067464E-2
2.623680975E1,-1.588202827E-2,-5.039489828E-3,-1.481304597E-2
2.624596094E1,2.137965523E-3,-1.649287529E-2,-1.404948719E-2
2.625511209E1,1.588202827E-2,-2.977880463E-2,-1.710372418E-2
2.626426329E1,2.214321308E-2,-3.924693540E-2,-2.061609551E-2
2.627341443E1,2.580829710E-2,-3.939964995E-2,-1.939439960E-2
2.628256563E1,2.443389036E-2,-1.695101149E-2,-1.282779220E-2
2.629171678E1,1.542389300E-2,9.468132630E-3,-3.665083554E-3
2.630086798E1,-2.596100792E-3,2.641914412E-2,3.512371797E-3
2.631001912E1,-2.107422985E-2,1.603474095E-2,3.970507067E-3
2.631917032E1,-3.497100621E-2,-7.482878864E-3,-3.970507067E-3
2.632832147E1,-3.970507160E-2,-2.977880463E-2,-1.679829881E-2
2.633747266E1,-3.038965166E-2,-3.695625812E-2,-2.535016090E-2
2.634662381E1,-1.496575773E-2,-2.321219631E-2,-2.764083818E-2
2.635577501E1,-2.290677279E-3,-6.261184346E-3,-2.336490713E-2
2.636492621E1,1.527118147E-4,-3.817795310E-3,-1.664558798E-2
2.637407735E1,2.748812549E-3,-1.527118124E-2,-1.481304597E-2
2.638322855E1,4.581354558E-3,-2.000524849E-2,-1.710372418E-2
2.639237970E1,1.527118147E-3,-1.343864016E-2,-2.153236605E-2
2.640153089E1,-4.581354442E-4,-3.054236295E-4,-2.825168520E-2
2.641068204E1,-3.512371797E-3,9.315420873E-3,-3.374931216E-2
2.641983324E1,-7.941014133E-3,1.664558798E-2,-3.680354729E-2
2.642898438E1,-9.926267900E-3,2.382304333E-2,-3.497100621E-2
2.643813558E1,-1.420219894E-2,3.115320951E-2,-2.535016090E-2
2.644728673E1,-1.740914769E-2,3.833066672E-2,-1.557660475E-2
2.645643792E1,-1.618745178E-2,3.955236077E-2,-1.374406368E-2
2.646558907E1,-3.817795310E-3,3.603998944E-2,-1.481304597E-2
2.647474027E1,1.542389300E-2,2.443389036E-2,-2.260134928E-2
2.648389147E1,4.138490185E-2,7.635590620E-3,-3.100049868E-2
2.649304261E1,7.360709459E-2,3.512371797E-3,-3.741439432E-2
2.650219381E1,9.987352788E-2,1.740914769E-2,-3.481829539E-2
2.651134496E1,1.084253863E-1,3.665083647E-2,-2.504473738E-2
2.652049615E1,8.857285231E-2,4.520269856E-2,-9.315420873E-3
2.652964730E1,5.024218559E-2,4.092676565E-2,2.137965523E-3
2.653879850E1,1.267508045E-2,3.558185324E-2,6.108472589E-3
2.654794964E1,-1.130067464E-2,3.848337755E-2,2.901524538E-3
2.655710084E1,-1.634016447E-2,4.504998401E-2,-2.137965523E-3
2.656625199E1,-8.246437646E-3,4.199574888E-2,-8.704573847E-3
2.657540318E1,1.114796288E-2,2.031067200E-2,-2.137965336E-2
2.658455433E1,3.787253052E-2,-1.527118147E-4,-2.977880463E-2
2.659370553E1,5.894676223E-2,-1.282779220E-2,-3.268032894E-2
2.660285667E1,7.375980914E-2,-1.695101149E-2,-2.886253223E-2
2.661200787E1,7.864658535E-2,-1.634016447E-2,-2.397575416E-2
2.662115907E1,8.154810965E-2,-5.497625098E-3,-1.908897609E-2
2.663031022E1,8.139539510E-2,7.177455351E-3,-1.603474095E-2
2.663946136E1,7.773031294E-2,1.435491070E-2,-1.481304597E-2
2.664861256E1,6.597150117E-2,1.084253844E-2,-1.801999472E-2
2.665776376E1,5.436540768E-2,8.857285604E-3,-2.535016090E-2
2.666691490E1,4.260659590E-2,1.313321572E-2,-2.672456764E-2
2.667606610E1,3.390202299E-2,2.458660305E-2,-2.428117767E-2
2.668521725E1,2.504473738E-2,4.260659590E-2,-2.076880634E-2
2.669436845E1,1.145338640E-2,5.283828825E-2,-1.466033421E-2
2.670351959E1,3.054236295E-4,5.467082933E-2,-9.315420873E-3
2.671267079E1,-5.803049076E-3,4.443913698E-2,-8.704573847E-3
2.672182193E1,-6.108472589E-3,2.092151903E-2,-1.175880991E-2
2.673097313E1,-7.788302377E-3,-1.160609815E-2,-1.847812906E-2
2.674012428E1,-1.068982668E-2,-3.344388679E-2,-2.397575416E-2
2.674927548E1,-1.618745178E-2,-4.001049697E-2,-2.825168520E-2
2.675842662E1,-1.496575773E-2,-3.756710514E-2,-2.947338112E-2
2.676757782E1,-1.557660475E-2,-3.038965166E-2,-2.519745007E-2
2.677672897E1,-1.756185852E-2,-2.244863659E-2,-1.542389300E-2
2.678588016E1,-2.565558441E-2,-1.649287529E-2,-9.468132630E-3
2.679503131E1,-3.115320951E-2,-1.588202827E-2,-1.068982668E-2
2.680418251E1,-2.855710872E-2,-2.550287358E-2,-1.924168877E-2
2.681333365E1,-1.740914769E-2,-3.451287001E-2,-2.702999115E-2
2.682248485E1,-1.527118147E-4,-3.283303976E-2,-2.993151546E-2
2.683163600E1,1.893626526E-2,-2.733541466E-2,-3.054236248E-2
2.684078720E1,3.619270027E-2,-2.657185495E-2,-2.672456764E-2
2.684993834E1,4.718795046E-2,-2.840439789E-2,-2.351761982E-2
2.685908954E1,5.161659420E-2,-2.718270384E-2,-2.168507688E-2
2.686824074E1,4.474456236E-2,-1.466033421E-2,-2.183778957E-2
2.687739188E1,3.466558084E-2,7.635590620E-3,-1.695101149E-2
2.688654308E1,2.336490713E-2,2.519745007E-2,-1.160609815E-2
2.689569423E1,1.511846948E-2,3.726168349E-2,-1.038440317E-2
2.690484542E1,1.084253844E-2,4.382828996E-2,-9.162709117E-3
2.691399657E1,7.635590620E-3,5.115845799E-2,-9.315420873E-3
2.692314777E1,4.581354558E-3,5.405998230E-2,-9.926267900E-3
2.693229891E1,2.137965523E-3,4.688252881E-2,-1.236965694E-2
2.694145011E1,-1.985253533E-3,2.993151546E-2,-1.786728203E-2
2.695060126E1,-6.719320081E-3,7.024743594E-3,-2.336490713E-2
2.695975246E1,-8.399149403E-3,-1.343864016E-2,-2.336490713E-2
2.696890360E1,-7.024743594E-3,-2.611372061E-2,-2.214321308E-2
2.697805480E1,-2.596100792E-3,-3.512371704E-2,-1.786728203E-2
2.698720595E1,1.068982761E-3,-3.512371704E-2,-1.298050396E-2
2.699635714E1,3.970507067E-3,-2.962609194E-2,-6.108472589E-3
2.700550829E1,3.359660041E-3,-1.817270555E-2,-1.527118147E-4
2.701465949E1,5.039489828E-3,-1.374406274E-3,1.679830020E-3
2.702381063E1,6.108472589E-3,1.557660475E-2,2.290677279E-3
2.703296183E1,5.344913341E-3,3.603998944E-2,-2.596100792E-3
2.704211298E1,8.857285604E-3,5.650337040E-2,-7.482878864E-3
2.705126417E1,1.130067464E-2,6.551336497E-2,-9.315420873E-3
2.706041532E1,1.924168877E-2,6.077930331E-2,-1.160609815E-2
2.706956652E1,2.428117767E-2,4.993676394E-2,-1.221694518E-2
2.707871766E1,2.382304333E-2,3.665083647E-2,-9.773556143E-3
2.708786886E1,2.153236605E-2,1.908897609E-2,-6.108472589E-3
2.709702001E1,1.481304597E-2,4.581354442E-4,-3.054236295E-3
2.710617121E1,8.093725890E-3,-1.038440317E-2,1.221694518E-3
2.711532235E1,5.650337320E-3,-8.551862091E-3,5.344913341E-3
2.712447355E1,3.665083554E-3,-0.000000000E0,9.009997360E-3
2.713362470E1,4.886778072E-3,7.788302377E-3,4.123218823E-3
2.714277589E1,9.773556143E-3,1.557660475E-2,-4.275931045E-3
2.715192704E1,1.603474095E-2,1.863084175E-2,-1.099525020E-2
2.716107824E1,2.214321308E-2,2.214321308E-2,-1.466033421E-2
2.717022938E1,2.641914412E-2,3.008422814E-2,-1.099525020E-2
2.717938058E1,2.687728032E-2,3.909422457E-2,-8.551862091E-3
2.718853173E1,2.504473738E-2,4.092676565E-2,-3.054236295E-3
2.719768292E1,2.260134928E-2,3.436015919E-2,2.443389036E-3
2.720683407E1,1.832541823E-2,2.825168520E-2,5.497625098E-3
2.721598527E1,1.343864016E-2,1.801999472E-2,6.108472589E-3
2.722513641E1,1.099525020E-2,7.177455351E-3,6.719320081E-3
2.723428761E1,8.093725890E-3,-5.497625098E-3,4.886778072E-3
2.724343876E1,7.024743594E-3,-1.328592747E-2,6.108472589E-4
2.725258996E1,5.192201585E-3,-1.695101149E-2,-4.886778072E-3
2.726174110E1,7.024743594E-3,-1.343864016E-2,-8.551862091E-3
2.727089230E1,9.468132630E-3,-5.497625098E-3,-1.038440317E-2
2.728004344E1,1.252236869E-2,-4.886778072E-3,-9.773556143E-3
2.728919464E1,1.252236869E-2,-6.719320081E-3,-7.330167107E-3
2.729834579E1,7.635590620E-3,-1.404948719E-2,-6.719320081E-3
2.730749699E1,1.527118147E-3,-2.122694254E-2,-4.428642802E-3
2.731664813E1,-4.581354558E-3,-2.596100792E-2,-2.596100792E-3
2.732579933E1,-9.009997360E-3,-2.657185495E-2,-7.635590737E-4
2.733495048E1,-7.177455351E-3,-2.183778957E-2,4.581354442E-4
2.734410167E1,-1.679830020E-3,-1.466033421E-2,-1.527118147E-4
2.735325282E1,9.315420873E-3,-4.275931045E-3,-1.832541777E-3
2.736240402E1,1.863084175E-2,4.581354442E-4,-5.497625098E-3
2.737155516E1,2.412846684E-2,-3.665083554E-3,-1.038440317E-2
2.738070636E1,2.672456764E-2,-1.695101149E-2,-1.450762246E-2
2.738985751E1,1.954711229E-2,-3.206948191E-2,-1.710372418E-2
2.739900870E1,1.404948719E-2,-3.924693540E-2,-2.137965336E-2
2.740815985E1,8.551862091E-3,-3.512371704E-2,-2.015795931E-2
2.741731105E1,2.137965523E-3,-1.771457121E-2,-1.481304597E-2
2.742646220E1,-5.344913341E-3,1.068982761E-3,-6.261184346E-3
2.743561339E1,-1.969982497E-2,1.374406368E-2,2.748812549E-3
2.744476454E1,-3.329117596E-2,9.468132630E-3,6.413896102E-3
2.745391574E1,-4.184303805E-2,-3.206948051E-3,2.596100792E-3
2.746306688E1,-4.169032723E-2,-1.527118124E-2,-9.009997360E-3
2.747221808E1,-3.481829539E-2,-2.428117767E-2,-1.801999472E-2
2.748136923E1,-1.557660475E-2,-2.611372061E-2,-2.458660305E-2
2.749052042E1,2.290677279E-3,-2.672456764E-2,-2.748812735E-2
2.749967157E1,1.466033421E-2,-3.084778599E-2,-2.382304333E-2
2.750882277E1,1.771457121E-2,-3.512371704E-2,-2.260134928E-2
2.751797391E1,1.542389300E-2,-4.840964451E-2,-1.893626526E-2
