"Time (s)","Gyroscope x (rad/s)","Gyroscope y (rad/s)","Gyroscope z (rad/s)"
8.585502810E0,-1.068982668E-2,-5.115845799E-2,-2.137965523E-3
8.594654477E0,5.192201585E-3,-3.420744836E-2,-4.428642802E-3
8.603806143E0,2.031067200E-2,-1.435491070E-2,-3.054236295E-3
8.612957810E0,2.947338112E-2,3.206948051E-3,-4.275931045E-3
8.622109477E0,3.359659761E-2,2.122694254E-2,-4.886778072E-3
8.631261091E0,3.268032894E-2,4.306473210E-2,6.108472589E-4
8.640412758E0,2.076880634E-2,7.070557028E-2,7.788302377E-3
8.649564425E0,3.359660041E-3,8.689302206E-2,1.252236869E-2
8.658716091E0,-1.252236869E-2,7.849387079E-2,1.557660475E-2
8.667867706E0,-2.596100792E-2,6.108472496E-2,1.603474095E-2
8.677019373E0,-3.130592033E-2,4.413371533E-2,1.114796288E-2
8.686171039E0,-3.558185324E-2,3.329117596E-2,2.596100792E-3
8.695322706E0,-3.665083647E-2,2.657185495E-2,-4.123218823E-3
8.704474373E0,-3.481829539E-2,1.939439960E-2,-8.399149403E-3
8.713625987E0,-2.672456764E-2,6.719320081E-3,-5.344913341E-3
8.722777654E0,-1.725643501E-2,-1.557660475E-2,9.162708884E-4
8.731929320E0,-1.282779220E-2,-3.848337755E-2,9.162708884E-4
8.741080987E0,-1.130067464E-2,-5.589252338E-2,-9.162708884E-4
8.750232654E0,-1.252236869E-2,-6.261184067E-2,-5.803049076E-3
8.759384268E0,-1.496575773E-2,-6.016845629E-2,-1.252236869E-2
8.768535935E0,-1.679829881E-2,-5.787777901E-2,-2.046338283E-2
8.777687602E0,-1.007897966E-2,-5.604523420E-2,-2.458660305E-2
8.786839268E0,-2.748812549E-3,-4.520269856E-2,-2.641914412E-2
8.795990935E0,1.985253533E-3,-2.336490713E-2,-2.397575416E-2
8.805142550E0,4.581354442E-4,1.832541777E-3,-2.031067200E-2
8.814294216E0,-4.123218823E-3,2.779355086E-2,-1.679829881E-2
8.823445883E0,-3.512371797E-3,4.642439261E-2,-1.252236869E-2
8.832597550E0,-1.832541777E-3,5.909947306E-2,-1.313321572E-2
8.841749216E0,-1.985253533E-3,7.299624383E-2,-1.496575773E-2
8.850900831E0,-5.344913341E-3,9.529217333E-2,-1.191152167E-2
8.860052498E0,-1.099525020E-2,1.110214889E-1,-8.246437646E-3
8.869204164E0,-2.015795931E-2,1.145338640E-1,-5.955760833E-3
8.878355831E0,-2.748812735E-2,1.067455560E-1,-3.512371797E-3
8.887507445E0,-3.481829539E-2,9.651386738E-2,1.374406274E-3
8.896659112E0,-4.474456236E-2,8.933641016E-2,9.162709117E-3
8.905810779E0,-5.528167635E-2,8.811471611E-2,1.588202827E-2
8.914962445E0,-6.200099736E-2,8.261708915E-2,1.756185852E-2
8.924114112E0,-6.245913357E-2,6.826218218E-2,1.756185852E-2
8.933265779E0,-5.986303091E-2,5.787777901E-2,1.893626526E-2
8.942417393E0,-5.192201585E-2,6.215370819E-2,1.954711229E-2
8.951569060E0,-4.703523964E-2,6.872031838E-2,1.588202827E-2
8.960720727E0,-3.894151375E-2,6.688777357E-2,8.093725890E-3
8.969872393E0,-3.161134571E-2,6.215370819E-2,1.374406274E-3
8.979024060E0,-2.153236605E-2,5.909947306E-2,-3.512371797E-3
8.988175675E0,-1.175880991E-2,5.726693198E-2,-6.413896102E-3
8.997327341E0,-7.330167107E-3,5.375456065E-2,-7.024743594E-3
9.006479008E0,0.000000000E0,5.008947477E-2,-6.413896102E-3
9.015630675E0,5.039489828E-3,4.291202128E-2,-3.817795310E-3
9.024782341E0,5.039489828E-3,3.512371704E-2,-7.635590737E-4
9.033933956E0,2.748812549E-3,3.268032894E-2,-2.596100792E-3
9.043085623E0,1.527118147E-4,4.046862945E-2,-3.817795310E-3
9.052237289E0,-1.068982761E-3,4.703523964E-2,-5.192201585E-3
9.061388956E0,-1.679830020E-3,4.703523964E-2,-5.192201585E-3
9.070540623E0,1.985253533E-3,4.046862945E-2,-8.093725890E-3
9.079692237E0,1.206423342E-2,2.367033064E-2,-1.175880991E-2
9.088843904E0,1.908897609E-2,-7.177455351E-3,-1.588202827E-2
9.097995570E0,2.305948362E-2,-3.909422457E-2,-1.282779220E-2
9.107147237E0,2.199050039E-2,-6.551336497E-2,-9.162709117E-3
9.116298904E0,2.153236605E-2,-7.223268598E-2,-6.108472589E-3
9.125450518E0,1.771457121E-2,-6.734590977E-2,-7.941014133E-3
9.134602185E0,5.955760833E-3,-5.711421743E-2,-1.298050396E-2
9.143753852E0,-5.344913341E-3,-3.970507160E-2,-1.359135192E-2
9.152905518E0,-1.023169141E-2,-3.436015919E-2,-7.635590620E-3
9.162057185E0,-1.878355257E-2,-4.627167806E-2,-4.581354558E-3
9.171208800E0,-3.161134571E-2,-6.627693027E-2,-5.955760833E-3
9.180360466E0,-4.382828996E-2,-7.589777559E-2,-1.023169141E-2
9.189512133E0,-4.520269856E-2,-6.505523622E-2,-1.084253844E-2
9.198663800E0,-3.985778242E-2,-3.909422457E-2,-8.399149403E-3
9.207815466E0,-2.901524492E-2,-1.191152167E-2,-4.123218823E-3
9.216967081E0,-1.496575773E-2,9.162709117E-3,-2.748812549E-3
9.226118748E0,-5.192201585E-3,2.412846684E-2,-3.359660041E-3
9.235270414E0,-1.527118147E-3,1.939439960E-2,-2.596100792E-3
9.244422081E0,-1.985253533E-3,1.985253533E-3,-1.374406274E-3
9.253573748E0,-2.443389036E-3,-1.313321572E-2,-2.596100792E-3
9.262725362E0,6.108472589E-4,-1.435491070E-2,-6.872031838E-3
9.271877029E0,2.290677279E-3,1.374406274E-3,-6.872031838E-3
9.281028695E0,5.192201585E-3,3.023693897E-2,-4.428642802E-3
9.290180362E0,1.832541777E-3,5.497625470E-2,-2.748812549E-3
9.299332029E0,-1.985253533E-3,6.826218218E-2,9.162708884E-4
9.308483695E0,-3.206948051E-3,6.765133142E-2,9.162708884E-4
9.317635310E0,-6.108472589E-3,5.558710173E-2,-1.527118147E-3
9.326786977E0,-1.099525020E-2,3.680354729E-2,-5.192201585E-3
9.335938643E0,-8.857285604E-3,2.061609551E-2,-5.192201585E-3
9.345090310E0,-7.024743594E-3,1.389677543E-2,-4.581354558E-3
9.354241977E0,-8.857285604E-3,1.328592747E-2,-5.803049076E-3
9.363393591E0,-1.374406368E-2,1.084253844E-2,-7.024743594E-3
9.372545258E0,-1.130067464E-2,9.162709117E-3,-9.468132630E-3
9.381696925E0,-8.093725890E-3,6.108472589E-3,-1.130067464E-2
9.390848591E0,-5.039489828E-3,3.054236295E-3,-1.007897966E-2
9.400000206E0,-3.206948051E-3,0.000000000E0,-9.315420873E-3
9.409151873E0,-0.000000000E0,-8.399149403E-3,-1.175880991E-2
9.418303539E0,5.039489828E-3,-2.886253223E-2,-1.236965694E-2
9.427455206E0,8.399149403E-3,-4.932591692E-2,-1.298050396E-2
9.436606873E0,5.955760833E-3,-5.665608495E-2,-1.298050396E-2
9.445758539E0,6.566607859E-3,-5.405998230E-2,-1.359135192E-2
9.454910154E0,1.191152167E-2,-3.542914242E-2,-1.481304597E-2
9.464061820E0,2.153236605E-2,-1.007897966E-2,-1.343864016E-2
9.473213487E0,2.443389036E-2,7.941014133E-3,-1.099525020E-2
9.482365154E0,2.199050039E-2,1.572931744E-2,-9.162709117E-3
9.491516820E0,1.084253844E-2,1.695101149E-2,-8.093725890E-3
9.500668435E0,-6.413896102E-3,1.695101149E-2,-8.246437646E-3
9.509820102E0,-2.305948362E-2,1.572931744E-2,-5.344913341E-3
9.518971768E0,-3.603998944E-2,1.023169141E-2,-4.581354442E-4
9.528123435E0,-4.520269856E-2,8.399149403E-3,1.374406274E-3
9.537275102E0,-4.764608666E-2,1.206423342E-2,6.108472589E-4
9.546426716E0,-4.092676565E-2,2.229592577E-2,-1.068982761E-3
9.555578383E0,-3.176405653E-2,3.206948191E-2,-1.679830020E-3
9.564730050E0,-2.076880634E-2,4.169032723E-2,-1.679830020E-3
9.573881716E0,-1.221694518E-2,3.985778242E-2,-1.527118147E-3
9.583033383E0,-1.023169141E-2,1.817270555E-2,-4.581354558E-3
9.592185050E0,-9.773556143E-3,-1.924168877E-2,-8.246437646E-3
9.601336664E0,-5.803049076E-3,-5.299099907E-2,-7.482878864E-3
9.610488331E0,3.512371797E-3,-6.795676053E-2,-3.817795310E-3
9.619639998E0,1.527118124E-2,-6.123743951E-2,2.443389036E-3
9.628791664E0,3.038965166E-2,-4.199574888E-2,4.886778072E-3
9.637943331E0,3.817795217E-2,-2.031067200E-2,7.482878864E-3
9.647094945E0,3.558185324E-2,-3.359660041E-3,4.886778072E-3
9.656246612E0,2.993151546E-2,8.093725890E-3,-0.000000000E0
9.665398279E0,2.260134928E-2,1.756185852E-2,-3.054236295E-3
9.674549945E0,2.382304333E-2,7.941014133E-3,-7.941014133E-3
9.683701612E0,2.702999115E-2,-7.024743594E-3,-1.160609815E-2
9.692853279E0,3.145863488E-2,-1.618745178E-2,-1.282779220E-2
9.702004893E0,3.955236077E-2,-2.031067200E-2,-9.009997360E-3
9.711156560E0,4.566083103E-2,-1.603474095E-2,-1.679830020E-3
9.720308227E0,4.535540938E-2,-3.054236295E-4,9.926267900E-3
9.729459893E0,2.794626169E-2,2.015795931E-2,1.588202827E-2
9.738611508E0,-1.832541777E-3,4.062134400E-2,2.107422985E-2
9.747763175E0,-3.405473381E-2,4.840964451E-2,2.275406010E-2
9.756914841E0,-5.543438718E-2,4.474456236E-2,2.260134928E-2
9.766066508E0,-6.047387794E-2,4.703523964E-2,2.504473738E-2
9.775218175E0,-5.436540768E-2,5.680879578E-2,2.809897438E-2
9.784369841E0,-4.840964451E-2,7.559234649E-2,3.237490356E-2
9.793521456E0,-4.245388508E-2,9.910997003E-2,3.481829539E-2
9.802673123E0,-4.443913698E-2,1.152974218E-1,3.726168349E-2
9.811824789E0,-4.321744293E-2,1.159082651E-1,3.420744836E-2
9.820976456E0,-4.306473210E-2,1.007898003E-1,2.809897438E-2
9.830128123E0,-4.596625641E-2,8.215895295E-2,2.504473738E-2
9.839279737E0,-4.902049154E-2,7.192726433E-2,2.687728032E-2
9.848431404E0,-5.070032179E-2,5.619794875E-2,2.687728032E-2
9.857583070E0,-4.978405312E-2,2.901524492E-2,2.443389036E-2
9.866734737E0,-4.520269856E-2,-3.512371797E-3,2.321219631E-2
9.875886404E0,-3.329117596E-2,-3.665083647E-2,2.214321308E-2
9.885038070E0,-2.321219631E-2,-6.001574174E-2,1.679829881E-2
9.894189685E0,-1.557660475E-2,-7.452336699E-2,8.246437646E-3
9.903341352E0,-1.053711493E-2,-8.842013776E-2,4.123218823E-3
9.912493018E0,-1.343864016E-2,-9.758284688E-2,2.748812549E-3
9.921644685E0,-2.153236605E-2,-9.452861547E-2,6.413896102E-3
9.930796352E0,-3.268032894E-2,-9.086353332E-2,9.926267900E-3
9.939947966E0,-4.871506989E-2,-9.452861547E-2,1.175880991E-2
9.949099633E0,-6.154286116E-2,-1.041494608E-1,1.099525020E-2
9.958251300E0,-7.391251624E-2,-1.078145429E-1,9.773556143E-3
9.967402966E0,-8.185353130E-2,-1.059819981E-1,7.177455351E-3
9.976554633E0,-8.506047726E-2,-9.330692142E-2,4.734066315E-3
9.985706300E0,-8.032641560E-2,-7.711946964E-2,6.566607859E-3
9.994857914E0,-7.177454978E-2,-6.505523622E-2,1.038440317E-2
1.000400958E1,-5.940489471E-2,-5.421269313E-2,1.282779220E-2
1.001316125E1,-5.024218559E-2,-5.772506446E-2,1.969982497E-2
1.002231291E1,-4.398100078E-2,-6.795676053E-2,2.336490713E-2
1.003146458E1,-4.398100078E-2,-7.941014320E-2,2.275406010E-2
1.004061620E1,-4.932591692E-2,-9.330692142E-2,1.725643501E-2
1.004976786E1,-5.482354015E-2,-9.697200358E-2,1.420219894E-2
1.005891953E1,-5.543438718E-2,-8.780929446E-2,1.236965694E-2
1.006807120E1,-4.764608666E-2,-6.551336497E-2,1.420219894E-2
1.007722286E1,-3.680354729E-2,-3.833066672E-2,1.603474095E-2
1.008637448E1,-2.962609194E-2,-2.031067200E-2,1.481304597E-2
1.009552614E1,-2.535016090E-2,-1.252236869E-2,1.557660475E-2
1.010467781E1,-2.473931387E-2,-1.969982497E-2,1.740914769E-2
1.011382948E1,-2.458660305E-2,-3.176405653E-2,1.557660475E-2
1.012298114E1,-2.825168520E-2,-3.665083647E-2,1.435491070E-2
1.013213281E1,-3.497100621E-2,-3.603998944E-2,1.481304597E-2
1.014128448E1,-4.184303805E-2,-3.481829539E-2,1.298050396E-2
1.015043609E1,-4.489727318E-2,-3.191677108E-2,5.650337320E-3
1.015958776E1,-4.062134400E-2,-1.863084175E-2,-1.679830020E-3
1.016873942E1,-3.023693897E-2,-6.566607859E-3,-5.955760833E-3
1.017789109E1,-1.679829881E-2,-3.512371797E-3,-8.857285604E-3
1.018704276E1,-6.719320081E-3,-1.496575773E-2,-1.252236869E-2
1.019619437E1,4.428642802E-3,-3.298575059E-2,-1.298050396E-2
1.020534604E1,8.399149403E-3,-5.894676223E-2,-1.298050396E-2
1.021449771E1,6.108472589E-3,-7.406523079E-2,-1.359135192E-2
1.022364937E1,1.832541777E-3,-7.406523079E-2,-1.664558798E-2
1.023280104E1,4.734066315E-3,-5.772506446E-2,-2.092151903E-2
1.024195271E1,1.267508045E-2,-3.603998944E-2,-2.397575416E-2
1.025110432E1,2.351761982E-2,-9.620844387E-3,-2.687728032E-2
1.026025599E1,3.741439432E-2,1.343864016E-2,-2.748812735E-2
1.026940765E1,4.718795046E-2,2.244863659E-2,-2.550287358E-2
1.027855932E1,4.917320609E-2,1.389677543E-2,-2.489202656E-2
1.028771099E1,4.184303805E-2,5.497625098E-3,-2.550287358E-2
1.029686260E1,3.084778599E-2,4.886778072E-3,-2.993151546E-2
1.030601427E1,2.580829710E-2,9.620844387E-3,-3.665083647E-2
1.031516594E1,2.626643144E-2,2.473931387E-2,-3.970507160E-2
1.032431760E1,2.550287358E-2,4.337015375E-2,-4.214845970E-2
1.033346927E1,1.969982497E-2,6.444438547E-2,-4.230117425E-2
1.034262094E1,9.162709117E-3,7.773031294E-2,-4.230117425E-2
1.035177255E1,3.206948051E-3,6.994201243E-2,-4.169032723E-2
1.036092422E1,-4.123218823E-3,5.131116882E-2,-3.634541109E-2
1.037007588E1,-1.878355257E-2,3.680354729E-2,-2.901524492E-2
1.037922755E1,-4.107947648E-2,3.726168349E-2,-2.748812735E-2
1.038837922E1,-6.276455522E-2,4.566083103E-2,-3.008422814E-2
1.039753083E1,-7.391251624E-2,5.772506446E-2,-3.558185324E-2
1.040668250E1,-6.734590977E-2,7.040014863E-2,-3.802524135E-2
1.041583416E1,-5.115845799E-2,7.818844914E-2,-3.603998944E-2
1.042498583E1,-3.038965166E-2,8.490777016E-2,-3.710897267E-2
1.043413750E1,-1.313321572E-2,9.147437662E-2,-4.184303805E-2
1.044328916E1,-7.635590737E-4,1.024696305E-1,-4.367557913E-2
1.045244078E1,-1.527118147E-3,1.133121699E-1,-4.734066129E-2
1.046159244E1,-1.267508045E-2,1.227803007E-1,-5.283828825E-2
1.047074411E1,-2.321219631E-2,1.317902952E-1,-5.848862603E-2
1.047989578E1,-3.206948191E-2,1.511846930E-1,-5.909947306E-2
1.048904744E1,-3.970507160E-2,1.763821393E-1,-5.436540768E-2
1.049819911E1,-4.672981426E-2,2.011214644E-1,-4.703523964E-2
1.050735073E1,-5.558710173E-2,2.174616307E-1,-3.985778242E-2
1.051650239E1,-6.108472496E-2,2.125748396E-1,-3.191677108E-2
1.052565406E1,-6.459710002E-2,1.892099380E-1,-2.641914412E-2
1.053480573E1,-6.429167092E-2,1.530172378E-1,-1.847812906E-2
1.054395739E1,-6.139015034E-2,1.012479365E-1,-1.603474095E-2
1.055310906E1,-5.589252338E-2,4.703523964E-2,-1.832541823E-2
1.056226068E1,-5.222744122E-2,-1.572931744E-2,-2.382304333E-2
1.057141234E1,-4.306473210E-2,-8.322793990E-2,-3.283303976E-2
1.058056401E1,-1.969982497E-2,-1.525591016E-1,-3.756710514E-2
1.058971568E1,1.359135192E-2,-2.145601064E-1,-3.909422457E-2
1.059886734E1,5.650337040E-2,-2.463241518E-1,-4.550812021E-2
1.060801901E1,1.029277667E-1,-2.573194206E-1,-6.169557199E-2
1.061717062E1,1.404948682E-1,-2.591519356E-1,-8.399149776E-2
1.062632229E1,1.707318127E-1,-2.567085624E-1,-9.834641218E-2
1.063547396E1,1.910424829E-1,-2.489202619E-1,-9.819369763E-2
1.064462562E1,1.911951900E-1,-2.548760176E-1,-9.819369763E-2
1.065377729E1,1.716480851E-1,-2.706053257E-1,-1.026223376E-1
1.066292896E1,1.432436854E-1,-2.814478874E-1,-1.064401343E-1
1.067208057E1,1.136175916E-1,-2.712161839E-1,-1.073564067E-1
1.068123224E1,9.071081877E-2,-2.531961799E-1,-1.081199646E-1
1.069038390E1,8.628217876E-2,-2.394521236E-1,-1.111742035E-1
1.069953557E1,1.039967462E-1,-2.339545041E-1,-1.152974218E-1
1.070868724E1,1.441599578E-1,-2.392994165E-1,-1.157555580E-1
1.071783885E1,2.029540092E-1,-2.506000996E-1,-1.165191159E-1
1.072699052E1,2.725905776E-1,-2.620534599E-1,-1.238492802E-1
1.073614218E1,3.555130959E-1,-2.896943092E-1,-1.378987730E-1
1.074529385E1,4.509579837E-1,-3.402419090E-1,-1.543916464E-1
1.075444552E1,5.540384650E-1,-4.063661397E-1,-1.805053651E-1
1.076359718E1,6.471926570E-1,-4.810422063E-1,-2.145601064E-1
1.077274880E1,7.287407517E-1,-5.497625470E-1,-2.528907657E-1
1.078190047E1,7.999044657E-1,-6.264238358E-1,-2.903051674E-1
1.079105213E1,8.609892130E-1,-6.910209656E-1,-3.307738006E-1
1.080020380E1,9.196305275E-1,-7.446228266E-1,-3.736858070E-1
1.080935547E1,9.724688530E-1,-7.760814428E-1,-4.306473136E-1
1.081850713E1,1.055544019E0,-8.116632700E-1,-4.514161348E-1
1.082765880E1,1.142437100E0,-8.090671897E-1,-4.544703662E-1
1.083681041E1,1.216655016E0,-7.632536292E-1,-4.892886579E-1
1.084596208E1,1.290872931E0,-7.000309825E-1,-5.328115225E-1
1.085511375E1,1.363258362E0,-6.415423155E-1,-5.470137000E-1
1.086426541E1,1.431673288E0,-5.902311802E-1,-5.386145711E-1
1.087341708E1,1.495201349E0,-5.906893015E-1,-5.357130170E-1
1.088256875E1,1.546512604E0,-6.117635369E-1,-5.427377820E-1
1.089172036E1,1.586981177E0,-6.465818286E-1,-5.491516590E-1
1.090087203E1,1.613247633E0,-6.971294284E-1,-5.329642296E-1
1.091002370E1,1.646844268E0,-7.481352091E-1,-5.041016936E-1
1.091917536E1,1.687923670E0,-7.915053368E-1,-4.854708612E-1
1.092832703E1,1.732362866E0,-8.083036542E-1,-4.943281412E-1
1.093747870E1,1.753131628E0,-7.745543122E-1,-5.166240931E-1
1.094663031E1,1.726254344E0,-7.084301114E-1,-5.566345453E-1
1.095578198E1,1.666696787E0,-6.365028620E-1,-6.096255779E-1
1.096493364E1,1.586828470E0,-5.873296261E-1,-6.456655264E-1
1.097408531E1,1.507876515E0,-5.633538961E-1,-6.652126908E-1
1.098323698E1,1.464811683E0,-5.694623590E-1,-6.575770974E-1
1.099238864E1,1.472905397E0,-6.055023670E-1,-6.195518374E-1
1.100154031E1,1.532463074E0,-6.644490957E-1,-5.934380889E-1
1.101069193E1,1.601641536E0,-7.432484031E-1,-5.862606764E-1
1.101984359E1,1.647913218E0,-8.238802552E-1,-5.980194807E-1
1.102899526E1,1.661504507E0,-8.780929446E-1,-6.161921620E-1
1.103814693E1,1.641041160E0,-8.727480173E-1,-6.139014959E-1
1.104729859E1,1.584690452E0,-8.438854814E-1,-6.113054156E-1
1.105645026E1,1.509861708E0,-8.067765236E-1,-6.276455522E-1
1.106560187E1,1.459619522E0,-7.624900937E-1,-6.720846891E-1
1.107475354E1,1.449998736E0,-7.608102560E-1,-7.264500856E-1
1.108390521E1,1.456870675E0,-7.614210844E-1,-7.411104441E-1
1.109305687E1,1.477792263E0,-7.409577370E-1,-7.519529462E-1
1.110220854E1,1.510014415E0,-6.908682585E-1,-7.554653287E-1
1.111136021E1,1.557965875E0,-6.823163629E-1,-7.490514517E-1
1.112051182E1,1.622257590E0,-7.105680704E-1,-7.484406233E-1
1.112966349E1,1.687160134E0,-7.298097610E-1,-7.565343380E-1
1.113881515E1,1.729155898E0,-7.256865501E-1,-7.995990515E-1
1.114796682E1,1.720604062E0,-6.927008033E-1,-8.553388715E-1
1.115711849E1,1.701515079E0,-6.253548861E-1,-8.603783846E-1
1.116627015E1,1.702431321E0,-5.838172436E-1,-8.878664970E-1
1.117542177E1,1.667460322E0,-5.218162537E-1,-8.875610828E-1
1.118457344E1,1.623479247E0,-5.175403357E-1,-8.591566682E-1
1.119372510E1,1.561172843E0,-5.163186193E-1,-8.339592218E-1
1.120287666E1,1.488634825E0,-4.665345848E-1,-8.331956863E-1
1.121202838E1,1.423732281E0,-4.450022280E-1,-8.557969928E-1
1.122118010E1,1.374559045E0,-3.889569938E-1,-8.420529366E-1
1.123033172E1,1.343405843E0,-3.057290614E-1,-8.124268651E-1
1.123948338E1,1.328898191E0,-2.582356930E-1,-8.119687438E-1
1.124863505E1,1.294996142E0,-2.092151791E-1,-7.634063363E-1
1.125778672E1,1.264606595E0,-2.151709497E-1,-7.098045349E-1
1.126693838E1,1.255596519E0,-2.481566966E-1,-6.946860552E-1
1.127609005E1,1.241088867E0,-2.794626355E-1,-6.904101372E-1
1.128524166E1,1.181073189E0,-2.698417902E-1,-6.603258848E-1
1.129439333E1,1.091889501E0,-2.385358512E-1,-6.151232123E-1
1.130354500E1,1.009425044E0,-2.131856978E-1,-5.656445622E-1
1.131269666E1,9.339854717E-1,-1.659977436E-1,-4.776825607E-1
1.132184833E1,8.689302206E-1,-1.495048702E-1,-4.208737612E-1
1.133100000E1,8.072346449E-1,-1.554606259E-1,-3.865135908E-1
1.134015161E1,7.466080785E-1,-1.656923145E-1,-3.348970115E-1
1.134930328E1,6.797202826E-1,-1.481304616E-1,-2.732014358E-1
1.135845494E1,6.172611713E-1,-1.504211426E-1,-2.315111160E-1
1.136760661E1,5.609105229E-1,-1.473668963E-1,-1.896680743E-1
1.137675828E1,4.908157587E-1,-1.105633527E-1,-1.401894391E-1
1.138590994E1,4.312581718E-1,-8.338065445E-2,-1.021642014E-1
1.139506156E1,3.884988427E-1,-6.093201414E-2,-7.375980914E-2
1.140421323E1,3.593308926E-1,-6.154286116E-2,-3.924693540E-2
1.141336489E1,3.312319219E-1,-4.153761268E-2,-3.970507067E-3
1.142251656E1,2.930539846E-1,7.941014133E-3,3.237490356E-2
1.143166823E1,2.499892414E-1,4.474456236E-2,8.200624585E-2
1.144081989E1,2.073826492E-1,3.054236248E-2,1.372879148E-1
1.144997151E1,1.592784226E-1,1.206423342E-2,1.864611208E-1
1.145912318E1,1.006370857E-1,-1.328592747E-2,2.368560284E-1
1.146827484E1,3.176405653E-2,-5.650337040E-2,2.858765125E-1
1.147742651E1,-5.329642445E-2,-8.292251825E-2,3.457395434E-1
1.148657818E1,-1.363716573E-1,-6.902574003E-2,4.080459774E-1
1.149572984E1,-2.110477239E-1,-1.099525020E-2,4.636330605E-1
1.150488151E1,-2.739650011E-1,5.283828825E-2,5.027272701E-1
1.151403312E1,-2.985515893E-1,1.052184403E-1,5.111264586E-1
1.152318479E1,-1.953184158E-1,2.365505993E-1,4.622586668E-1
1.153241442E1,4.734066315E-3,3.877353072E-1,3.512371778E-1
1.154176146E1,1.843231618E-1,3.988832533E-1,1.705790907E-1
1.155108312E1,1.615691036E-1,1.566823274E-1,6.245913357E-2
1.156043083E1,8.536590636E-2,-1.817270555E-2,7.360709459E-2
1.156976547E1,9.025268257E-2,3.329117596E-2,1.365243644E-1
1.157910015E1,9.040539712E-2,1.125486046E-1,2.005106062E-1
1.158843484E1,5.650337320E-3,6.917845458E-2,2.556395829E-1
1.159776953E1,-1.152974218E-1,-1.878355257E-2,3.035911024E-1
1.160709120E1,-2.170034945E-1,-3.497100621E-2,3.377985358E-1
1.161643890E1,-2.961082160E-1,1.149920002E-1,3.597890437E-1
1.162577359E1,-3.594835997E-1,3.698680103E-1,3.828485310E-1
1.163509526E1,-4.046863019E-1,5.934380889E-1,4.220954478E-1
1.164444291E1,-4.437805414E-1,7.243121266E-1,4.729484916E-1
1.165377760E1,-4.798205197E-1,7.504258752E-1,5.166240931E-1
1.166311229E1,-4.973823726E-1,6.867450476E-1,5.636593103E-1
1.167244698E1,-4.992149174E-1,5.903838873E-1,6.149705052E-1
1.168178166E1,-4.902049303E-1,5.334223509E-1,6.548282504E-1
1.169111630E1,-4.744756222E-1,5.616740584E-1,6.578825116E-1
1.170045099E1,-4.703523815E-1,6.545228362E-1,6.572716236E-1
1.170978568E1,-4.796678126E-1,8.038749695E-1,6.375718117E-1
1.171912036E1,-4.618005157E-1,1.031568289E0,6.070294380E-1
1.172845505E1,-5.405998230E-1,1.309351087E0,6.068767309E-1
1.173778974E1,-7.605048418E-1,1.534600973E0,6.656708121E-1
1.174712442E1,-9.834640622E-1,1.683495045E0,7.707365155E-1
1.175645906E1,-1.183669329E0,1.792836666E0,9.335273504E-1
1.176570375E1,-1.334395885E0,1.712815762E0,1.194511771E0
1.177484265E1,-1.436407328E0,1.470920205E0,1.479777455E0
1.178400708E1,-1.590646267E0,1.322484374E0,1.658297539E0
1.179315875E1,-1.761836171E0,1.290414810E0,1.702431321E0
1.180229765E1,-1.821546555E0,1.311947227E0,1.662878990E0
1.181146208E1,-1.765501261E0,1.119072199E0,1.618134379E0
1.182061370E1,-1.679371834E0,7.452336550E-1,1.556591511E0
1.182975260E1,-1.597671032E0,3.483356535E-1,1.423884988E0
1.183891703E1,-1.493826985E0,-2.901524538E-3,1.228261113E0
1.184806870E1,-1.370435834E0,-3.100049794E-1,9.575030804E-1
1.185720760E1,-1.275143623E0,-5.286883116E-1,7.391251922E-1
1.186637203E1,-1.234827757E0,-5.821374655E-1,6.424586177E-1
1.187552364E1,-1.249793530E0,-4.816530645E-1,6.050441861E-1
1.188466260E1,-1.294232607E0,-2.635805905E-1,6.094728708E-1
1.189382698E1,-1.346765518E0,2.809897438E-2,6.070294380E-1
1.190297864E1,-1.394106150E0,2.950392365E-1,6.253548861E-1
1.191213031E1,-1.425717473E0,5.233433843E-1,6.279509664E-1
1.192128198E1,-1.436865449E0,6.733064055E-1,6.296308041E-1
1.193043364E1,-1.432131410E0,7.565343380E-1,6.265766025E-1
1.193958531E1,-1.406933904E0,7.907418013E-1,5.851916671E-1
1.194873692E1,-1.368145108E0,7.693621516E-1,5.030327439E-1
1.195788859E1,-1.336991906E0,7.594358325E-1,4.165978432E-1
1.196704026E1,-1.304464340E0,7.496622801E-1,3.545968235E-1
1.197619192E1,-1.274990916E0,7.175928354E-1,2.979407609E-1
1.198534359E1,-1.291331053E0,7.696675658E-1,2.464768738E-1
1.199449526E1,-1.309045672E0,7.455390692E-1,2.470877171E-1
1.200364692E1,-1.287207842E0,7.131641507E-1,2.741177082E-1
1.201279854E1,-1.258192658E0,6.981984377E-1,2.932066917E-1
1.202195021E1,-1.243532300E0,6.368082762E-1,2.982461751E-1
1.203110187E1,-1.225970507E0,5.378510356E-1,2.782409191E-1
1.204025354E1,-1.168856263E0,4.547757804E-1,2.391466945E-1
1.204940521E1,-1.124264359E0,3.607053161E-1,2.174616307E-1
1.205855687E1,-1.104411840E0,2.805316150E-1,1.945548505E-1
1.206770854E1,-1.101357579E0,1.569877416E-1,1.916533262E-1
1.207686015E1,-1.109756708E0,5.451811850E-2,1.965401024E-1
1.208601182E1,-1.113116384E0,7.482878864E-3,1.989834905E-1
1.209516349E1,-1.080130696E0,-3.451287001E-2,2.131856978E-1
1.210431515E1,-1.028361320E0,-2.657185495E-2,2.159345001E-1
1.211346682E1,-1.036302328E0,4.199574888E-2,2.183778882E-1
1.212261849E1,-1.083184958E0,1.776038408E-1,1.989834905E-1
1.213175739E1,-1.211462855E0,4.457657933E-1,1.142284349E-1
1.214092182E1,-1.306449533E0,6.552863717E-1,1.287360638E-1
1.215007344E1,-1.354248405E0,7.971556783E-1,1.995943487E-1
1.215922510E1,-1.360051394E0,9.604045749E-1,2.104368806E-1
1.216837677E1,-1.293927193E0,1.151599765E0,2.041756958E-1
1.217752844E1,-1.267202616E0,1.334854007E0,2.023431510E-1
1.218668010E1,-1.349819779E0,1.477639556E0,2.107423097E-1
1.219583177E1,-1.421441555E0,1.546359777E0,2.469350100E-1
1.220498344E1,-1.413805962E0,1.507265568E0,2.603736520E-1
1.221412234E1,-1.416554809E0,1.364174604E0,2.147128135E-1
1.222328672E1,-1.437934399E0,1.154806733E0,1.414111406E-1
1.223243838E1,-1.407697558E0,9.032903910E-1,5.818320066E-2
1.224157729E1,-1.324316859E0,6.288672686E-1,1.130067464E-2
1.225074172E1,-1.234064221E0,2.687727809E-1,-3.054236295E-3
1.225989338E1,-1.166565537E0,-5.711421743E-2,1.603474095E-2
1.226903229E1,-1.126707792E0,-2.599155009E-1,5.665608495E-2
1.227819666E1,-1.100746751E0,-3.573456407E-1,8.994726092E-2
1.228734833E1,-1.062416077E0,-3.946073353E-1,1.281252056E-1
1.229648724E1,-9.914051294E-1,-3.497100472E-1,1.640124917E-1
1.230565166E1,-9.303203821E-1,-2.188360244E-1,1.618745178E-1
1.231480333E1,-9.014578462E-1,-4.718795046E-2,1.235438585E-1
1.232394224E1,-8.973346353E-1,2.026485801E-1,7.330167294E-2
1.233310666E1,-9.321529269E-1,5.410579443E-1,3.374931216E-2
1.234225833E1,-1.041952729E0,9.113841057E-1,-9.468132630E-3
1.235141000E1,-1.198329568E0,1.193595529E0,-4.123219103E-2
1.236056166E1,-1.326607585E0,1.336839199E0,-3.069507517E-2
1.236971328E1,-1.363869190E0,1.330578089E0,3.252761811E-2
1.237885219E1,-1.274380088E0,1.136328578E0,1.279724985E-1
1.238801661E1,-1.042410851E0,7.899782062E-1,2.232646793E-1
1.239716828E1,-7.085828185E-1,4.340069890E-1,2.979407609E-1
1.240630719E1,-3.599417508E-1,1.670667231E-1,3.225273490E-1
1.241547161E1,-4.611896724E-2,-7.253811508E-2,2.431172132E-1
1.242462328E1,1.803526580E-1,-3.758237660E-1,9.040539712E-2
1.243377489E1,2.822114229E-1,-6.697940230E-1,-7.345438004E-2
1.244292656E1,3.043546379E-1,-8.267817497E-1,-1.727170646E-1
1.245207823E1,2.788517773E-1,-8.480086923E-1,-2.003578991E-1
1.246121713E1,1.928750277E-1,-8.102889061E-1,-2.241809368E-1
1.247038156E1,1.015533581E-1,-7.780666947E-1,-2.683146596E-1
1.247953323E1,9.498675168E-2,-7.698202729E-1,-3.190149665E-1
1.248867213E1,2.174616307E-1,-7.342383862E-1,-3.804051280E-1
1.249783656E1,4.422534108E-1,-6.029062271E-1,-4.680617154E-1
1.250698818E1,7.293516397E-1,-4.595098495E-1,-5.682406425E-1
1.251613984E1,1.043327093E0,-4.407263100E-1,-6.746807694E-1
1.252529151E1,1.365090966E0,-6.762079000E-1,-7.693621516E-1
1.253444318E1,1.725796223E0,-1.157250166E0,-8.273926377E-1
1.254359484E1,2.090471983E0,-1.651731014E0,-9.075663090E-1
1.255274651E1,2.414984703E0,-2.003578901E0,-9.972081780E-1
1.256189818E1,2.700097561E0,-2.180572033E0,-1.098303318E0
1.257103708E1,2.899844646E0,-2.093220949E0,-1.180615067E0
1.258020151E1,2.968870401E0,-1.824600816E0,-1.258498073E0
1.258935312E1,2.917253733E0,-1.586523056E0,-1.363411069E0
1.259850479E1,2.939244270E0,-1.504516840E0,-1.516733766E0
1.260765646E1,3.108143568E0,-1.373337388E0,-1.656006932E0
1.261680812E1,3.335836887E0,-1.094791055E0,-1.693726778E0
1.262594703E1,3.499543905E0,-7.777612805E-1,-1.595685720E0
1.263511146E1,3.496642351E0,-4.045335948E-1,-1.377307892E0
1.264426312E1,3.376763582E0,-3.906368315E-1,-1.177255392E0
1.265340203E1,3.244668007E0,-5.395308137E-1,-1.128082156E0
1.266256640E1,3.181292534E0,-5.774033666E-1,-1.222458124E0
1.267171807E1,3.204046488E0,-3.985778391E-1,-1.422205091E0
1.268085698E1,3.265589476E0,-1.603474095E-2,-1.627755284E0
1.269002140E1,3.319954872E0,2.958027720E-1,-1.730835676E0
1.269917307E1,3.328506708E0,3.002314270E-1,-1.706401825E0
1.270831198E1,3.159454823E0,1.782146841E-1,-1.552926421E0
1.271747640E1,2.803636312E0,3.665083647E-2,-1.372726560E0
1.272662802E1,2.502794027E0,-7.269082218E-2,-1.308282137E0
1.273576698E1,2.424299955E0,-1.621799469E-1,-1.363716483E0
1.274493135E1,2.464157820E0,-2.706053257E-1,-1.362800241E0
1.275408302E1,2.510276794E0,-3.312319219E-1,-1.346460104E0
1.276322193E1,2.465532303E0,-3.787252903E-1,-1.316223145E0
1.277238635E1,2.313584089E0,-4.486673176E-1,-1.244601250E0
1.278153802E1,2.149724245E0,-5.656445622E-1,-1.174811959E0
1.279068968E1,2.011061907E0,-6.613948941E-1,-1.107313395E0
1.279984135E1,1.870414257E0,-7.667660117E-1,-1.024543524E0
1.280899297E1,1.714037418E0,-9.171871543E-1,-8.924478292E-1
1.281814463E1,1.560562015E0,-1.034317136E0,-7.591304183E-1
1.282729630E1,1.403116107E0,-1.052947998E0,-6.704048514E-1
1.283644797E1,1.252847672E0,-9.912523627E-1,-5.580089688E-1
1.284559963E1,1.138008475E0,-9.446752667E-1,-4.524851143E-1
1.285475130E1,1.050962687E0,-8.915315866E-1,-3.878880143E-1
1.286390297E1,9.579612017E-1,-7.811209559E-1,-3.281776905E-1
1.287304187E1,8.211314082E-1,-6.087092757E-1,-2.449497581E-1
1.288220630E1,6.610894203E-1,-4.694361091E-1,-1.685938388E-1
1.289135791E1,5.054761171E-1,-3.845283389E-1,-1.068982705E-1
1.290050958E1,3.683409095E-1,-3.254288733E-1,-4.443913698E-2
1.290966125E1,2.310529798E-1,-2.379250079E-1,3.084778599E-2
1.291881291E1,9.208522737E-2,-1.041494608E-1,1.177408099E-1
1.292796458E1,-2.779355086E-2,3.115320951E-2,2.217375487E-1
1.293711625E1,-1.211004704E-1,1.276670843E-1,3.268032968E-1
1.294626791E1,-1.919587553E-1,1.582094431E-1,4.312581718E-1
1.295541958E1,-2.573194206E-1,1.704263836E-1,5.334223509E-1
1.296457125E1,-3.220692277E-1,2.105895877E-1,6.354338527E-1
1.297372286E1,-3.611634374E-1,2.597627938E-1,7.456917763E-1
1.298287453E1,-3.422271907E-1,2.901524603E-1,8.342646360E-1
1.299202620E1,-3.003841341E-1,3.381039500E-1,8.907679915E-1
1.300117786E1,-2.913741469E-1,4.442386627E-1,9.115368128E-1
1.301032953E1,-3.460449576E-1,6.219952106E-1,9.158127308E-1
1.301948120E1,-4.793623984E-1,7.748597264E-1,9.275715351E-1
1.302863286E1,-7.270609736E-1,8.160919547E-1,9.643751383E-1
1.303777177E1,-1.032789946E0,8.402203918E-1,1.054322362E0
1.304693614E1,-1.154501319E0,9.144383669E-1,1.145033240E0
1.305608781E1,-7.177455425E-1,1.062263370E0,1.183516622E0
1.306522677E1,-2.165453583E-1,1.106091619E0,1.208255887E0
1.307439114E1,-4.362976551E-1,1.134648800E0,1.207950473E0
1.308354281E1,-8.536590338E-1,1.379751205E0,1.175575495E0
1.309268172E1,-9.290986657E-1,1.582857966E0,1.375780702E0
1.310184614E1,-8.597674966E-1,7.479824424E-1,1.600419760E0
1.311099781E1,-1.032942772E0,7.498150319E-2,1.548955917E0
1.312013672E1,-1.332410574E0,1.873773932E-1,1.281099439E0
1.312930114E1,-1.387692213E0,3.520007432E-1,1.052184463E0
1.313845276E1,-1.219251156E0,3.318427801E-1,1.052184463E0
1.314759166E1,-1.142131686E0,1.191152185E-1,1.172063231E0
1.315675609E1,-1.258345366E0,-1.663031727E-1,1.274532795E0
1.316590776E1,-1.384485364E0,-3.269560039E-1,1.248724461E0
1.317504666E1,-1.389524817E0,-2.156290859E-1,1.045923233E0
1.318421109E1,-1.313779712E0,-2.764083818E-2,8.344173431E-1
1.319336276E1,-1.170383334E0,3.206948051E-3,6.644490957E-1
1.320250166E1,-1.034775257E0,-5.864133686E-2,5.048652887E-1
1.321166609E1,-9.801044464E-1,-1.149920002E-1,3.770454824E-1
1.322081771E1,-9.604045749E-1,-9.895725548E-2,3.338280320E-1
1.322995661E1,-9.315420985E-1,4.153761268E-2,3.547495604E-1
1.323912104E1,-9.411629438E-1,2.444916219E-1,4.540122151E-1
1.324827271E1,-9.465078115E-1,3.315373361E-1,5.302154422E-1
1.325742437E1,-9.465078115E-1,4.938700199E-1,5.966450572E-1
1.326657604E1,-9.814788103E-1,5.983248949E-1,6.641436815E-1
1.327572771E1,-1.017671585E0,6.255075932E-1,6.937697530E-1
1.328487937E1,-1.032179117E0,6.820109487E-1,6.795675755E-1
1.329403104E1,-1.045465112E0,6.804838181E-1,6.080984473E-1
1.330318265E1,-1.087460876E0,6.076403260E-1,4.721849263E-1
1.331233432E1,-1.133121610E0,5.980194807E-1,3.552076817E-1
1.332148599E1,-1.150836229E0,6.087092757E-1,2.996205688E-1
1.333063765E1,-1.109298587E0,5.972558856E-1,2.816005945E-1
1.333978932E1,-1.052642584E0,6.731536984E-1,2.648022771E-1
1.334894099E1,-1.030957460E0,7.304205894E-1,2.728960216E-1
1.335809265E1,-1.046839476E0,7.027797699E-1,2.959555089E-1
1.336724432E1,-1.078908920E0,6.244385839E-1,3.190149665E-1
1.337639599E1,-1.104564548E0,5.202891231E-1,3.329117596E-1
1.338554760E1,-1.101815701E0,5.183038712E-1,2.750339806E-1
1.339469927E1,-1.123500824E0,4.871506989E-1,2.052446753E-1
1.340385094E1,-1.181225896E0,3.452814221E-1,1.627907902E-1
1.341300260E1,-1.225817680E0,2.446443290E-1,1.551551968E-1
1.342215427E1,-1.206881523E0,1.962346882E-1,1.259872466E-1
1.343130594E1,-1.156486630E0,1.643179059E-1,7.635590434E-2
1.344045760E1,-1.209782958E0,2.272351831E-1,2.031067200E-2
1.344960927E1,-1.327065706E0,3.228327632E-1,2.626643144E-2
1.345876094E1,-1.341115117E0,3.429907262E-1,8.842013776E-2
1.346791260E1,-1.335006714E0,4.553866386E-1,1.505738497E-1
1.347706422E1,-1.343558550E0,5.760289431E-1,1.718007922E-1
1.348621588E1,-1.349819779E0,7.266027927E-1,1.692046970E-1
1.349536755E1,-1.364021897E0,9.465078115E-1,1.676775664E-1
1.350451922E1,-1.406781197E0,1.174353838E0,1.826433241E-1
1.351367088E1,-1.462979198E0,1.317750216E0,2.009687424E-1
1.352282255E1,-1.480540991E0,1.415943980E0,2.044811249E-1
1.353197422E1,-1.436101913E0,1.472141862E0,2.241809368E-1
1.354112588E1,-1.378224134E0,1.464964390E0,2.331909388E-1
1.355027755E1,-1.368297815E0,1.465117097E0,2.431172132E-1
1.355941646E1,-1.373184681E0,1.460230350E0,2.266243398E-1
1.356858088E1,-1.347376347E0,1.423274159E0,1.663031727E-1
1.357773250E1,-1.297439575E0,1.325996637E0,9.834641218E-2
1.358687146E1,-1.251626015E0,1.181836724E0,3.833066672E-2
1.359603583E1,-1.222763538E0,1.003927469E0,5.650337320E-3
1.360518750E1,-1.215433359E0,7.661551833E-1,-6.306997687E-2
1.361433916E1,-1.227192163E0,5.195255876E-1,-1.233911440E-1
1.362349083E1,-1.227497578E0,3.358132839E-1,-1.209477559E-1
1.363264250E1,-1.229482770E0,1.782146841E-1,-5.299099907E-2
1.364178140E1,-1.226886749E0,-9.468132630E-3,3.145863488E-2
1.365094583E1,-1.186570764E0,-1.531699449E-1,1.215586066E-1
1.366009750E1,-1.141062737E0,-2.197522968E-1,1.695101112E-1
1.366923640E1,-1.139993668E0,-2.113531530E-1,1.731752008E-1
1.367840078E1,-1.146407604E0,-1.714953631E-1,1.676775664E-1
1.368755245E1,-1.140451789E0,-7.223268598E-2,1.377460510E-1
1.369669135E1,-1.133579850E0,7.223268598E-2,1.041494608E-1
1.370585578E1,-1.100288630E0,2.168507725E-1,9.376505762E-2
1.371500745E1,-1.079519868E0,4.477510452E-1,1.108687744E-1
1.372415911E1,-1.074022174E0,6.543701291E-1,1.102579311E-1
1.373331078E1,-1.063485026E0,7.942541242E-1,9.239064902E-2
1.374246245E1,-9.868237376E-1,8.538117409E-1,5.864133686E-2
1.375160135E1,-7.828007340E-1,7.580614686E-1,-1.420219894E-2
1.376076578E1,-4.370612204E-1,5.094466209E-1,-8.002099395E-2
1.376991744E1,-1.740914769E-2,2.225011140E-1,-1.721062213E-1
1.377906906E1,3.872771561E-1,-3.909422457E-2,-3.156553209E-1
1.378822073E1,7.353073955E-1,-2.831276953E-1,-4.625640810E-1
1.379737239E1,9.883508682E-1,-4.651601911E-1,-6.077930331E-1
1.380652406E1,1.095554590E0,-5.277720094E-1,-7.762341499E-1
1.381567573E1,1.109451294E0,-4.790569544E-1,-9.520054460E-1
1.382482739E1,1.145949483E0,-3.182514310E-1,-1.149767280E0
1.383396630E1,1.247502804E0,-1.924168877E-2,-1.310420036E0
1.384313073E1,1.376238823E0,2.947337925E-1,-1.378834963E0
1.385228239E1,1.502684236E0,4.734066129E-1,-1.344474792E0
1.386142130E1,1.620730519E0,3.035911024E-1,-1.196344376E0
1.387058573E1,1.846438527E0,-3.700207174E-1,-9.596410394E-1
1.387973734E1,2.203478813E0,-1.310114622E0,-6.725428104E-1
1.388887630E1,2.620992899E0,-2.204089642E0,-4.185830951E-1
1.389804068E1,3.067369461E0,-2.733388662E0,-3.710896969E-1
1.390719234E1,3.520923615E0,-2.707427740E0,-5.431959033E-1
1.391633125E1,3.838106155E0,-2.292051554E0,-7.640172243E-1
1.392549568E1,3.943629980E0,-1.794974685E0,-9.810206890E-1
1.393464734E1,3.846657991E0,-1.309045672E0,-1.211768270E0
1.394378625E1,3.600791931E0,-1.011868477E0,-1.395175099E0
1.395295068E1,3.320718527E0,-1.081352353E0,-1.516733766E0
1.396210234E1,3.013614893E0,-1.259872437E0,-1.538266063E0
1.397124125E1,2.764236450E0,-1.342336893E0,-1.436712742E0
1.398040568E1,2.663599491E0,-1.244906664E0,-1.281862974E0
1.398955729E1,2.720713615E0,-1.005759954E0,-1.171757698E0
1.399870896E1,2.817533016E0,-6.739172339E-1,-1.110825777E0
1.400786062E1,2.907174826E0,-3.271087110E-1,-1.042105436E0
1.401701229E1,2.974826097E0,-8.063183725E-2,-9.481876493E-1
1.402616396E1,2.966274261E0,-5.803048983E-2,-8.664868474E-1
1.403531562E1,2.850976944E0,-2.081461996E-1,-8.238802552E-1
1.404446729E1,2.608928680E0,-3.964398801E-1,-8.009734750E-1
1.405360620E1,2.352983713E0,-5.668662786E-1,-8.179244995E-1
1.406277062E1,2.182404518E0,-7.082774043E-1,-8.550334573E-1
1.407192229E1,2.118723631E0,-7.901309133E-1,-9.261971712E-1
1.408106120E1,2.087723255E0,-6.734591126E-1,-1.006676316E0
1.409022557E1,2.080851078E0,-6.429167390E-1,-1.039051175E0
1.409937724E1,2.162857533E0,-8.005153537E-1,-9.869764447E-1
1.410852890E1,2.049850702E0,-8.214368224E-1,-9.219212532E-1
1.411768057E1,1.835137844E0,-8.113578558E-1,-8.898517489E-1
1.412683224E1,1.594464064E0,-7.224795818E-1,-8.414421082E-1
1.413598390E1,1.383874416E0,-6.633801460E-1,-7.521057129E-1
1.414513557E1,1.260177851E0,-6.552863717E-1,-6.394043565E-1
1.415428724E1,1.217265844E0,-6.449019909E-1,-5.572454333E-1
1.416343890E1,1.190083146E0,-6.168029904E-1,-4.763081372E-1
1.417259057E1,1.099677801E0,-5.389199853E-1,-3.889569938E-1
1.418174224E1,9.254335761E-1,-3.953709006E-1,-2.932066917E-1
1.419089390E1,7.252284288E-1,-2.519744933E-1,-2.006633282E-1
1.420004557E1,5.636593103E-1,-1.505738497E-1,-9.269607067E-2
1.420919718E1,4.549284875E-1,-1.081199646E-1,2.748812735E-2
1.421834885E1,3.475720882E-1,-6.032116711E-2,1.261399537E-1
1.422750052E1,2.186833173E-1,-4.031591862E-2,2.046338320E-1
1.423665218E1,8.490777016E-2,-4.092676565E-2,2.562504113E-1
1.424580385E1,-3.848337755E-2,-5.543438718E-2,2.822114229E-1
1.425495552E1,-1.363716573E-1,-8.322793990E-2,3.115321100E-1
1.426410718E1,-2.153236568E-1,-1.061347127E-1,3.487937748E-1
1.427325885E1,-2.864873707E-1,-7.543963939E-2,3.721587062E-1
1.428241052E1,-3.565820754E-1,4.321744293E-2,3.984251320E-1
1.429156218E1,-4.217900336E-1,2.043284029E-1,4.436278343E-1
1.430071385E1,-4.720322192E-1,3.497100472E-1,5.054761171E-1
1.430986552E1,-4.784461260E-1,4.251496792E-1,5.749599934E-1
1.431901719E1,-4.399627447E-1,4.249969721E-1,6.534538269E-1
1.432816880E1,-3.755183518E-1,4.181249440E-1,7.337802649E-1
1.433732047E1,-3.495573401E-1,4.419479966E-1,7.890619636E-1
1.434647213E1,-3.620797098E-1,6.135960817E-1,7.911999226E-1
1.435561104E1,-3.655920923E-1,9.765920639E-1,6.992673874E-1
1.436477547E1,-2.990097404E-1,1.260635972E0,5.425850749E-1
1.437392713E1,-1.973036677E-1,1.319430113E0,4.230117202E-1
1.438306604E1,-3.219164908E-1,1.304311633E0,4.776825607E-1
1.439223047E1,-5.506787896E-1,1.552010179E0,7.330167294E-1
1.440138213E1,-6.577298045E-1,1.569419265E0,1.059514523E0
1.441052104E1,-8.518264890E-1,1.247655511E0,1.302631736E0
1.441968547E1,-1.241547108E0,8.509102464E-1,1.430909753E0
1.442883708E1,-1.513984919E0,5.314370990E-1,1.521925926E0
1.443797604E1,-1.557202339E0,5.470137000E-1,1.502836943E0
1.444714041E1,-1.583163381E0,8.301414251E-1,1.353332043E0
1.445629208E1,-1.647455096E0,8.895463347E-1,1.289956689E0
1.446543099E1,-1.670819998E0,7.908945084E-1,1.360051394E0
1.447459541E1,-1.665780425E0,4.990622103E-1,1.481915474E0
1.448374708E1,-1.630351305E0,1.673721522E-1,1.535517335E0
1.449288599E1,-1.563158154E0,3.176405653E-2,1.512305140E0
1.450205041E1,-1.440225124E0,-3.038965166E-2,1.422815919E0
1.451120208E1,-1.277281642E0,-3.016058207E-1,1.211615562E0
1.452035375E1,-1.172215939E0,-5.465555787E-1,9.164236188E-1
1.452950541E1,-1.157097459E0,-6.453601122E-1,6.284091473E-1
1.453865708E1,-1.161526084E0,-6.523848772E-1,5.147915483E-1
1.454779599E1,-1.110214949E0,-5.896202922E-1,4.876088202E-1
1.455696036E1,-1.090362310E0,-3.168770075E-1,4.642439187E-1
1.456611203E1,-1.145644069E0,-3.802524135E-2,4.295783341E-1
1.457525094E1,-1.240630746E0,2.547233105E-1,4.170559645E-1
1.458441536E1,-1.348292589E0,5.816792846E-1,4.111002088E-1
1.459356703E1,-1.399451017E0,8.623636365E-1,4.155288339E-1
1.460271870E1,-1.405559540E0,1.139688253E0,4.030064642E-1
1.461187036E1,-1.406170368E0,1.359440565E0,3.594835997E-1
1.462102203E1,-1.411209822E0,1.528645277E0,3.513898849E-1
1.463016094E1,-1.417471051E0,1.663184404E0,3.799470067E-1
1.463932536E1,-1.443279386E0,1.681967974E0,4.402681589E-1
1.464847703E1,-1.467713237E0,1.580872655E0,4.847072959E-1
1.465761594E1,-1.470309377E0,1.454274654E0,4.598152637E-1
1.466678036E1,-1.465422630E0,1.267966151E0,4.214846194E-1
1.467593198E1,-1.448013425E0,9.165763259E-1,4.309527278E-1
1.468507094E1,-1.414111376E0,4.834856093E-1,4.450022280E-1
1.469423531E1,-1.368145108E0,1.110214889E-1,4.199574888E-1
1.470338698E1,-1.339893460E0,-1.327065676E-1,3.481829464E-1
1.471253864E1,-1.329967141E0,-3.739912212E-1,2.666348219E-1
1.472169031E1,-1.314085126E0,-5.285356045E-1,1.979145110E-1
1.473084198E1,-1.308129430E0,-4.953971207E-1,1.753131598E-1
1.473998088E1,-1.305380583E0,-4.049917459E-1,1.777565479E-1
1.474914531E1,-1.253764033E0,-3.556658030E-1,1.359135211E-1
1.475829698E1,-1.249640822E0,-9.681928903E-2,5.512896553E-2
1.476743588E1,-1.327218413E0,2.357870489E-1,7.696675509E-2
1.477660031E1,-1.398840189E0,5.839699507E-1,9.941539168E-2
1.478575198E1,-1.453358293E0,8.878664970E-1,1.403421611E-1
1.479490364E1,-1.491536260E0,1.150530815E0,1.649287641E-1
1.480405526E1,-1.544985414E0,1.374253631E0,2.199050188E-1
1.481320693E1,-1.611873150E0,1.523300409E0,2.956500649E-1
1.482235859E1,-1.659519315E0,1.641041160E0,3.703261614E-1
1.483151026E1,-1.690825224E0,1.743510842E0,4.140017331E-1
1.484066193E1,-1.655243397E0,1.701515079E0,4.191939235E-1
1.484980083E1,-1.615843654E0,1.638139606E0,3.907895386E-1
1.485896526E1,-1.584232330E0,1.563921690E0,3.691044450E-1
1.486811692E1,-1.509250879E0,1.403116107E0,3.220692277E-1
1.487725583E1,-1.408766508E0,1.217876673E0,2.447970361E-1
1.488642026E1,-1.294232607E0,1.010341406E0,1.528645307E-1
1.489557192E1,-1.215891480E0,7.637118101E-1,7.742489129E-2
1.490472359E1,-1.139535546E0,4.430169761E-1,-4.275931045E-3
1.491387526E1,-1.026376128E0,8.918370306E-2,-7.956285775E-2
1.492302692E1,-9.174925685E-1,-1.559187621E-1,-9.880454093E-2
1.493216583E1,-8.605310917E-1,-2.648022771E-1,-7.696675509E-2
1.494133026E1,-8.605310917E-1,-2.803788781E-1,-4.337015375E-2
1.495048192E1,-9.022213817E-1,-2.435753495E-1,-1.924168877E-2
1.495962083E1,-9.662076235E-1,-1.895153672E-1,-2.336490713E-2
1.496878521E1,-1.038593054E0,-1.450762302E-1,-3.924693540E-2
1.497793687E1,-1.103037477E0,-1.041494608E-1,-4.337015375E-2
1.498708854E1,-1.136633992E0,-1.863084175E-2,-2.718270384E-2
1.499624021E1,-1.141520858E0,1.079672500E-1,1.236965694E-2
1.500539187E1,-1.141215444E0,2.666348219E-1,5.192201585E-2
1.501453078E1,-1.139840961E0,4.463766217E-1,7.574506104E-2
1.502369521E1,-1.103037477E0,5.451811552E-1,7.101099193E-2
1.503284687E1,-9.790354371E-1,5.584670901E-1,1.695101149E-2
1.504198578E1,-7.371399403E-1,5.065450668E-1,-8.704573661E-2
1.505115021E1,-3.710896969E-1,3.561239541E-1,-2.076880634E-1
1.506030187E1,8.108997345E-2,1.598892659E-1,-3.222219348E-1
1.506945354E1,5.302154422E-1,2.886253223E-2,-4.459185004E-1
1.507860521E1,9.312366247E-1,-5.741964281E-2,-6.287145615E-1
1.508775687E1,1.283542752E0,-7.879929990E-2,-8.246437907E-1
1.509690854E1,1.519940734E0,-1.649287529E-2,-1.026986957E0
1.510606021E1,1.586217642E0,9.987352788E-2,-1.209172130E0
1.511521182E1,1.519940734E0,2.751866877E-1,-1.338671803E0
1.512435078E1,1.466186166E0,5.100574493E-1,-1.372268319E0
1.513351515E1,1.527118206E0,6.087092757E-1,-1.290567517E0
1.514266682E1,1.682578802E0,3.141281903E-1,-1.142131686E0
1.515180573E1,1.916838646E0,-4.245388508E-1,-9.011524320E-1
1.516097015E1,2.201035500E0,-1.406933904E0,-5.937435627E-1
1.517012182E1,2.578691721E0,-2.422620296E0,-3.405473530E-1
1.517926073E1,2.948865175E0,-2.841050625E0,-2.521272004E-1
1.518842515E1,3.163425207E0,-2.585563660E0,-3.478775024E-1
1.519757682E1,3.255357742E0,-2.091999054E0,-5.534276366E-1
1.520671573E1,3.318427801E0,-1.636154413E0,-7.957812548E-1
1.521588015E1,3.399975777E0,-1.324927688E0,-1.087918997E0
1.522503182E1,3.409902096E0,-1.202452779E0,-1.371962905E0
1.523417073E1,3.261924267E0,-1.253916740E0,-1.517650008E0
1.524333515E1,3.045684338E0,-1.535670042E0,-1.526201844E0
1.525248682E1,2.826390266E0,-1.738929391E0,-1.451983929E0
1.526162573E1,2.659628868E0,-1.684411287E0,-1.315765023E0
1.527079015E1,2.656269312E0,-1.584385037E0,-1.176033735E0
1.527994177E1,2.761945963E0,-1.401130915E0,-1.039967418E0
1.528909344E1,2.873730898E0,-1.098761559E0,-9.903361201E-1
1.529824510E1,2.959402323E0,-6.571189165E-1,-1.024390817E0
1.530739677E1,3.029344320E0,-2.719797492E-1,-1.024696231E0
1.531653573E1,3.007353783E0,-4.749337584E-2,-9.590302110E-1
1.532572666E1,2.827001095E0,3.787253052E-2,-9.017632604E-1
1.533485177E1,2.517912388E0,4.474456236E-2,-8.880192041E-1
1.534401734E1,2.195232391E0,3.802524135E-2,-9.397885203E-1
1.535315510E1,2.015948772E0,-4.123218823E-3,-1.025918007E0
1.536230677E1,1.944479585E0,-4.321744293E-2,-1.099677801E0
1.537144568E1,2.050766945E0,-2.690782249E-1,-1.109909415E0
1.538063672E1,2.220735312E0,-4.957025647E-1,-1.053406119E0
1.538976177E1,2.212488890E0,-4.953971207E-1,-9.672766328E-1
1.539891344E1,1.934400558E0,-3.955236077E-1,-8.851176500E-1
1.540806510E1,1.632336617E0,-4.239279926E-1,-8.060129285E-1
1.541721677E1,1.478555799E0,-5.570927262E-1,-7.411104441E-1
1.542636844E1,1.392884493E0,-6.045860648E-1,-6.610894203E-1
1.543552010E1,1.288276911E0,-5.796940327E-1,-5.854970813E-1
1.544467177E1,1.170230627E0,-5.754181147E-1,-5.173876286E-1
1.545382344E1,1.021947503E0,-5.325061083E-1,-3.907895386E-1
1.546297510E1,8.527427912E-1,-4.767662883E-1,-2.637332976E-1
1.547212677E1,7.227849960E-1,-4.598152637E-1,-2.049392611E-1
1.548126568E1,6.164975762E-1,-4.375193417E-1,-1.574458778E-1
1.549043010E1,4.972296655E-1,-3.677300513E-1,-1.058292910E-1
1.549958177E1,3.665083647E-1,-2.512109280E-1,-2.672456764E-2
1.550873344E1,2.473931462E-1,-1.427855492E-1,4.428642616E-2
1.551788505E1,1.363716573E-1,-6.856760383E-2,7.406523079E-2
1.552703672E1,3.649812192E-2,-7.330167107E-3,7.574506104E-2
1.553618838E1,-5.375456065E-2,8.063183725E-2,1.067455560E-1
1.554534005E1,-1.383569092E-1,2.006633282E-1,1.922641695E-1
1.555449172E1,-1.997470558E-1,3.293993771E-1,2.967190444E-1
1.556364338E1,-2.368560284E-1,4.256078303E-1,4.227063060E-1
1.557279505E1,-2.460187376E-1,4.369085133E-1,5.338805318E-1
1.558194672E1,-2.515163720E-1,3.768927455E-1,6.248967648E-1
1.559109838E1,-2.702999115E-1,3.706315756E-1,6.966713071E-1
1.560025005E1,-3.613161445E-1,5.532749295E-1,7.467607856E-1
1.560940172E1,-5.532749295E-1,8.327375054E-1,8.061656952E-1
1.561854062E1,-7.455390692E-1,1.016297102E0,8.400676847E-1
1.562770505E1,-6.777350307E-1,1.168245435E0,8.154810667E-1
1.563685672E1,-3.643703759E-1,1.225206852E0,7.656970620E-1
1.564599562E1,-3.217637837E-1,1.458703279E0,8.403730989E-1
1.565516005E1,-5.984776020E-1,2.194926977E0,1.057071209E0
1.566431172E1,-8.666395545E-1,2.167591572E0,1.422815919E0
1.567345062E1,-9.797990322E-1,9.362761378E-1,1.753895164E0
1.568261505E1,-1.313779712E0,9.987352788E-2,1.733889937E0
1.569176672E1,-1.762141585E0,2.702999115E-1,1.425870180E0
1.570090562E1,-1.608360887E0,5.260922313E-1,1.101204872E0
1.571007000E1,-1.104259133E0,1.536280811E-1,1.030499339E0
1.571922172E1,-7.850914598E-1,-4.068242610E-1,1.200009465E0
1.572836062E1,-8.780929446E-1,-8.457180262E-1,1.375475287E0
1.573752500E1,-1.149461865E0,-9.910996556E-1,1.421899676E0
1.574667666E1,-1.287971497E0,-7.721109390E-1,1.247350097E0
1.575581562E1,-1.245364904E0,-4.900522232E-1,9.121476412E-1
1.576498000E1,-1.078298092E0,-2.855710983E-1,5.963396430E-1
1.577413166E1,-9.910996556E-1,-1.595838517E-1,4.210264683E-1
1.578327057E1,-1.082115889E0,2.367033064E-2,4.404208660E-1
1.579243500E1,-1.182752967E0,2.136438340E-1,5.292991400E-1
1.580158666E1,-1.158624530E0,3.868190348E-1,4.419479966E-1
1.581073833E1,-1.149461865E0,7.626428008E-1,3.776563108E-1
1.581989000E1,-1.210852027E0,9.767447710E-1,4.430169761E-1
1.582904166E1,-1.266286373E0,1.014922738E0,5.317425132E-1
1.583818057E1,-1.249640822E0,1.013242841E0,5.325061083E-1
1.584734500E1,-1.270256877E0,1.053406119E0,4.969242513E-1
1.585649666E1,-1.281252146E0,1.001331329E0,4.497362971E-1
1.586563557E1,-1.238187432E0,9.723161459E-1,3.915531039E-1
1.587480000E1,-1.190235853E0,9.407047629E-1,3.289412558E-1
1.588395166E1,-1.150683522E0,8.803836107E-1,2.718270421E-1
1.589310333E1,-1.120446563E0,8.596147895E-1,1.860029846E-1
1.590225500E1,-1.148851037E0,8.218950033E-1,1.162136942E-1
1.591140666E1,-1.227955699E0,7.675296068E-1,1.267508119E-1
1.592055833E1,-1.268577099E0,7.243121266E-1,1.954711229E-1
1.592971000E1,-1.257123709E0,6.481089592E-1,2.864873707E-1
1.593886166E1,-1.230399132E0,5.763344169E-1,3.753656447E-1
1.594801333E1,-1.235133171E0,4.607315361E-1,4.187358022E-1
1.595716500E1,-1.265675545E0,3.713951409E-1,4.057552814E-1
1.596631666E1,-1.273158431E0,2.580829561E-1,3.692571819E-1
1.597546833E1,-1.244906664E0,1.673721522E-1,2.997733057E-1
1.598462000E1,-1.193442822E0,3.359660041E-3,2.509055138E-1
1.599377161E1,-1.133885264E0,-1.472141892E-1,2.141019702E-1
1.600292333E1,-1.112810969E0,-1.481304616E-1,1.653869003E-1
1.601207495E1,-1.179545999E0,-1.522536725E-1,2.021904439E-1
1.602122661E1,-1.274532795E0,-1.475196183E-1,2.254026383E-1
1.603037828E1,-1.299424887E0,-4.092676565E-2,2.006633282E-1
1.603952994E1,-1.264148355E0,1.006370857E-1,1.812689304E-1
1.604868161E1,-1.257429123E0,2.512109280E-1,1.605001241E-1
1.605783328E1,-1.312710762E0,4.301891923E-1,1.953184158E-1
1.606698494E1,-1.399298310E0,6.314633489E-1,2.495311052E-1
1.607613661E1,-1.440835953E0,8.015843034E-1,2.747285664E-1
1.608528828E1,-1.440683246E0,9.135220647E-1,2.661767006E-1
1.609443994E1,-1.383569002E0,1.023321867E0,2.664821148E-1
1.610359161E1,-1.331952453E0,1.096470833E0,2.869454920E-1
1.611274328E1,-1.347987175E0,1.178324342E0,2.629697323E-1
1.612189494E1,-1.399451017E0,1.262621284E0,2.808370292E-1
1.613104661E1,-1.431062460E0,1.347681761E0,2.970244884E-1
1.614019828E1,-1.452289343E0,1.322942495E0,2.884726226E-1
1.614934994E1,-1.430146098E0,1.264301062E0,2.397575527E-1
1.615850161E1,-1.384027123E0,1.183822036E0,1.508792788E-1
1.616764052E1,-1.370283127E0,1.002094984E0,7.238540053E-2
1.617680494E1,-1.357608080E0,7.030851841E-1,2.748812735E-2
1.618595661E1,-1.377918720E0,4.275930822E-1,1.298050396E-2
1.619509557E1,-1.395785928E0,1.473668963E-1,1.664558798E-2
1.620425994E1,-1.378682256E0,-1.827960461E-1,1.221694518E-2
1.621341161E1,-1.309198380E0,-4.358395338E-1,5.497625098E-3
1.622255052E1,-1.198329568E0,-5.729747415E-1,-3.054236295E-4
1.623171494E1,-1.101052165E0,-6.325323582E-1,1.450762246E-2
1.624086661E1,-1.043021679E0,-5.917583108E-1,6.673506647E-2
1.625000552E1,-1.006370902E0,-4.515688419E-1,1.462979168E-1
1.625916994E1,-9.689564705E-1,-2.084516287E-1,2.354816198E-1
1.626832161E1,-9.239065051E-1,9.926267713E-2,3.069507480E-1
1.627747328E1,-8.177717924E-1,3.802524209E-1,2.965663373E-1
1.628662494E1,-6.520794630E-1,5.813738704E-1,1.772984117E-1
1.629577661E1,-4.731011987E-1,5.916055441E-1,-3.512371704E-2
1.630492828E1,-2.629697323E-1,4.246915579E-1,-2.771719396E-1
1.631407994E1,1.068982668E-2,2.394521236E-1,-4.576773047E-1
1.632323161E1,3.391729295E-1,9.315420687E-2,-5.541911721E-1
1.633238328E1,6.658235192E-1,-1.435491070E-2,-6.152759194E-1
1.634153494E1,9.112313986E-1,-7.162184268E-2,-6.873558760E-1
1.635068661E1,1.012021184E0,-6.810946763E-2,-7.624900937E-1
1.635983828E1,9.642223716E-1,8.093725890E-3,-8.568660021E-1
1.636898995E1,8.519791961E-1,1.954711229E-1,-9.243646264E-1
1.637814161E1,7.701256871E-1,4.540122151E-1,-9.232956171E-1
1.638728057E1,7.965448499E-1,6.638382673E-1,-8.945857882E-1
1.639644500E1,9.491039515E-1,6.786513329E-1,-8.538117409E-1
1.640559666E1,1.190541267E0,3.877353072E-1,-7.744016051E-1
1.641473557E1,1.458397865E0,-2.765611112E-1,-6.558972597E-1
1.642390000E1,1.790698767E0,-1.159846187E0,-5.766398311E-1
1.643305161E1,2.236311913E0,-1.909966707E0,-5.790832043E-1
1.644219057E1,2.734763145E0,-2.254179001E0,-6.784985662E-1
1.645135500E1,3.152430058E0,-2.179961205E0,-8.130376935E-1
1.646050666E1,3.366379261E0,-1.850561738E0,-9.381086826E-1
1.646964557E1,3.360576153E0,-1.473210931E0,-1.075854778E0
1.647881000E1,3.226189852E0,-1.199704051E0,-1.190083146E0
1.648796166E1,3.068285704E0,-1.094638348E0,-1.254069448E0
1.649710057E1,2.907480240E0,-1.087766290E0,-1.259567022E0
1.650626500E1,2.733541489E0,-1.077076435E0,-1.252236843E0
1.651541666E1,2.581745863E0,-9.471186996E-1,-1.225817680E0
1.652455557E1,2.552425385E0,-7.539382577E-1,-1.117545009E0
1.653372000E1,2.721629858E0,-5.447230339E-1,-1.008356094E0
1.654287166E1,2.943214893E0,-2.585411072E-1,-9.446752667E-1
1.655202333E1,3.068591118E0,3.420744836E-2,-8.896990418E-1
1.656117500E1,3.052556515E0,1.259872466E-1,-8.098307252E-1
1.657032666E1,2.936648130E0,-5.085303262E-2,-7.043069005E-1
1.657947833E1,2.778285980E0,-3.249707520E-1,-6.044333577E-1
1.658863000E1,2.599002361E0,-5.577035546E-1,-5.749599934E-1
1.659778166E1,2.410250664E0,-7.777612805E-1,-6.726955175E-1
1.660692057E1,2.264716148E0,-9.672766328E-1,-8.377770185E-1
1.661608500E1,2.178739548E0,-1.013701081E0,-9.874345660E-1
1.662523666E1,2.179197550E0,-1.083337665E0,-1.071120620E0
1.663437557E1,2.226080179E0,-1.230857253E0,-1.063332319E0
1.664354000E1,2.253110170E0,-1.364021897E0,-1.050199151E0
1.665269166E1,2.198133945E0,-1.428466320E0,-1.041952729E0
1.666184333E1,2.013047218E0,-1.432131410E0,-9.779664874E-1
1.667099500E1,1.779398084E0,-1.342336893E0,-8.800781965E-1
1.668014666E1,1.562852740E0,-1.219556570E0,-8.066238165E-1
1.668929833E1,1.397160411E0,-1.179851532E0,-7.626428008E-1
1.669845000E1,1.289193153E0,-1.138772011E0,-6.730009913E-1
1.670760166E1,1.170994163E0,-1.000567794E0,-5.651864409E-1
1.671674062E1,9.776610136E-1,-7.672241330E-1,-4.860817194E-1
1.672590505E1,7.710419297E-1,-4.706578255E-1,-3.742966652E-1
1.673505672E1,6.164975762E-1,-2.513636351E-1,-2.851129472E-1
1.674420833E1,4.760027230E-1,-1.505738497E-1,-2.067717910E-1
1.675336005E1,3.298575282E-1,-3.894151375E-2,-9.926267713E-2
1.676251172E1,1.811162084E-1,1.281252056E-1,-3.054236295E-4
1.677166338E1,3.817795217E-2,2.910687327E-1,9.819369763E-2
1.678081505E1,-1.009425074E-1,4.092676640E-1,2.124221325E-1
1.678996672E1,-1.910424829E-1,4.492781460E-1,2.973299026E-1
1.679911838E1,-2.423536479E-1,4.989095032E-1,3.781144619E-1
1.680827005E1,-2.812951505E-1,5.624375939E-1,4.395045936E-1
1.681742172E1,-3.266505599E-1,6.438329816E-1,4.928010404E-1
1.682657338E1,-3.768927455E-1,7.067502737E-1,5.717530251E-1
1.683572505E1,-4.654656053E-1,7.070556879E-1,6.768187881E-1
1.684487672E1,-5.902311802E-1,6.974348426E-1,7.589777112E-1
1.685402838E1,-7.194253802E-1,8.070819378E-1,7.933378816E-1
1.686318005E1,-8.144121170E-1,1.032789946E0,7.730271816E-1
1.687233172E1,-8.254073858E-1,1.256818295E0,7.233958840E-1
1.688147062E1,-7.560762167E-1,1.330730796E0,6.157340407E-1
1.689063505E1,-6.015318632E-1,1.322789788E0,5.270084739E-1
1.689978672E1,-7.458444834E-1,1.486344099E0,6.493306160E-1
1.690892568E1,-1.126860499E0,1.963721275E0,9.985825419E-1
1.691809010E1,-1.357913494E0,2.233868361E0,1.446180940E0
1.692724172E1,-1.338060975E0,1.694032192E0,1.965095639E0
1.693638068E1,-1.364327312E0,3.585673273E-1,2.231577635E0
1.694554510E1,-1.743663549E0,-2.166980654E-1,2.023584366E0
1.695469677E1,-1.957918167E0,4.150707126E-1,1.528645277E0
1.696383568E1,-1.646691442E0,6.277982593E-1,1.079519868E0
1.697300010E1,-1.260025144E0,6.474980712E-2,8.793146014E-1
1.698215177E1,-1.120293856E0,-3.973561525E-1,8.603783846E-1
1.699129068E1,-1.196497083E0,-7.226322889E-1,9.219212532E-1
1.700045510E1,-1.286444306E0,-8.267817497E-1,9.872818589E-1
1.700960677E1,-1.304464340E0,-5.661026835E-1,9.148964882E-1
1.701874568E1,-1.295912504E0,-2.672456801E-1,7.388197780E-1
1.702791010E1,-1.291483760E0,-1.679829955E-1,5.227325559E-1
1.703706177E1,-1.301104665E0,-4.932591692E-2,3.484883606E-1
1.704620068E1,-1.302784443E0,1.630962193E-1,2.756448388E-1
1.705536510E1,-1.301562786E0,3.901786804E-1,2.754921019E-1
1.706451677E1,-1.256512761E0,7.102626562E-1,2.938175201E-1
1.707366844E1,-1.221694469E0,9.527690411E-1,3.141281903E-1
1.708282010E1,-1.233758807E0,1.051115394E0,3.419217467E-1
1.709197182E1,-1.267508030E0,1.088987947E0,3.643703759E-1
1.710111073E1,-1.267202616E0,1.116781473E0,3.637595475E-1
1.711027515E1,-1.230246425E0,1.145644069E0,3.339807391E-1
1.711942682E1,-1.167176366E0,1.158624530E0,2.538070381E-1
1.712857849E1,-1.160762548E0,1.216349602E0,1.989834905E-1
1.713773015E1,-1.279724956E0,1.221694469E0,2.194468826E-1
1.714688182E1,-1.410904408E0,1.168092728E0,2.906105816E-1
1.715602073E1,-1.459161401E0,1.097081661E0,3.342861533E-1
1.716518515E1,-1.418692708E0,9.813261032E-1,3.359659910E-1
1.717433682E1,-1.336075664E0,7.658497691E-1,3.549022675E-1
1.718348849E1,-1.273311138E0,5.749599934E-1,3.432961702E-1
1.719264015E1,-1.250251651E0,4.132381678E-1,2.922904193E-1
1.720179182E1,-1.261857748E0,1.666085869E-1,2.447970361E-1
1.721094349E1,-1.296523333E0,2.367033064E-2,2.422009408E-1
1.722009521E1,-1.301868200E0,-5.360184610E-2,2.263189107E-1
1.722924687E1,-1.292552829E0,-1.085781008E-1,1.739387512E-1
1.723839854E1,-1.295148849E0,-1.160609797E-1,1.006370857E-1
1.724755021E1,-1.343253136E0,-5.589252338E-2,9.177979827E-2
1.725670187E1,-1.398840189E0,1.527118147E-3,1.620272398E-1
1.726584078E1,-1.396549582E0,8.124268800E-2,1.980672181E-1
1.727500521E1,-1.354095697E0,1.565296054E-1,1.890572309E-1
1.728415687E1,-1.324774981E0,2.739650011E-1,1.606528312E-1
1.729329578E1,-1.344627500E0,4.384356141E-1,1.310267299E-1
1.730246021E1,-1.392426372E0,6.166502833E-1,1.311794519E-1
1.731161187E1,-1.431367874E0,8.299887180E-1,1.496575773E-1
1.732076354E1,-1.460841179E0,1.067608237E0,2.047865391E-1
1.732991526E1,-1.460383058E0,1.267355323E0,2.816005945E-1
1.733906692E1,-1.415180445E0,1.368755937E0,3.020639718E-1
1.734821859E1,-1.384027123E0,1.468782187E0,2.808370292E-1
1.735737026E1,-1.371046662E0,1.533379316E0,2.906105816E-1
1.736652192E1,-1.356386304E0,1.489398360E0,2.907632887E-1
1.737566083E1,-1.376086116E0,1.429535270E0,2.466295809E-1
1.738482526E1,-1.433658481E0,1.344932914E0,2.072299272E-1
1.739397692E1,-1.433658481E0,1.089140654E0,1.488940120E-1
1.740311588E1,-1.384179831E0,6.803311110E-1,7.009471953E-2
1.741228026E1,-1.325233102E0,1.992889196E-1,-4.886778072E-3
1.742143198E1,-1.252084136E0,-2.377723008E-1,-7.971556485E-2
1.743058364E1,-1.142895222E0,-5.066977739E-1,-1.472141892E-1
1.743973531E1,-1.018435121E0,-6.879667044E-1,-1.864611208E-1
1.744888698E1,-9.100096822E-1,-8.322793841E-1,-1.580567211E-1
1.745802588E1,-8.464815617E-1,-8.722898960E-1,-7.146912813E-2
1.746719031E1,-8.938222528E-1,-7.501204610E-1,6.658235192E-2
1.747634198E1,-1.022252917E0,-5.665608048E-1,1.976090819E-1
1.748548088E1,-1.140146375E0,-3.199312389E-1,2.892361879E-1
1.749464531E1,-1.192526579E0,1.389677543E-2,3.246653080E-1
1.750379703E1,-1.162595034E0,3.506263196E-1,2.654131353E-1
1.751293594E1,-1.042410851E0,5.653391480E-1,1.191152185E-1
1.752210036E1,-8.072346449E-1,6.024481058E-1,-4.550812021E-2
1.753125203E1,-4.738647640E-1,5.367820263E-1,-1.798945218E-1
1.754039094E1,-7.543963939E-2,4.785988331E-1,-2.800734639E-1
1.754955536E1,3.364241421E-1,3.926220834E-1,-4.042281806E-1
1.755870703E1,6.995728016E-1,2.557922900E-1,-5.688515306E-1
1.756785870E1,9.860602021E-1,1.386623234E-1,-7.359182239E-1
1.757701036E1,1.178018928E0,7.773031294E-2,-8.255600929E-1
1.758616203E1,1.213906169E0,7.650861889E-2,-8.747332692E-1
1.759531375E1,1.135870457E0,1.412584335E-1,-8.955020905E-1
1.760446541E1,1.059514523E0,3.255815804E-1,-8.851176500E-1
1.761361708E1,1.063026905E0,5.121954083E-1,-8.021951914E-1
1.762275599E1,1.166107416E0,4.625640810E-1,-7.177455425E-1
1.763192041E1,1.385248899E0,-1.282779220E-2,-6.481089592E-1
1.764107208E1,1.739082098E0,-8.787037730E-1,-4.880669713E-1
1.765021099E1,2.173547268E0,-1.879271626E0,-2.461714447E-1
1.765937541E1,2.587854385E0,-2.570597887E0,-1.357607991E-1
1.766852713E1,2.944436550E0,-2.845021009E0,-2.020377368E-1
1.767766604E1,3.224357367E0,-2.747285604E0,-4.201101959E-1
1.768683047E1,3.387148142E0,-2.400629759E0,-7.605048418E-1
1.769598213E1,3.463045835E0,-2.037175655E0,-1.107771516E0
1.770512104E1,3.482440233E0,-1.736180663E0,-1.349056125E0
1.771428547E1,3.414941549E0,-1.581178188E0,-1.444195628E0
1.772343713E1,3.236574173E0,-1.562700033E0,-1.433963895E0
1.773257609E1,2.998343706E0,-1.565907001E0,-1.369672298E0
1.774174052E1,2.849602461E0,-1.430298805E0,-1.291331053E0
1.775089218E1,2.841203213E0,-1.021336675E0,-1.181225896E0
1.776004385E1,2.978033066E0,-3.739912212E-1,-1.076923728E0
1.776919552E1,3.227258682E0,8.429691941E-2,-1.068219185E0
1.777834718E1,3.415705204E0,1.701209545E-1,-1.076618314E0
1.778749885E1,3.360270739E0,-6.719320081E-3,-9.993461370E-1
1.779665052E1,3.124636412E0,-3.159607351E-1,-9.147437811E-1
1.780580218E1,2.842119694E0,-6.441384554E-1,-8.822161555E-1
1.781494114E1,2.581287861E0,-7.861604095E-1,-8.887827396E-1
1.782410557E1,2.472404242E0,-8.564078808E-1,-9.219212532E-1
1.783325724E1,2.465837717E0,-9.294040799E-1,-9.652913809E-1
1.784239614E1,2.502030373E0,-1.010494113E0,-1.052337170E0
1.785156057E1,2.481414318E0,-1.073564053E0,-1.146407604E0
1.786071224E1,2.365353346E0,-1.162442327E0,-1.210088372E0
1.786985114E1,2.200271845E0,-1.306296825E0,-1.228261113E0
1.787901557E1,1.977617979E0,-1.289803982E0,-1.226886749E0
1.788816724E1,1.749161124E0,-1.192373872E0,-1.205965161E0
1.789731896E1,1.561936498E0,-1.092500329E0,-1.143200636E0
1.790647062E1,1.365854502E0,-9.935430884E-1,-1.029277682E0
1.791562229E1,1.156792045E0,-9.005415440E-1,-9.000834227E-1
1.792477396E1,9.791881442E-1,-8.171609044E-1,-7.530219555E-1
1.793392562E1,7.518002391E-1,-5.570927262E-1,-5.917583108E-1
1.794307729E1,5.103628635E-1,-2.350234836E-1,-4.147652984E-1
1.795222896E1,3.436015844E-1,1.481304597E-2,-2.634278834E-1
1.796138062E1,2.695363462E-1,1.621799469E-1,-1.382041872E-1
1.797053234E1,2.368560284E-1,3.150444627E-1,-1.221694518E-2
1.797968401E1,2.309002578E-1,4.755446017E-1,5.344913527E-2
1.798883568E1,1.995943487E-1,6.288672686E-1,1.288887709E-1
1.799798734E1,1.252236813E-1,6.911736727E-1,2.321219593E-1
1.800713901E1,4.611896724E-2,6.746807694E-1,3.402419090E-1
1.801629068E1,3.054236295E-4,6.007682681E-1,4.077405334E-1
1.802544234E1,-5.314370990E-2,5.960342288E-1,4.923428893E-1
1.803459401E1,-1.250709742E-1,6.687250137E-1,5.815265775E-1
1.804374573E1,-2.102841735E-1,7.223268747E-1,6.395570636E-1
1.805289739E1,-3.211529553E-1,7.162184119E-1,6.638382673E-1
1.806203630E1,-4.092676640E-1,8.034168482E-1,6.349757314E-1
1.807120073E1,-4.220954478E-1,1.035538793E0,5.273138881E-1
1.808035239E1,-3.669664860E-1,1.008661509E0,3.976615667E-1
1.808949130E1,-3.859027624E-1,9.301676750E-1,3.634541333E-1
1.809865573E1,-9.410101771E-1,1.096165419E0,5.137225389E-1
1.810780739E1,-1.650967479E0,1.307213187E0,8.194515705E-1
1.811694635E1,-1.899276853E0,1.778939962E0,1.255749226E0
1.812611078E1,-1.525896430E0,1.760003686E0,1.775732994E0
1.813526245E1,-1.064248681E0,6.558972597E-1,2.040535212E0
1.814440135E1,-1.148392797E0,-2.011214644E-1,2.030761719E0
1.815356578E1,-1.442515850E0,4.485146105E-1,1.852394342E0
1.816271745E1,-1.636307120E0,7.927270532E-1,1.495964885E0
1.817185640E1,-1.606375575E0,4.022429287E-1,1.176949978E0
1.818102083E1,-1.538418770E0,1.411057115E-1,1.103190184E0
1.819017250E1,-1.477181435E0,-1.827960461E-1,1.154501319E0
1.819931140E1,-1.324164152E0,-4.240806997E-1,1.180920482E0
1.820847583E1,-1.244448543E0,-3.822376728E-1,1.186876178E0
1.821762750E1,-1.329356313E0,-2.283041626E-1,1.142131686E0
1.822676640E1,-1.404032469E0,-1.740914732E-1,1.038440347E0
1.823593083E1,-1.386470556E0,-3.110739589E-1,6.697940230E-1
1.824508255E1,-1.373795509E0,-1.846285909E-1,3.235963285E-1
1.825422146E1,-1.414569497E0,-3.939964995E-2,1.907370538E-1
1.826338588E1,-1.433963895E0,1.010952219E-1,2.221956849E-1
1.827253755E1,-1.414569497E0,2.819060087E-1,3.712424338E-1
1.828168922E1,-1.351499557E0,4.001049399E-1,5.175403357E-1
1.829084088E1,-1.324774981E0,5.051707029E-1,5.706840754E-1
1.829999255E1,-1.422968745E0,7.895200849E-1,5.772506595E-1
1.830914422E1,-1.467102408E0,8.632798791E-1,5.065450668E-1
1.831829594E1,-1.395785928E0,8.881719112E-1,3.636068404E-1
1.832744760E1,-1.411820769E0,1.135565042E0,2.918322682E-1
1.833659927E1,-1.570335627E0,1.277587056E0,3.174878657E-1
1.834575094E1,-1.683036923E0,1.202605486E0,4.285093546E-1
1.835490260E1,-1.653868914E0,1.068677306E0,5.436540842E-1
1.836405427E1,-1.557049632E0,1.063943267E0,5.424323678E-1
1.837320594E1,-1.523147583E0,1.096928954E0,4.602734149E-1
1.838235760E1,-1.553842664E0,8.849649429E-1,4.132381678E-1
1.839149656E1,-1.548650503E0,5.920637250E-1,3.907895386E-1
1.840066099E1,-1.500393629E0,3.842229247E-1,3.559712470E-1
1.840981265E1,-1.453205585E0,2.028012872E-1,3.471139669E-1
1.841896432E1,-1.408766508E0,-3.206948051E-3,3.403946459E-1
1.842811599E1,-1.408766508E0,-1.197260618E-1,3.104631305E-1
1.843726765E1,-1.455954432E0,-1.505738497E-1,2.881672084E-1
1.844641932E1,-1.495964885E0,-1.488940120E-1,2.683146596E-1
1.845557104E1,-1.479624748E0,-1.108687744E-1,2.672456801E-1
1.846472271E1,-1.471683741E0,1.114796251E-1,2.658712566E-1
1.847386161E1,-1.464200854E0,3.162661791E-1,2.512109280E-1
1.848302604E1,-1.486038685E0,4.353813827E-1,2.044811249E-1
1.849217771E1,-1.500851750E0,6.702521443E-1,1.565296054E-1
1.850131666E1,-1.508334637E0,9.509364963E-1,1.557660550E-1
1.851048104E1,-1.464048147E0,1.085628271E0,1.846285909E-1
1.851963276E1,-1.397313118E0,1.187792540E0,2.309002578E-1
1.852878442E1,-1.324011445E0,1.311030984E0,2.849602401E-1
1.853793609E1,-1.261094213E0,1.482373595E0,3.286358118E-1
1.854708776E1,-1.228871942E0,1.610956907E0,3.385621011E-1
1.855623942E1,-1.220014691E0,1.671125412E0,3.196258247E-1
1.856539109E1,-1.194206357E0,1.677692056E0,2.996205688E-1
1.857454276E1,-1.139688253E0,1.587897420E0,2.666348219E-1
1.858368172E1,-1.092958450E0,1.425564766E0,2.115058601E-1
1.859284614E1,-1.075854778E0,1.204132676E0,1.055238619E-1
1.860199781E1,-1.153279662E0,9.625425935E-1,1.420219894E-2
1.861113672E1,-1.273311138E0,5.569399595E-1,-7.314895838E-2
1.862030114E1,-1.308434844E0,2.825168520E-2,-1.469087601E-1
1.862945281E1,-1.234827757E0,-4.491254389E-1,-2.162399292E-1
1.863860453E1,-1.085780978E0,-8.186880350E-1,-2.838912606E-1
1.864775620E1,-8.942803741E-1,-1.063026905E0,-3.141281903E-1
1.865690786E1,-7.159129977E-1,-1.173590302E0,-2.932066917E-1
1.866604677E1,-6.169557571E-1,-1.187639832E0,-2.241809368E-1
1.867521120E1,-5.943543911E-1,-1.131747246E0,-1.317902952E-1
1.868436286E1,-5.743491650E-1,-9.367342591E-1,-3.100049868E-2
1.869350182E1,-5.086830258E-1,-5.940489769E-1,4.672981426E-2
1.870266625E1,-4.317162931E-1,-1.647760421E-1,6.032116711E-2
1.871181791E1,-3.657447994E-1,2.875563502E-1,-2.748812735E-2
1.872096958E1,-2.744231224E-1,6.514685750E-1,-2.047865391E-1
1.873012125E1,-1.240019947E-1,8.118160367E-1,-4.083513916E-1
1.873927291E1,4.321744293E-2,8.090671897E-1,-5.873296261E-1
1.874841187E1,2.095206082E-1,7.556180358E-1,-7.479824424E-1
1.875757625E1,4.022429287E-1,7.872294188E-1,-9.029849768E-1
1.876672797E1,6.420004964E-1,9.101623893E-1,-1.005759954E0
1.877587963E1,8.690829277E-1,1.051268101E0,-1.102579355E0
1.878503130E1,1.010188699E0,1.150225401E0,-1.132205367E0
1.879418297E1,1.099066973E0,1.235591292E0,-1.060278177E0
1.880333463E1,1.161067963E0,1.237271070E0,-9.790354371E-1
1.881248630E1,1.250098944E0,9.358180165E-1,-8.793146014E-1
1.882163797E1,1.437018156E0,2.034121305E-1,-6.826218367E-1
1.883077693E1,1.743663549E0,-7.965448499E-1,-4.080459774E-1
1.883994135E1,2.171561956E0,-1.778329134E0,-1.522536725E-1
1.884909302E1,2.656880140E0,-2.390703440E0,-7.375980914E-2
1.885823193E1,3.077448606E0,-2.502488613E0,-1.672194302E-1
1.886739635E1,3.367753744E0,-2.354968786E0,-3.289412558E-1
1.887654802E1,3.414330721E0,-2.116280317E0,-6.236750484E-1
1.888568698E1,3.311861038E0,-1.935164094E0,-9.720106721E-1
1.889485140E1,3.141129255E0,-1.795585513E0,-1.281710267E0
1.890400307E1,2.935426474E0,-1.719993114E0,-1.467102408E0
1.891314198E1,2.769276142E0,-1.732515574E0,-1.504822254E0
1.892230640E1,2.688796997E0,-1.783063173E0,-1.460230350E0
1.893145807E1,2.682535648E0,-1.676164865E0,-1.388303161E0
1.894059703E1,2.767596245E0,-1.285833478E0,-1.318971992E0
1.894976140E1,2.913435936E0,-7.351546884E-1,-1.248113632E0
1.895891312E1,3.098522663E0,-3.023693860E-1,-1.142131686E0
1.896806479E1,3.201756001E0,7.437065244E-2,-1.002858520E0
1.897721646E1,3.191371441E0,1.995943487E-1,-8.657232523E-1
1.898636812E1,3.081418991E0,1.143811494E-1,-7.339329720E-1
1.899551979E1,2.875105381E0,-1.043021679E-1,-6.368082762E-1
1.900467151E1,2.694752693E0,-3.640649617E-1,-5.677825212E-1
1.901382318E1,2.580524206E0,-5.289937258E-1,-6.294780970E-1
1.902296208E1,2.500197887E0,-5.942016840E-1,-7.655443549E-1
1.903212651E1,2.453009844E0,-6.928535104E-1,-8.922951221E-1
1.904127818E1,2.345958948E0,-8.049439788E-1,-1.004080176E0
1.905041708E1,2.199050188E0,-9.561286569E-1,-1.077076435E0
1.905958151E1,2.028929234E0,-1.077229142E0,-1.124722481E0
1.906873323E1,1.824906230E0,-1.141978979E0,-1.121668339E0
1.907788489E1,1.615996480E0,-1.107771516E0,-1.059667230E0
1.908703656E1,1.433963895E0,-1.039051175E0,-9.999569654E-1
1.909618823E1,1.295607090E0,-9.799517393E-1,-9.039012194E-1
1.910533989E1,1.209019423E0,-9.313893318E-1,-7.762341499E-1
1.911449156E1,1.100135922E0,-8.099834919E-1,-6.678087711E-1
1.912364323E1,9.405520558E-1,-6.441384554E-1,-5.731274486E-1
1.913279494E1,7.944068313E-1,-5.320479870E-1,-4.955498278E-1
1.914194661E1,6.613948941E-1,-3.865135908E-1,-3.952181637E-1
1.915109828E1,5.354076028E-1,-2.133384049E-1,-2.790044844E-1
1.916024994E1,4.253024161E-1,-5.833591148E-2,-1.876828223E-1
1.916940161E1,3.295520842E-1,6.413896382E-2,-9.636115283E-2
1.917855328E1,2.223484069E-1,2.162399292E-1,8.551862091E-3
1.918770500E1,9.773556143E-2,3.900259733E-1,1.058292910E-1
1.919685666E1,-3.054236295E-3,5.143333673E-1,1.863084137E-1
1.920600833E1,-7.253811508E-2,5.975613594E-1,2.779355049E-1
1.921516000E1,-1.096470803E-1,6.310052276E-1,3.611634374E-1
1.922431166E1,-1.433963925E-1,7.020162344E-1,4.903576374E-1
1.923346333E1,-2.017323077E-1,8.110524416E-1,6.517740488E-1
1.924261500E1,-3.016058207E-1,8.867974877E-1,7.944068313E-1
1.925176666E1,-4.330907166E-1,9.127585292E-1,8.967237473E-1
1.926091838E1,-5.523586273E-1,9.213103652E-1,9.568922520E-1
1.927005729E1,-5.311316848E-1,9.856020808E-1,9.283351302E-1
1.927922172E1,-3.057290614E-1,1.094485521E0,7.496622801E-1
1.928837338E1,7.482878864E-3,1.109298587E0,5.412106514E-1
1.929751229E1,-3.907895386E-1,1.331036210E0,5.279247165E-1
1.930667672E1,-1.421136141E0,1.602557778E0,7.780666947E-1
1.931582844E1,-1.963721275E0,1.463284612E0,1.137092113E0
1.932496734E1,-1.611109614E0,1.445722699E0,1.596449256E0
1.933413177E1,-1.066691995E0,9.827005267E-1,1.943715930E0
1.934328344E1,-1.087460876E0,-2.522799075E-1,2.019613743E0
1.935242234E1,-1.372726560E0,-4.621059597E-1,1.986628056E0
1.936158677E1,-1.445111871E0,1.206423342E-1,1.851936221E0
1.937073849E1,-1.402810693E0,-7.513421029E-2,1.550635815E0
1.937987739E1,-1.356997132E0,-3.516952991E-1,1.222610831E0
1.938904182E1,-1.368908763E0,-5.128062963E-1,1.022405624E0
1.939819349E1,-1.377766013E0,-8.386932611E-1,1.021336675E0
1.940733239E1,-1.309198380E0,-9.533798695E-1,1.100746751E0
1.941649682E1,-1.258498073E0,-8.286142945E-1,1.097387075E0
1.942564849E1,-1.169161677E0,-6.939224601E-1,9.776610136E-1
1.943478744E1,-1.116170645E0,-5.409052372E-1,7.788302302E-1
1.944395187E1,-1.149461865E0,-3.790307343E-1,5.922164321E-1
1.945310354E1,-1.223374367E0,-2.037175596E-1,4.902049303E-1
1.946224244E1,-1.283084631E0,8.658760041E-2,4.511106908E-1
1.947140687E1,-1.297134161E0,4.144598544E-1,4.811949134E-1
1.948055854E1,-1.289956689E0,6.786513329E-1,5.384618640E-1
1.948969750E1,-1.270714998E0,8.119687438E-1,5.551074743E-1
1.949886192E1,-1.276518106E0,9.159654379E-1,5.164713860E-1
1.950801359E1,-1.312863469E0,1.088224411E0,4.720322192E-1
1.951715250E1,-1.355775476E0,1.225359559E0,4.112529159E-1
1.952631692E1,-1.413195133E0,1.394411564E0,3.582619131E-1
1.953546859E1,-1.475043416E0,1.494895935E0,3.545968235E-1
1.954460755E1,-1.506502032E0,1.475043416E0,3.831539452E-1
1.955377192E1,-1.511847019E0,1.373948216E0,4.094203711E-1
1.956292364E1,-1.493979692E0,1.149919987E0,4.280512035E-1
1.957206255E1,-1.452594757E0,9.232956171E-1,4.474456310E-1
1.958122698E1,-1.389524817E0,7.823426127E-1,4.169032574E-1
1.959037864E1,-1.352721214E0,5.584670901E-1,3.536805511E-1
1.959953031E1,-1.363105655E0,2.860292196E-1,3.118375242E-1
1.960868198E1,-1.395938754E0,1.224748790E-1,2.670929730E-1
1.961783364E1,-1.438698053E0,1.435491070E-2,2.252499312E-1
1.962698536E1,-1.452900171E0,-2.428117767E-2,1.916533262E-1
1.963613703E1,-1.421441555E0,-2.977880463E-2,1.844758689E-1
1.964528870E1,-1.404490590E0,4.581354442E-4,1.919587553E-1
1.965444036E1,-1.448929667E0,6.383354217E-2,2.270824611E-1
1.966359203E1,-1.479930162E0,7.574506104E-2,2.426590770E-1
1.967274370E1,-1.500393629E0,3.255815804E-1,1.568350345E-1
1.968188265E1,-1.568503022E0,5.870242119E-1,1.623326540E-1
1.969104708E1,-1.611873150E0,7.572978735E-1,2.883199155E-1
1.970019875E1,-1.600572586E0,8.956547976E-1,3.596363366E-1
1.970935041E1,-1.580719948E0,1.018587828E0,3.834593594E-1
1.971850208E1,-1.629740477E0,1.200620294E0,3.868190348E-1
1.972765375E1,-1.705790997E0,1.346460104E0,4.068242610E-1
1.973680547E1,-1.755727768E0,1.399603724E0,4.535540938E-1
1.974595713E1,-1.722131133E0,1.424343109E0,4.616478086E-1
1.975510880E1,-1.613858461E0,1.468324065E0,4.184303582E-1
1.976426047E1,-1.486496806E0,1.538724303E0,3.478775024E-1
1.977341213E1,-1.407392025E0,1.543000221E0,2.878617644E-1
1.978256380E1,-1.344627500E0,1.433047652E0,2.231119573E-1
1.979170276E1,-1.249640822E0,1.261857748E0,1.597365588E-1
1.980086718E1,-1.166412830E0,1.070204377E0,1.091889441E-1
1.981001885E1,-1.120141149E0,8.698465228E-1,5.222744122E-2
1.981915776E1,-1.098456025E0,6.111527085E-1,-8.399149403E-3
1.982832218E1,-1.106397152E0,2.909159958E-1,-6.444438547E-2
1.983747385E1,-1.133732557E0,-1.298050396E-2,-1.223221645E-1
1.984662552E1,-1.159235358E0,-2.368560284E-1,-1.693574041E-1
1.985577724E1,-1.172521353E0,-4.069769979E-1,-2.035648525E-1
1.986492890E1,-1.174048424E0,-4.853181541E-1,-2.316638231E-1
1.987406781E1,-1.178629756E0,-4.457657933E-1,-2.609844804E-1
1.988323224E1,-1.188556075E0,-3.106158376E-1,-2.319692522E-1
1.989238390E1,-1.177408099E0,-8.185353130E-2,-1.458397806E-1
1.990152286E1,-1.118308663E0,1.782146841E-1,-7.482878864E-2
1.991068729E1,-9.837695360E-1,3.736858070E-1,-9.040539712E-2
1.991983896E1,-7.414158583E-1,4.766135812E-1,-1.976090819E-1
1.992897786E1,-3.808632791E-1,4.880669713E-1,-3.513898849E-1
1.993814229E1,6.749862432E-2,4.431696832E-1,-4.740174711E-1
1.994729396E1,5.253286362E-1,3.683409095E-1,-5.476245880E-1
1.995644562E1,8.965710402E-1,3.040492237E-1,-6.181774139E-1
1.996559734E1,1.145185947E0,3.199312389E-1,-7.050704360E-1
1.997474901E1,1.319735527E0,3.988832533E-1,-7.533273697E-1
1.998388791E1,1.442057610E0,4.573718905E-1,-7.933378816E-1
1.999305234E1,1.529408813E0,4.193466306E-1,-8.391514421E-1
2.000220401E1,1.559034944E0,2.796153426E-1,-8.296833038E-1
2.001134297E1,1.587133884E0,-6.413896382E-2,-7.754706144E-1
2.002050734E1,1.716480851E0,-6.655181050E-1,-6.574243903E-1
2.002965906E1,1.972425818E0,-1.387081385E0,-5.245651007E-1
2.003879797E1,2.335116386E0,-2.015948772E0,-4.225535989E-1
2.004796239E1,2.729876518E0,-2.336185455E0,-3.628432751E-1
2.005711406E1,3.036674500E0,-2.324426651E0,-3.874298632E-1
2.006625297E1,3.181445122E0,-2.171714783E0,-5.386145711E-1
2.007541739E1,3.162050724E0,-2.071993828E0,-8.014315963E-1
2.008456911E1,3.089207411E0,-2.072146654E0,-1.095707297E0
2.009370802E1,3.044920921E0,-2.126053810E0,-1.302937150E0
2.010287245E1,3.030107737E0,-2.158276081E0,-1.369519591E0
2.011202411E1,2.983225346E0,-2.053210258E0,-1.297286868E0
2.012116307E1,2.921835184E0,-1.840788245E0,-1.195886254E0
2.013032745E1,2.843493938E0,-1.590493560E0,-1.122279167E0
2.013947916E1,2.800887346E0,-1.333021402E0,-1.057376623E0
2.014861807E1,2.820129156E0,-1.080436110E0,-1.034164429E0
2.015778250E1,2.901982546E0,-7.391251922E-1,-1.014159203E0
2.016693416E1,3.028122663E0,-3.753656447E-1,-9.726215601E-1
2.017608583E1,3.087680101E0,-8.292251825E-2,-9.486457705E-1
2.018523750E1,3.021097898E0,-7.345438004E-2,-9.541434050E-1
2.019438916E1,2.823488712E0,-1.600419879E-1,-9.657495022E-1
2.020354088E1,2.577775478E0,-2.246390730E-1,-9.142856598E-1
2.021269255E1,2.390550852E0,-3.184041381E-1,-9.126058221E-1
2.022184422E1,2.338017941E0,-4.169032574E-1,-9.585720897E-1
2.023098312E1,2.451788187E0,-5.656445622E-1,-1.007134438E0
2.024014755E1,2.493020296E0,-6.181774139E-1,-1.048977494E0
2.024929927E1,2.371309042E0,-6.288672686E-1,-1.120141149E0
2.025845094E1,2.175532579E0,-7.023216486E-1,-1.174506545E0
2.026760260E1,1.994416356E0,-7.635591030E-1,-1.180156946E0
2.027675427E1,1.836970448E0,-7.719582319E-1,-1.118919492E0
2.028590594E1,1.668834686E0,-7.669187188E-1,-1.011257648E0
2.029505760E1,1.503447771E0,-7.311841846E-1,-8.915315866E-1
2.030420927E1,1.370893955E0,-6.972821355E-1,-7.948650122E-1
2.031336099E1,1.257276416E0,-6.423059106E-1,-7.096518278E-1
2.032251265E1,1.124722481E0,-5.404471159E-1,-6.354338527E-1
2.033166432E1,9.797990322E-1,-4.187358022E-1,-5.725166202E-1
2.034080323E1,8.507575393E-1,-2.913741469E-1,-4.831801951E-1
2.034996765E1,7.273663878E-1,-1.750077456E-1,-3.991886973E-1
2.035911937E1,5.861079693E-1,-5.986303091E-2,-3.245126009E-1
2.036827104E1,4.370612204E-1,2.993151546E-2,-2.597627938E-1
2.037742271E1,3.026748300E-1,1.264453828E-1,-1.832541823E-1
2.038657437E1,1.924168915E-1,2.380777150E-1,-1.133121699E-1
2.039572604E1,9.636115283E-2,3.387148082E-1,-4.504998401E-2
2.040487771E1,3.512371797E-3,4.130854607E-1,3.619270027E-2
2.041402937E1,-9.193251282E-2,4.856235683E-1,1.246128380E-1
2.042318109E1,-1.791309565E-1,6.070294380E-1,2.331909388E-1
2.043233276E1,-2.334963679E-1,7.682931423E-1,3.590254784E-1
2.044148443E1,-2.768665254E-1,9.332218766E-1,5.027272701E-1
2.045063609E1,-3.642176688E-1,1.013090134E0,6.100836992E-1
2.045978776E1,-4.915793240E-1,1.032484531E0,6.739172339E-1
2.046893943E1,-5.572454333E-1,1.061957955E0,6.795675755E-1
2.047807838E1,-3.958290219E-1,1.241547108E0,6.128324866E-1
2.048724281E1,-1.226275861E-1,1.338977218E0,4.778352678E-1
2.049639448E1,-1.015533581E-1,1.443584800E0,3.967452943E-1
2.050553338E1,-8.260182142E-1,1.878660798E0,5.561764240E-1
2.051469781E1,-1.433963895E0,2.265021563E0,9.827005267E-1
2.052384948E1,-1.447555304E0,2.352220058E0,1.552926421E0
2.053298844E1,-1.189166903E0,1.495659471E0,2.007244110E0
2.054215286E1,-1.311030984E0,-1.269035190E-1,2.139492512E0
2.055130453E1,-1.723810911E0,-3.428380191E-1,1.946159363E0
2.056044344E1,-1.754505992E0,2.496838123E-1,1.543152928E0
2.056960786E1,-1.398687482E0,-1.252236869E-2,1.190388560E0
2.057875953E1,-1.106549859E0,-4.761554301E-1,9.991934299E-1
2.058789849E1,-1.099677801E0,-6.549809575E-1,9.072608948E-1
2.059706291E1,-1.245517612E0,-8.895463347E-1,9.191724062E-1
2.060621458E1,-1.305838704E0,-9.184088707E-1,9.669712186E-1
2.061535349E1,-1.328745484E0,-6.890357137E-1,9.208522439E-1
2.062451791E1,-1.306602240E0,-4.146125913E-1,8.157865405E-1
2.063366958E1,-1.255138397E0,-1.890572309E-1,6.872031689E-1
2.064280854E1,-1.249946237E0,-1.649287529E-2,5.740436912E-1
2.065197291E1,-1.310420036E0,1.638597846E-1,4.892886579E-1
2.066112463E1,-1.375627995E0,3.863608837E-1,4.178195298E-1
2.067027630E1,-1.362800241E0,6.339067221E-1,3.779617548E-1
2.067942797E1,-1.303089857E0,8.570187092E-1,3.770454824E-1
2.068857963E1,-1.276670814E0,9.813261032E-1,4.162923992E-1
2.069771854E1,-1.259108901E0,9.900307059E-1,4.718795121E-1
2.070688302E1,-1.249335408E0,9.124531150E-1,5.270084739E-1
2.071603468E1,-1.263537526E0,9.100096822E-1,5.341859460E-1
2.072518635E1,-1.319888234E0,9.419264793E-1,5.112791657E-1
2.073433802E1,-1.348598003E0,9.422318935E-1,4.585935771E-1
2.074348968E1,-1.349514365E0,9.286405444E-1,4.066715539E-1
2.075264135E1,-1.343711257E0,9.177979827E-1,3.877353072E-1
2.076179302E1,-1.365243673E0,9.118422270E-1,3.967452943E-1
2.077094474E1,-1.409682751E0,8.167027831E-1,4.239279926E-1
2.078009640E1,-1.435491085E0,8.118160367E-1,4.439332485E-1
2.078924807E1,-1.434574842E0,6.884248853E-1,4.856235683E-1
2.079839974E1,-1.427855492E0,4.523324072E-1,5.315898061E-1
2.080755140E1,-1.413042426E0,3.049654961E-1,5.457920432E-1
2.081670307E1,-1.355470061E0,1.685938388E-1,4.828747511E-1
2.082585479E1,-1.283390045E0,1.675248593E-1,3.515425920E-1
2.083500646E1,-1.226123214E0,1.252236813E-1,2.962609231E-1
2.084415812E1,-1.244906664E0,3.283303976E-2,2.651077211E-1
2.085330979E1,-1.299272060E0,7.727217674E-2,2.072299272E-1
2.086246146E1,-1.336839199E0,1.589729935E-1,1.739387512E-1
2.087161312E1,-1.322026134E0,2.379250079E-1,1.551551968E-1
2.088076484E1,-1.279114127E0,3.414636254E-1,1.571404636E-1
2.088991651E1,-1.254527569E0,4.760027230E-1,1.615691036E-1
2.089906818E1,-1.266439080E0,5.596888065E-1,1.736333370E-1
2.090821984E1,-1.302937150E0,6.494833231E-1,1.873773932E-1
2.091737151E1,-1.373948216E0,7.876875401E-1,2.287622988E-1
2.092652318E1,-1.486802220E0,9.775083065E-1,2.761029601E-1
2.093567489E1,-1.550941229E0,1.107618809E0,2.909159958E-1
2.094482656E1,-1.570488334E0,1.225054145E0,2.858765125E-1
2.095397823E1,-1.556286097E0,1.400214672E0,2.325800955E-1
2.096312989E1,-1.541167617E0,1.585148692E0,2.093679011E-1
2.097228156E1,-1.503447771E0,1.687770963E0,2.553341687E-1
2.098143323E1,-1.439614296E0,1.704874754E0,2.710634768E-1
2.099058495E1,-1.381125689E0,1.701362371E0,2.776300907E-1
2.099972385E1,-1.367534280E0,1.631573081E0,2.796153426E-1
2.100888828E1,-1.384485364E0,1.472905397E0,2.447970361E-1
2.101803994E1,-1.344627500E0,1.188861489E0,1.670667231E-1
2.102717885E1,-1.263232112E0,9.416210651E-1,1.085781008E-1
2.103634328E1,-1.225817680E0,7.601994276E-1,8.521319181E-2
2.104549500E1,-1.213600755E0,4.842491746E-1,9.223793447E-2
2.105464666E1,-1.199245930E0,1.745496094E-1,1.120904684E-1
2.106379833E1,-1.188861489E0,-8.567132801E-2,1.105633527E-1
2.107295000E1,-1.175575495E0,-2.527380586E-1,6.551336497E-2
2.108210166E1,-1.151294351E0,-4.518742561E-1,-1.359135192E-2
2.109125333E1,-1.141062737E0,-5.902311802E-1,-9.452861547E-2
2.110040505E1,-1.149003744E0,-5.819846988E-1,-1.386623234E-1
2.110954396E1,-1.167176366E0,-4.711159468E-1,-1.369825006E-1
2.111870838E1,-1.169925213E0,-3.106158376E-1,-1.023169160E-1
2.112786005E1,-1.123348117E0,-1.742441803E-1,-5.757235363E-2
2.113699896E1,-1.020420313E0,3.970507067E-3,4.581354442E-4
2.114616338E1,-9.231429100E-1,3.345915973E-1,7.299624383E-2
2.115531510E1,-8.851176500E-1,7.023216486E-1,9.743013978E-2
2.116446677E1,-8.822161555E-1,9.611681700E-1,3.863608837E-2
2.117361844E1,-8.342646360E-1,1.094027400E0,-8.322793990E-2
2.118277010E1,-7.119424939E-1,1.131747246E0,-2.142546773E-1
2.119190901E1,-5.121954083E-1,1.034469843E0,-3.251234591E-1
2.120107349E1,-2.257080674E-1,7.966975570E-1,-3.785725832E-1
2.121022515E1,1.412584335E-1,5.008947253E-1,-3.836120665E-1
2.121937682E1,5.273138881E-1,2.174616307E-1,-4.228590131E-1
2.122852849E1,8.660287261E-1,2.779355086E-2,-5.479300022E-1
2.123768015E1,1.142284393E0,-5.085303262E-2,-7.163711190E-1
2.124681911E1,1.359440565E0,-6.490252167E-2,-8.699992299E-1
2.125598349E1,1.498408318E0,-3.206948191E-2,-1.000873208E0
2.126513521E1,1.509403586E0,1.204896197E-1,-1.137703061E0
2.127427411E1,1.489245653E0,2.814478874E-1,-1.247350097E0
2.128343854E1,1.555827975E0,4.172086716E-1,-1.261552334E0
2.129259021E1,1.738623977E0,3.507790267E-1,-1.200467587E0
2.130172911E1,1.993805408E0,-1.889045089E-1,-1.077381849E0
2.131089359E1,2.312667608E0,-1.138313890E0,-8.666395545E-1
2.132004526E1,2.666806459E0,-2.148044348E0,-5.929799676E-1
2.132918416E1,2.944894552E0,-2.763014793E0,-3.335226178E-1
2.133834859E1,3.116848230E0,-2.810508251E0,-2.211267054E-1
2.134750026E1,3.277500868E0,-2.475000381E0,-3.252761662E-1
2.135663922E1,3.413414478E0,-2.102689028E0,-5.754181147E-1
2.136580359E1,3.461365938E0,-1.709914207E0,-9.332218766E-1
2.137495531E1,3.483203888E0,-1.459161401E0,-1.252694964E0
2.138409422E1,3.511302710E0,-1.294385314E0,-1.518260837E0
2.139325864E1,3.473277569E0,-1.174659252E0,-1.692657709E0
2.140241031E1,3.372640371E0,-1.059361815E0,-1.753895164E0
2.141154927E1,3.250318289E0,-9.081771374E-1,-1.706707239E0
2.142071364E1,3.114862919E0,-7.353073955E-1,-1.509250879E0
2.142986536E1,3.052403688E0,-4.555393457E-1,-1.301104665E0
2.143901703E1,3.085695028E0,-1.018587798E-1,-1.164885759E0
2.144816870E1,3.149375677E0,1.884463727E-1,-1.072495103E0
2.145732036E1,3.116695404E0,3.669664860E-1,-1.026986957E0
2.146647203E1,3.052556515E0,2.964136302E-1,-1.023779988E0
2.147562370E1,3.095773935E0,1.527118147E-4,-9.810206890E-1
2.148477541E1,3.181445122E0,-3.965925872E-1,-8.953493834E-1
2.149391432E1,3.107990742E0,-6.253548861E-1,-8.315158486E-1
2.150307875E1,3.017890930E0,-9.820896983E-1,-9.246700406E-1
2.151223041E1,2.879534006E0,-1.150988936E0,-1.093569279E0
2.152136937E1,2.717354059E0,-1.123653531E0,-1.285833478E0
2.153053380E1,2.616411448E0,-1.220167398E0,-1.412278891E0
2.153968547E1,2.580524206E0,-1.354553819E0,-1.394716978E0
2.154882437E1,2.479276419E0,-1.400520086E0,-1.269035220E0
2.155798880E1,2.297091007E0,-1.442363143E0,-1.098608851E0
2.156714047E1,2.070161343E0,-1.433047652E0,-9.304730892E-1
2.157629213E1,1.869650722E0,-1.371657491E0,-8.512156606E-1
2.158544385E1,1.729155898E0,-1.275907159E0,-7.968502641E-1
2.159459552E1,1.608055353E0,-1.191457629E0,-7.409577370E-1
2.160373443E1,1.491688967E0,-1.096928954E0,-6.899519563E-1
2.161289885E1,1.354401112E0,-1.013090134E0,-6.256603003E-1
2.162205052E1,1.218029380E0,-9.449806809E-1,-5.711421967E-1
2.163120219E1,1.072036982E0,-8.426637650E-1,-5.257867575E-1
2.164035390E1,8.909206986E-1,-6.769714952E-1,-4.599680007E-1
2.164950557E1,7.015580535E-1,-4.995203316E-1,-3.338280320E-1
2.165865724E1,5.621321797E-1,-3.868190348E-1,-2.402156889E-1
2.166780890E1,4.834856093E-1,-3.113794029E-1,-1.858502775E-1
2.167696057E1,4.170559645E-1,-2.678565085E-1,-1.375933439E-1
2.168611224E1,3.571929336E-1,-2.887780368E-1,-8.185353130E-2
2.169526396E1,3.216110766E-1,-3.350497186E-1,-2.214321308E-2
2.170441562E1,2.646495700E-1,-2.788517773E-1,6.047387794E-2
2.171355453E1,1.638597846E-1,-7.085828483E-2,1.359135211E-1
2.172271896E1,3.313846514E-2,2.044811249E-1,1.635543555E-1
2.173187062E1,-8.063183725E-2,4.424061179E-1,1.679829955E-1
2.174100958E1,-1.812689304E-1,6.545228362E-1,2.153236568E-1
2.175017401E1,-2.644968629E-1,8.107470274E-1,3.087832928E-1
2.175932568E1,-3.245126009E-1,8.562551737E-1,4.187358022E-1
2.176847734E1,-3.723114133E-1,7.669187188E-1,5.522059202E-1
2.177762901E1,-4.051444530E-1,5.686988235E-1,7.102626562E-1
2.178678068E1,-4.046863019E-1,3.848337829E-1,8.423583508E-1
2.179591963E1,-3.523061574E-1,2.771719396E-1,9.057337642E-1
2.180508406E1,-2.350234836E-1,1.989834905E-1,8.779402375E-1
2.181423573E1,-8.307522535E-2,8.735115826E-2,7.557707429E-1
2.182337463E1,6.474980712E-2,-7.650861889E-2,5.822901726E-1
2.183253906E1,1.977618039E-1,-2.673983872E-1,4.123218954E-1
2.184169073E1,3.344388604E-1,-4.741701782E-1,2.954973578E-1
2.185082968E1,3.874298632E-1,-6.791094542E-1,2.887780368E-1
2.185999411E1,2.454078794E-1,-8.379297256E-1,3.947600424E-1
2.186914578E1,-3.634541109E-2,-9.064973593E-1,5.326588154E-1
2.187828468E1,-1.910424829E-1,-8.273926377E-1,6.426113248E-1
2.188744911E1,-4.856235534E-2,-4.304946065E-1,7.160657048E-1
2.189660078E1,1.432436854E-1,2.095206082E-1,7.858549953E-1
2.190573974E1,6.704048812E-2,8.765658140E-1,8.287670016E-1
2.191490416E1,-2.935121059E-1,1.260788798E0,8.693883419E-1
2.192405583E1,-6.445965767E-1,1.233453274E0,9.866710305E-1
2.193319474E1,-8.597674966E-1,1.023474574E0,1.186112642E0
2.194235916E1,-9.507837296E-1,1.035538793E0,1.386928678E0
2.195151083E1,-1.014159203E0,9.350544214E-1,1.435491085E0
2.196064974E1,-1.318055630E0,6.894938350E-1,1.349819779E0
2.196981422E1,-1.678302884E0,7.059867382E-1,1.236202121E0
2.197896588E1,-1.718771458E0,7.130114436E-1,1.187028885E0
2.198810479E1,-1.498713732E0,5.537330508E-1,1.220472813E0
2.199726922E1,-1.346612811E0,3.455868363E-1,1.252236843E0
2.200642088E1,-1.354553819E0,2.202104330E-1,1.215586066E0
2.201557255E1,-1.361578584E0,1.618745178E-1,1.097081661E0
2.202472422E1,-1.325538516E0,1.992889196E-1,9.263498783E-1
2.203387594E1,-1.296981454E0,2.541124523E-1,7.774558663E-1
2.204302760E1,-1.284459114E0,2.707580328E-1,6.865923405E-1
2.205217927E1,-1.305380583E0,2.814478874E-1,6.778877378E-1
2.206133094E1,-1.346612811E0,3.205420971E-1,6.904101372E-1
2.207048260E1,-1.361731291E0,3.549022675E-1,7.036960125E-1
2.207963432E1,-1.364021897E0,4.068242610E-1,7.061394453E-1
2.208878599E1,-1.352721214E0,3.773508966E-1,7.122479081E-1
2.209793765E1,-1.343711257E0,3.460449576E-1,7.233958840E-1
2.210708932E1,-1.315612316E0,3.067980409E-1,6.917845011E-1
2.211624099E1,-1.270104170E0,2.037175596E-1,6.494833231E-1
2.212539265E1,-1.238187432E0,9.330692142E-2,6.223006248E-1
2.213454437E1,-1.219098449E0,4.077405483E-2,5.980194807E-1
2.214369604E1,-1.203063726E0,4.978405312E-2,5.493044257E-1
2.215284771E1,-1.206728816E0,8.444963396E-2,4.900522232E-1
2.216199937E1,-1.181225896E0,1.846285909E-1,3.723114133E-1
2.217115104E1,-1.086849928E0,2.719797492E-1,3.112266660E-1
2.218030271E1,-1.064095974E0,4.046863019E-1,3.211529553E-1
2.218945442E1,-1.228719234E0,6.117635369E-1,3.637595475E-1
2.219860609E1,-1.378529549E0,7.191199064E-1,4.329380095E-1
2.220775776E1,-1.392731786E0,8.422056437E-1,4.723376334E-1
2.221690942E1,-1.357608080E0,9.938485026E-1,4.321744442E-1
2.222606109E1,-1.338519096E0,1.093111157E0,3.694098890E-1
2.223521276E1,-1.330883503E0,1.051878929E0,4.164451063E-1
2.224436448E1,-1.311030984E0,1.002094984E0,5.015056133E-1
2.225351614E1,-1.290109396E0,9.836167693E-1,5.352548957E-1
2.226265505E1,-1.278808713E0,8.974873424E-1,5.305208564E-1
2.227181948E1,-1.267202616E0,6.985038519E-1,5.184566379E-1
2.228097114E1,-1.276059866E0,5.213581324E-1,5.198310018E-1
2.229011010E1,-1.318666577E0,3.266505599E-1,5.196782947E-1
2.229927453E1,-1.339740753E0,1.120904684E-1,5.257867575E-1
2.230842620E1,-1.313321590E0,-7.406523079E-2,5.291464329E-1
2.231757786E1,-1.264759302E0,-2.753393948E-1,5.100574493E-1
2.232672953E1,-1.213448048E0,-4.790569544E-1,4.746283293E-1
2.233588120E1,-1.168550849E0,-5.809157491E-1,4.358395338E-1
2.234502015E1,-1.136328578E0,-5.833591223E-1,4.001049399E-1
2.235418458E1,-1.120446563E0,-5.450284481E-1,3.574983478E-1
2.236333625E1,-1.097539783E0,-4.046863019E-1,3.049654961E-1
2.237247515E1,-1.058140159E0,-1.759240031E-1,2.739650011E-1
2.238163958E1,-1.021489382E0,8.322793990E-2,2.593046725E-1
2.239079125E1,-1.001178622E0,3.127537966E-1,2.269297540E-1
2.239994297E1,-9.901834130E-1,4.760027230E-1,1.988307834E-1
2.240909463E1,-9.575030804E-1,5.656445622E-1,1.629435122E-1
2.241824630E1,-8.735115528E-1,6.384881139E-1,1.128540337E-1
2.242739797E1,-7.739434838E-1,7.595885396E-1,5.115845799E-2
2.243654963E1,-7.069029808E-1,8.829796910E-1,-1.817270555E-2
2.244570130E1,-6.824691296E-1,9.417737722E-1,-8.078455180E-2
2.245484026E1,-6.933116317E-1,1.003622055E0,-1.371352077E-1
2.246400469E1,-7.348492742E-1,9.648332596E-1,-1.582094431E-1
2.247315635E1,-7.835643291E-1,7.582141757E-1,-1.247655526E-1
2.248230802E1,-8.095253110E-1,5.276193023E-1,-8.322793990E-2
2.249145969E1,-8.124268651E-1,3.594835997E-1,-6.184828654E-2
2.250061135E1,-7.718055248E-1,2.299840003E-1,-7.605048269E-2
2.250976307E1,-6.503996253E-1,1.800472289E-1,-1.123958975E-1
2.251891474E1,-4.708105326E-1,1.139230132E-1,-1.594311297E-1
2.252806640E1,-2.924431264E-1,2.672456764E-2,-1.892099380E-1
2.253720531E1,-1.766875684E-1,4.138490185E-2,-1.805053651E-1
2.254636974E1,-1.730224788E-1,8.078455180E-2,-1.243074164E-1
2.255552140E1,-2.464768738E-1,1.339282542E-1,-5.100574717E-2
2.256467312E1,-3.629959822E-1,2.472404242E-1,1.343864016E-2
2.257382479E1,-4.793623984E-1,3.610107303E-1,4.016320780E-2
2.258297646E1,-5.210527182E-1,4.097257853E-1,2.443389036E-2
2.259211536E1,-4.590517282E-1,3.735330999E-1,-3.206948051E-3
2.260127979E1,-3.397837877E-1,2.773246467E-1,-1.023169141E-2
2.261043146E1,-2.255553454E-1,1.733279079E-1,9.009997360E-3
2.261957041E1,-1.737860441E-1,9.162709117E-2,4.672981426E-2
2.262873484E1,-1.863084137E-1,8.994726092E-2,8.139539510E-2
2.263788651E1,-2.504473627E-1,8.567132801E-2,1.035386100E-1
2.264702541E1,-3.432961702E-1,-4.275931045E-3,1.091889441E-1
2.265618984E1,-4.456130862E-1,-1.472141892E-1,1.059819981E-1
2.266534156E1,-5.407525301E-1,-2.678565085E-1,1.067455560E-1
2.267448047E1,-6.013791561E-1,-3.136700690E-1,1.276670843E-1
2.268364489E1,-6.131379604E-1,-3.292466700E-1,1.556133330E-1
2.269279656E1,-5.772506595E-1,-3.495573401E-1,1.754658818E-1
2.270193547E1,-5.242596865E-1,-3.610107303E-1,1.910424829E-1
2.271109989E1,-4.894413650E-1,-3.281776905E-1,2.145601064E-1
2.272025161E1,-4.978405237E-1,-2.347180545E-1,2.565558553E-1
2.272939052E1,-5.552601814E-1,-9.483403713E-2,2.964136302E-1
2.273855494E1,-6.252021790E-1,6.536065787E-2,3.043546379E-1
2.274770661E1,-6.731536984E-1,2.110477239E-1,2.683146596E-1
2.275685828E1,-6.838434935E-1,3.199312389E-1,2.139492482E-1
2.276601000E1,-6.627692580E-1,4.081986845E-1,1.559187621E-1
2.277516166E1,-6.192464232E-1,4.695888162E-1,1.030804738E-1
2.278430057E1,-5.618267655E-1,4.683671296E-1,6.627693027E-2
2.279346500E1,-4.958552718E-1,4.080459774E-1,5.772506446E-2
2.280261666E1,-4.074351192E-1,2.987042964E-1,6.994201243E-2
2.281175562E1,-3.096995652E-1,1.656923145E-1,8.903098851E-2
2.282092005E1,-2.107423097E-1,6.887302548E-2,1.044548824E-1
2.283007172E1,-1.284306347E-1,2.748812735E-2,1.056765765E-1
2.283922338E1,-9.132166207E-2,1.603474095E-2,9.620844573E-2
2.284837505E1,-1.006370857E-1,2.855710872E-2,7.956285775E-2
2.285752672E1,-1.378987730E-1,5.680879578E-2,5.971032009E-2
2.286667838E1,-1.820324808E-1,1.127013192E-1,5.390727147E-2
2.287583010E1,-2.171562016E-1,1.875301152E-1,6.459710002E-2
2.288498177E1,-2.368560284E-1,2.428117841E-1,6.627693027E-2
2.289413344E1,-2.426590770E-1,2.783936262E-1,5.528167635E-2
2.290328510E1,-2.386885732E-1,3.187095523E-1,4.856235534E-2
2.291243677E1,-2.383831441E-1,3.549022675E-1,5.039490014E-2
2.292158844E1,-2.341072112E-1,3.591781855E-1,5.528167635E-2
2.293074015E1,-2.250972092E-1,3.103103936E-1,6.688777357E-2
2.293989182E1,-2.179197669E-1,2.489202619E-1,7.498150319E-2
2.294904349E1,-2.254026383E-1,1.928750277E-1,7.253811508E-2
2.295819515E1,-2.451024652E-1,1.397313178E-1,6.261184067E-2
2.296734682E1,-2.728960216E-1,7.284353673E-2,5.024218559E-2
2.297649854E1,-2.886253297E-1,-2.428117767E-2,3.680354729E-2
2.298565021E1,-2.770192325E-1,-1.418692768E-1,2.412846684E-2
2.299480187E1,-2.360924631E-1,-2.333436459E-1,1.542389300E-2
2.300395354E1,-1.716480851E-1,-2.706053257E-1,7.330167107E-3
2.301310521E1,-9.101624042E-2,-2.519744933E-1,3.665083554E-3
2.302225687E1,-1.313321572E-2,-1.933331639E-1,-1.374406274E-3
2.303140859E1,3.787253052E-2,-1.137702987E-1,-1.695101149E-2
2.304056026E1,5.864133686E-2,-1.557660475E-2,-3.878879920E-2
2.304971192E1,7.024743408E-2,8.139539510E-2,-5.283828825E-2
2.305886359E1,8.215895295E-2,1.333174109E-1,-4.917320609E-2
2.306801526E1,7.849387079E-2,1.272089481E-1,-4.184303805E-2
2.307716698E1,6.872031838E-2,9.773556143E-2,-4.199574888E-2
2.308631864E1,9.437590092E-2,7.116370648E-2,-4.428642616E-2
2.309547031E1,1.516428292E-1,6.047387794E-2,-3.710897267E-2
2.310462198E1,1.991362125E-1,5.879404768E-2,-2.031067200E-2
2.311377364E1,2.015796006E-1,4.917320609E-2,-1.282779220E-2
2.312292531E1,1.557660550E-1,7.391251624E-2,-1.634016447E-2
2.313207703E1,8.689302206E-2,1.322484314E-1,-2.229592577E-2
2.314122870E1,4.046862945E-2,1.615691036E-1,-2.214321308E-2
2.315038036E1,3.252761811E-2,1.398840249E-1,-9.315420873E-3
2.315953203E1,4.932591692E-2,1.105633527E-1,1.038440317E-2
2.316868370E1,6.856760383E-2,9.254335612E-2,2.825168520E-2
2.317783541E1,7.605048269E-2,7.574506104E-2,3.878879920E-2
2.318698708E1,6.917845458E-2,7.818844914E-2,3.863608837E-2
2.319613875E1,3.955236077E-2,8.887827396E-2,3.115320951E-2
2.320529041E1,-3.359660041E-3,7.742489129E-2,2.412846684E-2
2.321444208E1,-4.245388508E-2,4.535540938E-2,1.832541823E-2
2.322359375E1,-6.398624927E-2,2.244863659E-2,1.817270555E-2
2.323274547E1,-7.238540053E-2,1.221694518E-3,1.511846948E-2
2.324189713E1,-5.986303091E-2,-1.435491070E-2,7.941014133E-3
2.325104880E1,-2.199050039E-2,-4.627167806E-2,2.596100792E-3
2.326020047E1,2.764083818E-2,-8.414421231E-2,-1.832541777E-3
2.326935213E1,7.482878864E-2,-1.117850468E-1,-7.024743594E-3
2.327850385E1,1.070509851E-1,-1.298050433E-1,-9.773556143E-3
2.328765552E1,1.181989461E-1,-1.418692768E-1,-6.566607859E-3
2.329680719E1,1.177408099E-1,-1.533226669E-1,-1.068982761E-3
2.330595885E1,1.116323397E-1,-1.750077456E-1,5.650337320E-3
2.331511052E1,1.139230132E-1,-2.195995897E-1,1.114796288E-2
2.332426219E1,1.291942000E-1,-2.648022771E-1,1.313321572E-2
2.333341390E1,1.565296054E-1,-2.996205688E-1,5.955760833E-3
2.334256557E1,1.960819662E-1,-3.032856584E-1,-7.788302377E-3
2.335171724E1,2.554868758E-1,-2.509055138E-1,-2.947338112E-2
2.336086890E1,3.213056624E-1,-1.598892659E-1,-5.039490014E-2
2.337002057E1,3.477247953E-1,-7.375980914E-2,-6.368082762E-2
2.337917229E1,3.101576865E-1,2.137965523E-3,-7.131642103E-2
2.338832396E1,2.350234836E-1,5.573981255E-2,-6.459710002E-2
2.339747562E1,1.685938388E-1,4.535540938E-2,-4.672981426E-2
2.340662729E1,1.408002973E-1,-2.748812735E-2,-2.550287358E-2
2.341577896E1,1.554606259E-1,-1.032331884E-1,-7.635590620E-3
2.342493062E1,1.811162084E-1,-1.453816444E-1,3.512371797E-3
2.343408234E1,2.015796006E-1,-1.663031727E-1,1.710372418E-2