"Time (s)","Gyroscope x (rad/s)","Gyroscope y (rad/s)","Gyroscope z (rad/s)"
8.416879888E0,1.404948719E-2,2.641914412E-2,-2.275406010E-2
8.426031242E0,1.588202827E-2,3.069507517E-2,-1.908897609E-2
8.435182596E0,1.649287529E-2,2.351761982E-2,-1.542389300E-2
8.444333950E0,1.725643501E-2,1.374406368E-2,-1.236965694E-2
8.453485356E0,1.985253580E-2,4.123218823E-3,-1.282779220E-2
8.462636658E0,2.412846684E-2,2.901524538E-3,-1.527118124E-2
8.471788013E0,3.023693897E-2,6.566607859E-3,-2.015795931E-2
8.480939367E0,2.718270384E-2,1.130067464E-2,-2.565558441E-2
8.490090721E0,2.168507688E-2,8.246437646E-3,-2.993151546E-2
8.499242075E0,1.985253580E-2,1.374406368E-2,-3.237490356E-2
8.508393481E0,1.969982497E-2,1.496575773E-2,-3.115320951E-2
8.517544835E0,1.908897609E-2,1.191152167E-2,-2.580829710E-2
8.526696190E0,1.969982497E-2,1.068982668E-2,-2.015795931E-2
8.535847544E0,1.725643501E-2,1.740914769E-2,-1.420219894E-2
8.544998898E0,1.099525020E-2,2.947338112E-2,-1.420219894E-2
8.554150252E0,5.344913341E-3,4.337015375E-2,-1.420219894E-2
8.563301606E0,3.359660041E-3,5.299099907E-2,-1.664558798E-2
8.572452960E0,2.748812549E-3,5.222744122E-2,-2.275406010E-2
8.581604315E0,5.955760833E-3,4.627167806E-2,-2.825168520E-2
8.590755669E0,1.695101149E-2,4.688252881E-2,-2.947338112E-2
8.599907023E0,2.443389036E-2,4.199574888E-2,-3.298575059E-2
8.609058377E0,2.702999115E-2,3.481829539E-2,-3.420744836E-2
8.618209731E0,2.275406010E-2,3.115320951E-2,-3.359659761E-2
8.627361085E0,1.282779220E-2,2.932066843E-2,-3.069507517E-2
8.636512440E0,5.497625098E-3,3.542914242E-2,-2.580829710E-2
8.645663794E0,2.901524538E-3,3.909422457E-2,-2.153236605E-2
8.654815148E0,4.123218823E-3,4.092676565E-2,-2.031067200E-2
8.663966502E0,7.788302377E-3,3.603998944E-2,-2.031067200E-2
8.673117856E0,9.773556143E-3,2.825168520E-2,-2.214321308E-2
8.682269210E0,1.298050396E-2,2.397575416E-2,-2.580829710E-2
8.691420565E0,1.603474095E-2,2.336490713E-2,-3.069507517E-2
8.700571919E0,1.664558798E-2,2.932066843E-2,-3.252761811E-2
8.709723273E0,1.466033421E-2,3.481829539E-2,-3.313846514E-2
8.718874627E0,1.221694518E-2,3.603998944E-2,-3.313846514E-2
8.728025981E0,9.773556143E-3,3.665083647E-2,-2.825168520E-2
8.737177335E0,7.330167107E-3,2.397575416E-2,-2.397575416E-2
8.746328690E0,3.206948051E-3,4.123218823E-3,-2.092151903E-2
8.755480044E0,3.206948051E-3,6.566607859E-3,-1.786728203E-2
8.764631398E0,3.665083554E-3,2.168507688E-2,-1.725643501E-2
8.773782752E0,4.123218823E-3,3.787253052E-2,-1.847812906E-2
8.782934106E0,9.009997360E-3,4.321744293E-2,-2.336490713E-2
8.792085460E0,1.023169141E-2,4.199574888E-2,-2.519745007E-2
8.801236815E0,9.773556143E-3,3.665083647E-2,-2.702999115E-2
8.810388169E0,9.162709117E-3,2.993151546E-2,-2.764083818E-2
8.819539523E0,7.941014133E-3,2.748812735E-2,-2.764083818E-2
8.828690877E0,9.162709117E-3,3.054236248E-2,-2.825168520E-2
8.837842231E0,1.343864016E-2,3.359659761E-2,-2.519745007E-2
8.846993585E0,1.527118124E-2,3.298575059E-2,-2.214321308E-2
8.856144940E0,1.404948719E-2,2.886253223E-2,-1.542389300E-2
8.865296294E0,1.404948719E-2,2.046338283E-2,-1.175880991E-2
8.874447648E0,1.481304597E-2,1.679829881E-2,-1.236965694E-2
8.883599002E0,1.847812906E-2,1.496575773E-2,-1.664558798E-2
8.892750356E0,2.153236605E-2,1.740914769E-2,-2.076880634E-2
8.901901710E0,1.969982497E-2,3.069507517E-2,-2.275406010E-2
8.911053065E0,1.466033421E-2,3.603998944E-2,-2.153236605E-2
8.920204419E0,9.162709117E-3,3.191677108E-2,-1.969982497E-2
8.929355773E0,3.665083554E-3,2.031067200E-2,-1.847812906E-2
8.938507127E0,0.000000000E0,1.786728203E-2,-1.969982497E-2
8.947658481E0,1.221694518E-3,2.153236605E-2,-1.786728203E-2
8.956809835E0,6.108472589E-3,2.275406010E-2,-1.908897609E-2
8.965961190E0,1.114796288E-2,1.084253844E-2,-2.153236605E-2
8.975112544E0,1.756185852E-2,-1.038440317E-2,-2.443389036E-2
8.984263898E0,2.443389036E-2,-1.939439960E-2,-2.870982140E-2
8.993415252E0,2.626643144E-2,-1.160609815E-2,-3.115320951E-2
9.002566606E0,2.183778957E-2,-1.985253533E-3,-2.809897438E-2
9.011717960E0,1.496575773E-2,5.955760833E-3,-2.702999115E-2
9.020869315E0,8.093725890E-3,1.191152167E-2,-2.580829710E-2
9.030020669E0,4.275931045E-3,1.908897609E-2,-2.580829710E-2
9.039172023E0,6.108472589E-4,1.847812906E-2,-2.825168520E-2
9.048323377E0,-1.068982761E-3,7.635590620E-3,-3.619270027E-2
9.057474731E0,-5.803049076E-3,-1.099525020E-2,-4.657710344E-2
9.066626085E0,-1.114796288E-2,-2.382304333E-2,-5.711421743E-2
9.075777440E0,-1.481304597E-2,-2.932066843E-2,-6.261184067E-2
9.084928794E0,-2.229592577E-2,-1.771457121E-2,-6.505523622E-2
9.094080148E0,-1.954711229E-2,1.893626526E-2,-5.711421743E-2
9.103231502E0,-3.512371797E-3,7.574506104E-2,-4.001049697E-2
9.112382908E0,2.290677279E-3,9.987352788E-2,-1.740914769E-2
9.121534263E0,-0.000000000E0,8.429691941E-2,-9.162708884E-4
9.130685565E0,-9.468132630E-3,4.504998401E-2,-3.970507067E-3
9.139836919E0,-1.847812906E-2,1.786728203E-2,-1.740914769E-2
9.148988325E0,-1.817270555E-2,-7.635590737E-4,-3.145863488E-2
9.158139679E0,-1.298050396E-2,-2.733541466E-2,-4.306473210E-2
9.167291033E0,-2.290677279E-3,-5.864133686E-2,-5.024218559E-2
9.176442388E0,3.665083554E-3,-9.009996802E-2,-5.451811850E-2
9.185593742E0,3.817795310E-3,-1.148392856E-1,-5.757235363E-2
9.194745096E0,-2.901524538E-3,-1.293469071E-1,-6.245913357E-2
9.203896450E0,-1.267508045E-2,-1.269035190E-1,-6.612421572E-2
9.213047804E0,-1.908897609E-2,-1.039967462E-1,-5.833591148E-2
9.222199158E0,-1.084253844E-2,-7.437065244E-2,-4.413371533E-2
9.231350513E0,6.108472589E-3,-3.985778242E-2,-3.008422814E-2
9.240501867E0,1.206423342E-2,-1.389677543E-2,-2.214321308E-2
9.249653221E0,6.413896102E-3,-1.099525020E-2,-2.702999115E-2
9.258804575E0,1.527118147E-3,-1.466033421E-2,-3.680354729E-2
9.267955929E0,3.512371797E-3,-2.428117767E-2,-4.596625641E-2
9.277107283E0,6.872031838E-3,-3.817795217E-2,-5.024218559E-2
9.286258638E0,1.053711493E-2,-5.085303262E-2,-4.963133857E-2
9.295409992E0,9.468132630E-3,-6.047387794E-2,-4.840964451E-2
9.304561346E0,1.527118147E-3,-6.597150117E-2,-4.840964451E-2
9.313712700E0,-9.009997360E-3,-6.536065787E-2,-4.963133857E-2
9.322864054E0,-1.817270555E-2,-6.902574003E-2,-5.222744122E-2
9.332015408E0,-1.496575773E-2,-8.231166750E-2,-5.024218559E-2
9.341166763E0,-7.635590737E-4,-8.582404256E-2,-5.146388337E-2
9.350318117E0,1.710372418E-2,-8.399149776E-2,-5.558710173E-2
9.359469471E0,2.748812735E-2,-7.925742865E-2,-5.741964281E-2
9.368620825E0,2.993151546E-2,-7.803573459E-2,-6.398624927E-2
9.377772179E0,2.321219631E-2,-8.475505561E-2,-6.963659078E-2
9.386923533E0,1.404948719E-2,-9.254335612E-2,-7.391251624E-2
9.396074888E0,5.497625098E-3,-9.926267713E-2,-7.818844914E-2
9.405226242E0,-1.832541777E-3,-1.021642014E-1,-8.078455180E-2
9.414377596E0,-8.551862091E-3,-1.029277667E-1,-8.200624585E-2
9.423528950E0,-1.466033421E-2,-1.023169160E-1,-8.444963396E-2
9.432680304E0,-1.908897609E-2,-1.047603041E-1,-8.582404256E-2
9.441831658E0,-2.015795931E-2,-1.076618284E-1,-8.765657991E-2
9.450983013E0,-1.588202827E-2,-1.035386100E-1,-8.811471611E-2
9.460134367E0,-8.093725890E-3,-9.147437662E-2,-8.750387281E-2
9.469285721E0,2.901524538E-3,-7.941014320E-2,-8.811471611E-2
9.478437075E0,1.160609815E-2,-7.146912813E-2,-9.101624042E-2
9.487588429E0,2.015795931E-2,-6.123743951E-2,-9.529217333E-2
9.496739783E0,2.321219631E-2,-5.589252338E-2,-9.956810623E-2
9.505891138E0,2.687728032E-2,-5.711421743E-2,-1.032331884E-1
9.515042492E0,3.252761811E-2,-5.879404768E-2,-1.049130186E-1
9.524193846E0,4.107947648E-2,-5.879404768E-2,-1.055238619E-1
9.533345200E0,5.024218559E-2,-5.283828825E-2,-1.090362370E-1
9.542496554E0,5.940489471E-2,-4.199574888E-2,-1.114796251E-1
9.551647908E0,6.490252167E-2,-3.481829539E-2,-1.157555580E-1
9.560799263E0,6.673506647E-2,-3.298575059E-2,-1.181989461E-1
9.569950617E0,6.749862432E-2,-3.710897267E-2,-1.163664013E-1
9.579101971E0,6.933116168E-2,-3.710897267E-2,-1.120904684E-1
9.588253325E0,6.795676053E-2,-3.054236248E-2,-1.072036922E-1
9.597404679E0,6.474980712E-2,-2.199050039E-2,-1.035386100E-1
9.606556033E0,6.169557199E-2,-1.114796288E-2,-1.041494608E-1
9.615707388E0,5.726693198E-2,-2.748812549E-3,-1.090362370E-1
9.624858742E0,5.482354015E-2,-1.068982761E-3,-1.146865711E-1
9.634010096E0,5.360184610E-2,-4.581354442E-4,-1.159082651E-1
9.643161450E0,5.176930502E-2,-5.192201585E-3,-1.152974218E-1
9.652312804E0,5.054761097E-2,-1.007897966E-2,-1.165191159E-1
9.661464158E0,5.192201585E-2,-1.908897609E-2,-1.146865711E-1
9.670615513E0,5.879404768E-2,-2.993151546E-2,-1.163664013E-1
9.679766867E0,7.055285573E-2,-3.771981969E-2,-1.169772521E-1
9.688918221E0,8.276980370E-2,-3.344388679E-2,-1.186570823E-1
9.698069575E0,9.208522737E-2,-2.687728032E-2,-1.235438585E-1
9.707220929E0,9.819369763E-2,-1.969982497E-2,-1.270562261E-1
9.716372283E0,1.004843712E-1,-2.748812549E-3,-1.313321590E-1
9.725523638E0,9.849911928E-2,1.649287529E-2,-1.357607991E-1
9.734674992E0,9.223793447E-2,3.756710514E-2,-1.382041872E-1
9.743826346E0,8.826743066E-2,5.085303262E-2,-1.375933439E-1
9.752977700E0,8.215895295E-2,5.085303262E-2,-1.296523362E-1
9.762129106E0,7.421794534E-2,4.184303805E-2,-1.206423342E-1
9.771280408E0,6.734590977E-2,3.466558084E-2,-1.090362370E-1
9.780431815E0,6.184828654E-2,3.405473381E-2,-1.004843712E-1
9.789583117E0,5.741964281E-2,4.428642616E-2,-9.330692142E-2
9.798734523E0,5.482354015E-2,6.001574174E-2,-9.086353332E-2
9.807885877E0,5.405998230E-2,6.963659078E-2,-9.391776472E-2
9.817037179E0,5.650337040E-2,7.498150319E-2,-9.819369763E-2
9.826188585E0,6.139015034E-2,8.338065445E-2,-9.941539168E-2
9.835339888E0,7.543963939E-2,1.015533581E-1,-9.804098308E-2
9.844491294E0,9.605573118E-2,1.324011385E-1,-9.300149232E-2
9.853642648E0,1.148392856E-1,1.655396074E-1,-8.872556686E-2
9.862794002E0,1.294996142E-1,1.872246861E-1,-9.101624042E-2
9.871945356E0,1.320957243E-1,1.806580722E-1,-9.712471068E-2
9.881096710E0,1.218640283E-1,1.504211426E-1,-1.056765765E-1
9.890248065E0,1.038440317E-1,1.093416587E-1,-1.119377613E-1
9.899399419E0,8.139539510E-2,6.704048812E-2,-1.198787764E-1
9.908550773E0,5.833591148E-2,2.550287358E-2,-1.194206402E-1
9.917702127E0,3.512371704E-2,1.527118147E-4,-1.122431830E-1
9.926853481E0,1.725643501E-2,-6.413896102E-3,-1.001789495E-1
9.936004835E0,-1.374406274E-3,-5.803049076E-3,-8.750387281E-2
9.945156190E0,-1.618745178E-2,-1.527118147E-3,-7.543963939E-2
9.954307544E0,-2.932066843E-2,5.039489828E-3,-6.704048812E-2
9.963458898E0,-3.680354729E-2,1.298050396E-2,-6.154286116E-2
9.972610252E0,-3.558185324E-2,2.565558441E-2,-6.215370819E-2
9.981761606E0,-2.657185495E-2,4.306473210E-2,-6.459710002E-2
9.990912960E0,-6.872031838E-3,5.940489471E-2,-7.055285573E-2
1.000006432E1,1.954711229E-2,6.780404598E-2,-8.246438205E-2
1.000921567E1,4.611896724E-2,6.062658876E-2,-9.452861547E-2
1.001836702E1,6.734590977E-2,3.222219273E-2,-1.053711548E-1
1.002751838E1,8.261708915E-2,-2.748812549E-3,-1.156028435E-1
1.003666973E1,9.208522737E-2,-3.161134571E-2,-1.235438585E-1
1.004582108E1,9.086353332E-2,-4.077405483E-2,-1.235438585E-1
1.005497244E1,8.399149776E-2,-2.809897438E-2,-1.156028435E-1
1.006412379E1,7.269082218E-2,3.054236295E-4,-1.023169160E-1
1.007327515E1,5.741964281E-2,3.466558084E-2,-8.964183182E-2
1.008242650E1,4.184303805E-2,6.001574174E-2,-7.742489129E-2
1.009157786E1,2.809897438E-2,8.108997345E-2,-6.719319522E-2
1.010072921E1,1.801999472E-2,9.559759498E-2,-6.001574174E-2
1.010988057E1,1.053711493E-2,1.039967462E-1,-5.390727147E-2
1.011903192E1,7.482878864E-3,1.004843712E-1,-5.329642445E-2
1.012818327E1,4.428642802E-3,8.597674966E-2,-5.268557742E-2
1.013733463E1,-1.374406274E-3,6.062658876E-2,-5.405998230E-2
1.014648598E1,-3.665083554E-3,3.100049868E-2,-5.894676223E-2
1.015563734E1,-8.857285604E-3,-4.428642802E-3,-6.261184067E-2
1.016478869E1,-1.420219894E-2,-3.222219273E-2,-6.383354217E-2
1.017394004E1,-1.343864016E-2,-4.795150831E-2,-6.872031838E-2
1.018309140E1,-8.246437646E-3,-6.062658876E-2,-7.650861889E-2
1.019224275E1,-1.832541777E-3,-7.818844914E-2,-8.994726092E-2
1.020139411E1,7.024743594E-3,-1.023169160E-1,-1.032331884E-1
1.021054546E1,1.160609815E-2,-1.307213157E-1,-1.191152185E-1
1.021969682E1,1.252236869E-2,-1.566823274E-1,-1.356080920E-1
1.022884817E1,1.527118124E-2,-1.754658818E-1,-1.476723254E-1
1.023799952E1,2.336490713E-2,-1.801999360E-1,-1.574458778E-1
1.024715088E1,4.107947648E-2,-1.711899489E-1,-1.664558798E-1
1.025630223E1,6.505523622E-2,-1.513374150E-1,-1.736333370E-1
1.026545359E1,9.009996802E-2,-1.265980899E-1,-1.826433241E-1
1.027460494E1,1.134648770E-1,-1.085781008E-1,-1.940967143E-1
1.028375629E1,1.311794519E-1,-9.941539168E-2,-2.012741715E-1
1.029290765E1,1.433963925E-1,-8.628217876E-2,-2.049392611E-1
1.030205900E1,1.605001241E-1,-6.077930331E-2,-2.084516287E-1
1.031121036E1,1.812689304E-1,-4.092676565E-2,-2.156290859E-1
1.032036171E1,2.108950168E-1,-2.825168520E-2,-2.240282297E-1
1.032951306E1,2.490729690E-1,-2.046338283E-2,-2.347180545E-1
1.033866442E1,2.945810854E-1,-7.788302377E-3,-2.478512824E-1
1.034781577E1,3.463504016E-1,5.497625098E-3,-2.608317733E-1
1.035696713E1,4.016320705E-1,1.466033421E-2,-2.690782249E-1
1.036611848E1,4.578300118E-1,6.872031838E-3,-2.704526186E-1
1.037526984E1,5.158604980E-1,-7.482878864E-3,-2.718270421E-1
1.038442119E1,5.716003180E-1,-1.893626526E-2,-2.831276953E-1
1.039357254E1,6.221479177E-1,-1.649287529E-2,-3.046600819E-1
1.040272390E1,6.665870547E-1,-1.298050396E-2,-3.281776905E-1
1.041187525E1,7.061394453E-1,-2.367033064E-2,-3.431434333E-1
1.042102661E1,7.446228266E-1,-4.474456236E-2,-3.513898849E-1
1.043017796E1,7.905890942E-1,-7.498150319E-2,-3.584146202E-1
1.043932932E1,8.483141065E-1,-1.068982705E-1,-3.752129376E-1
1.044848067E1,9.153546095E-1,-1.556133330E-1,-4.039227366E-1
1.045763202E1,9.895725846E-1,-2.273878902E-1,-4.346178174E-1
1.046678338E1,1.064859509E0,-3.135173619E-1,-4.529432356E-1
1.047593473E1,1.140299082E0,-4.062134326E-1,-4.566083252E-1
1.048508608E1,1.216807723E0,-4.952444136E-1,-4.450022280E-1
1.049423744E1,1.308892965E0,-5.896202922E-1,-4.271349311E-1
1.050338879E1,1.413347840E0,-7.032378912E-1,-4.213318825E-1
1.051254015E1,1.505891204E0,-8.411366940E-1,-4.366030693E-1
1.052169150E1,1.568503022E0,-9.532271624E-1,-4.598152637E-1
1.053084286E1,1.596602082E0,-9.828532338E-1,-4.700469673E-1
1.053999421E1,1.589882731E0,-9.200887084E-1,-4.541649222E-1
1.054914556E1,1.561020136E0,-8.025006056E-1,-4.233171642E-1
1.055829692E1,1.554453611E0,-6.904101372E-1,-4.124746025E-1
1.056744827E1,1.600878000E0,-5.842754245E-1,-4.249969721E-1
1.057659963E1,1.680593491E0,-5.155550838E-1,-4.410317242E-1
1.058575098E1,1.752826214E0,-5.299099684E-1,-4.534013867E-1
1.059488963E1,1.810703993E0,-5.818319917E-1,-4.847072959E-1
1.060405369E1,1.882631302E0,-5.922164321E-1,-5.567872524E-1
1.061320504E1,1.997928619E0,-5.573981404E-1,-6.358919740E-1
1.062235640E1,2.133994818E0,-5.054761171E-1,-7.015580535E-1
1.063150775E1,2.244100094E0,-4.676035643E-1,-7.302678823E-1
1.064065911E1,2.311293364E0,-4.202629030E-1,-6.876612902E-1
1.064981046E1,2.319997787E0,-3.295520842E-1,-6.009209752E-1
1.065896182E1,2.277238607E0,-2.128802687E-1,-4.993676245E-1
1.066811317E1,2.201798916E0,-8.368607610E-2,-4.077405334E-1
1.067726452E1,2.095206022E0,1.771457121E-2,-3.242071867E-1
1.068641588E1,1.985864401E0,9.116895497E-2,-2.762556672E-1
1.069556723E1,1.901109338E0,1.672194302E-1,-2.550287247E-1
1.070471858E1,1.852394342E0,2.388412803E-1,-2.339545041E-1
1.071386994E1,1.846285820E0,2.817533016E-1,-2.133384049E-1
1.072302129E1,1.863542318E0,2.166980654E-1,-2.026485801E-1
1.073217265E1,1.884921908E0,8.780929446E-2,-2.018850148E-1
1.074132400E1,1.898360610E0,-2.794626169E-2,-2.163926363E-1
1.075047536E1,1.900956631E0,-1.553079188E-1,-2.498365343E-1
1.075962671E1,1.881409526E0,-3.121429384E-1,-2.718270421E-1
1.076877812E1,1.868581772E0,-4.495835900E-1,-2.938175201E-1
1.077792942E1,1.834068894E0,-5.859552622E-1,-3.067980409E-1
1.078708077E1,1.796807170E0,-6.919372082E-1,-3.075616062E-1
1.079623218E1,1.763516068E0,-7.684458494E-1,-2.912214398E-1
1.080538353E1,1.740609288E0,-8.432746530E-1,-2.742704153E-1
1.081453489E1,1.695101142E0,-9.222266674E-1,-2.660239935E-1
1.082368619E1,1.619966984E0,-9.862129092E-1,-2.732014358E-1
1.083283754E1,1.554911733E0,-1.030346632E0,-2.773246467E-1
1.084198890E1,1.500851750E0,-1.046075940E0,-2.831276953E-1
1.085114030E1,1.440225124E0,-1.004080176E0,-3.116848171E-1
1.086029166E1,1.375017166E0,-9.320002198E-1,-3.518480062E-1
1.086944301E1,1.314085126E0,-8.599202037E-1,-3.718532622E-1
1.087859437E1,1.265217423E0,-7.893673778E-1,-3.497100472E-1
1.088774572E1,1.219709277E0,-7.501204610E-1,-2.925958335E-1
1.089689708E1,1.161220670E0,-7.197307944E-1,-2.168507725E-1
1.090604843E1,1.105786204E0,-6.817055345E-1,-1.658450365E-1
1.091519978E1,1.062874198E0,-6.413896084E-1,-1.508792788E-1
1.092435114E1,1.010341406E0,-5.511369109E-1,-1.543916464E-1
1.093350249E1,9.521581531E-1,-4.512633979E-1,-1.629435122E-1
1.094265385E1,8.915315866E-1,-3.530697227E-1,-1.646233350E-1
1.095180520E1,8.319739699E-1,-2.632751763E-1,-1.504211426E-1
1.096095655E1,7.795938253E-1,-1.892099380E-1,-1.307213157E-1
1.097010791E1,7.314895988E-1,-1.360662282E-1,-1.053711548E-1
1.097925926E1,6.824691296E-1,-1.096470803E-1,-7.895200700E-2
1.098841062E1,6.412369013E-1,-1.258345395E-1,-6.459710002E-2
1.099756197E1,6.055023670E-1,-1.892099380E-1,-6.902574003E-2
1.100671333E1,5.772506595E-1,-2.640387416E-1,-8.139539510E-2
1.101586468E1,5.519005060E-1,-3.165715933E-1,-9.987352788E-2
1.102501603E1,5.207473040E-1,-3.390202224E-1,-1.244601309E-1
1.103416739E1,4.776825607E-1,-3.367295563E-1,-1.437018216E-1
1.104331874E1,4.185830951E-1,-3.356605768E-1,-1.575985998E-1
1.105247010E1,3.497100472E-1,-3.605526090E-1,-1.562241912E-1
1.106162145E1,2.820587158E-1,-3.840702176E-1,-1.487413049E-1
1.107077280E1,2.283041626E-1,-3.648285270E-1,-1.343863904E-1
1.107992416E1,1.791309565E-1,-3.184041381E-1,-1.207950488E-1
1.108907551E1,1.356080920E-1,-2.936648130E-1,-9.972081333E-2
1.109822687E1,1.010952219E-1,-2.930539846E-1,-7.803573459E-2
1.110737822E1,7.482878864E-2,-2.762556672E-1,-5.131116882E-2
1.111652958E1,5.528167635E-2,-2.411319613E-1,-1.359135192E-2
1.112568093E1,4.214845970E-2,-2.301367074E-1,2.718270384E-2
1.113483228E1,3.145863488E-2,-2.391466945E-1,5.757235363E-2
1.114398364E1,2.473931387E-2,-2.414373755E-1,7.528692484E-2
1.115313499E1,1.771457121E-2,-2.214321345E-1,8.796200156E-2
1.116228635E1,2.443389036E-3,-1.721062213E-1,1.001789495E-1
1.117143770E1,-2.825168520E-2,-1.226275861E-1,1.084253863E-1
1.118058905E1,-7.482878864E-2,-9.926267713E-2,1.197260618E-1
1.118974041E1,-1.304158866E-1,-9.086353332E-2,1.351499557E-1
1.119889176E1,-1.756185889E-1,-7.941014320E-2,1.550024897E-1
1.120804312E1,-2.066190839E-1,-6.108472496E-2,1.779092699E-1
1.121719447E1,-2.351761907E-1,-4.840964451E-2,1.991362125E-1
1.122634583E1,-2.673983872E-1,-4.184303805E-2,2.171562016E-1
1.123549718E1,-2.935121059E-1,-2.244863659E-2,2.359397560E-1
1.124464853E1,-3.092414141E-1,1.130067464E-2,2.504473627E-1
1.125379989E1,-3.162661791E-1,3.787253052E-2,2.637332976E-1
1.126295124E1,-3.257342875E-1,5.360184610E-2,2.808370292E-1
1.127210260E1,-3.394783735E-1,6.749862432E-2,2.916795611E-1
1.128125395E1,-3.507790267E-1,8.368607610E-2,2.951919436E-1
1.129040530E1,-3.483356535E-1,8.780929446E-2,2.929012477E-1
1.129955666E1,-3.173351586E-1,8.063183725E-2,2.759502530E-1
1.130870801E1,-2.634278834E-1,5.589252338E-2,2.507528067E-1
1.131785937E1,-2.205158621E-1,2.886253223E-2,2.345653474E-1
1.132701072E1,-2.093679011E-1,9.009997360E-3,2.357870489E-1
1.133616208E1,-2.192941606E-1,2.107422985E-2,2.473931462E-1
1.134531343E1,-2.321219593E-1,6.627693027E-2,2.710634768E-1
1.135446478E1,-2.338017821E-1,1.079672500E-1,2.942756712E-1
1.136361614E1,-2.162399292E-1,1.388150454E-1,3.011476994E-1
1.137276749E1,-1.776038408E-1,1.623326540E-1,2.909159958E-1
1.138191885E1,-1.253764033E-1,1.858502775E-1,2.730487287E-1
1.139107020E1,-9.300149232E-2,2.322746664E-1,2.634278834E-1
1.140022155E1,-9.666658193E-2,2.906105816E-1,2.626643181E-1
1.140937291E1,-1.340809762E-1,3.315373361E-1,2.643441558E-1
1.141852426E1,-1.823379099E-1,3.489464819E-1,2.693836391E-1
1.142767562E1,-2.243336588E-1,3.603998721E-1,2.794626355E-1
1.143682697E1,-2.547233105E-1,3.814741075E-1,2.994678617E-1
1.144597832E1,-2.800734639E-1,3.785725832E-1,3.254288733E-1
1.145512968E1,-3.064926267E-1,3.570402265E-1,3.497100472E-1
1.146428103E1,-3.342861533E-1,3.521534503E-1,3.691044450E-1
1.147343239E1,-3.674246371E-1,3.877353072E-1,3.920112252E-1
1.148258374E1,-3.721587062E-1,4.185830951E-1,4.182776511E-1
1.149173510E1,-3.164188862E-1,4.668400288E-1,4.285093546E-1
1.150088645E1,-2.437280566E-1,5.483881235E-1,4.159869850E-1
1.151003780E1,-1.743968874E-1,6.543701291E-1,3.914003670E-1
1.151918916E1,-1.354553849E-1,7.357655168E-1,3.671191931E-1
1.152834051E1,-1.359135211E-1,7.127060294E-1,3.555130959E-1
1.153749187E1,-1.542389393E-1,5.525113344E-1,3.701734245E-1
1.154664322E1,-1.759240031E-1,3.917058110E-1,4.153761268E-1
1.155579458E1,-2.254026383E-1,3.196258247E-1,4.804313779E-1
1.156494593E1,-3.116848171E-1,3.655920923E-1,5.433486104E-1
1.157409728E1,-4.306473136E-1,4.805840850E-1,5.809157491E-1
1.158324864E1,-5.784723759E-1,5.966450572E-1,6.010736823E-1
1.159239999E1,-6.974348426E-1,7.273663878E-1,6.337540150E-1
1.160155135E1,-7.789829373E-1,8.606837988E-1,6.789567471E-1
1.161068994E1,-8.409839869E-1,9.433009028E-1,7.229377031E-1
1.161985405E1,-8.724426031E-1,9.373451471E-1,7.624900937E-1
1.162900541E1,-9.248227477E-1,8.481613994E-1,7.915053368E-1
1.163815676E1,-1.020573020E0,7.252284288E-1,8.092198968E-1
1.164730812E1,-1.108535051E0,6.232169271E-1,8.232693672E-1
1.165645947E1,-1.168550849E0,5.677825212E-1,8.455653191E-1
1.166561082E1,-1.248419046E0,5.201364160E-1,8.773293495E-1
1.167476218E1,-1.319735527E0,4.773771465E-1,9.177979827E-1
1.168391353E1,-1.380209327E0,4.781406820E-1,9.729269743E-1
1.169306489E1,-1.458703279E0,4.703523815E-1,1.008966923E0
1.170221624E1,-1.460077643E0,3.414636254E-1,1.024390817E0
1.171136760E1,-1.427855492E0,3.228327632E-1,1.042410851E0
1.172051895E1,-1.427550077E0,4.169032574E-1,1.050809979E0
1.172967030E1,-1.416707516E0,4.613423944E-1,1.017213345E0
1.173882166E1,-1.374864459E0,4.208737612E-1,9.486457705E-1
1.174797301E1,-1.309198380E0,2.964136302E-1,8.574768305E-1
1.175712437E1,-1.224290609E0,1.516428292E-1,7.574505806E-1
1.176627572E1,-1.131899953E0,1.345391124E-1,6.647545099E-1
1.177541432E1,-1.035386086E0,2.000524700E-1,5.883986354E-1
1.178457843E1,-9.616262913E-1,1.974563748E-1,5.004366040E-1
1.179372978E1,-9.138274789E-1,1.368297935E-1,4.146125913E-1
1.180286843E1,-8.964183331E-1,1.432436854E-1,3.555130959E-1
1.181203249E1,-9.090934396E-1,2.553341687E-1,3.455868363E-1
1.182118385E1,-9.341381788E-1,3.463504016E-1,3.739912212E-1
1.183033520E1,-9.578084946E-1,3.724641204E-1,4.025483429E-1
1.183948655E1,-9.811733961E-1,4.158342779E-1,4.225535989E-1
1.184863791E1,-9.875873327E-1,4.333961308E-1,4.445441067E-1
1.185777655E1,-9.402466416E-1,3.894151151E-1,4.301891923E-1
1.186694062E1,-8.571714163E-1,3.060344756E-1,3.611634374E-1
1.187609197E1,-7.931851745E-1,2.089097649E-1,2.713688910E-1
1.188524333E1,-7.423321605E-1,1.363716573E-1,2.026485801E-1
1.189439468E1,-6.843016148E-1,7.070557028E-2,1.861557066E-1
1.190354603E1,-6.681141853E-1,9.376505762E-2,2.386885732E-1
1.191269739E1,-6.985038519E-1,1.572931707E-1,3.141281903E-1
1.192184874E1,-7.372926474E-1,2.502946556E-1,3.779617548E-1
1.193100010E1,-7.922688723E-1,3.944546282E-1,4.202629030E-1
1.194015145E1,-8.357917666E-1,4.782933891E-1,4.558447599E-1
1.194930280E1,-8.492304087E-1,5.312843919E-1,4.857762754E-1
1.195845421E1,-8.594620824E-1,5.656445622E-1,4.807367921E-1
1.196760557E1,-8.796200752E-1,5.558710098E-1,4.555393457E-1
1.197675692E1,-8.922951221E-1,4.882196784E-1,4.121691883E-1
1.198590827E1,-9.046648145E-1,5.204418898E-1,3.326063454E-1
1.199504687E1,-9.130639434E-1,6.218425035E-1,2.231119573E-1
1.200421093E1,-9.057337642E-1,7.510367036E-1,1.143811494E-1
1.201336228E1,-9.323056340E-1,9.894198179E-1,5.421269313E-2
1.202250093E1,-9.614735842E-1,1.083948493E0,5.757235363E-2
1.203166499E1,-1.000873208E0,1.133427143E0,1.061347127E-1
1.204081635E1,-1.109756708E0,1.319430113E0,2.371614426E-1
1.204996770E1,-1.192221165E0,1.504822254E0,3.988832533E-1
1.205911905E1,-1.207339644E0,1.544985414E0,5.215108395E-1
1.206827041E1,-1.215738773E0,1.446333647E0,5.618267655E-1
1.207740905E1,-1.223679781E0,1.357760787E0,5.636593103E-1
1.208657312E1,-1.211920977E0,1.292094707E0,5.454866290E-1
1.209572447E1,-1.181684017E0,1.174964666E0,4.950917065E-1
1.210487582E1,-1.150378108E0,1.012173891E0,4.196520746E-1
1.211402718E1,-1.134190679E0,8.286142945E-1,3.185568452E-1
1.212317853E1,-1.145185947E0,6.618530154E-1,2.250972092E-1
1.213232994E1,-1.150225401E0,4.850127101E-1,1.525591016E-1
1.214148124E1,-1.121057391E0,2.950392365E-1,9.437590092E-2
1.215063260E1,-1.108535051E0,1.521009654E-1,5.115845799E-2
1.215978395E1,-1.091736794E0,3.817795310E-3,3.359659761E-2
1.216893530E1,-1.037982225E0,-1.348445266E-1,1.695101149E-2
1.217808666E1,-9.859074950E-1,-2.360924631E-1,-5.192201585E-3
1.218722530E1,-9.419264793E-1,-2.745758295E-1,-4.581354442E-4
1.219638937E1,-9.034430981E-1,-2.238755226E-1,8.857285604E-3
1.220554072E1,-8.638907075E-1,-1.171299592E-1,2.367033064E-2
1.221469213E1,-8.333483934E-1,3.680354729E-2,5.436540768E-2
1.222384343E1,-8.283088803E-1,2.255553454E-1,9.636115283E-2
1.223299478E1,-8.499939442E-1,3.629959822E-1,1.206423342E-1
1.224214614E1,-8.777875304E-1,4.466820657E-1,1.038440317E-1
1.225129749E1,-8.822161555E-1,4.831801951E-1,5.238015205E-2
1.226044890E1,-8.715263009E-1,4.926483035E-1,-2.015795931E-2
1.226960020E1,-8.582404256E-1,4.882196784E-1,-7.925742865E-2
1.227875161E1,-8.280034661E-1,4.821111858E-1,-1.015533581E-1
1.228790296E1,-7.934905887E-1,4.816530645E-1,-8.796200156E-2
1.229704155E1,-7.350019813E-1,4.926483035E-1,-6.917845458E-2
1.230620562E1,-6.534538269E-1,4.627167881E-1,-4.672981426E-2
1.231535697E1,-5.618267655E-1,4.075878263E-1,-2.092151903E-2
1.232450838E1,-4.440859556E-1,3.197785318E-1,-2.000524849E-2
1.233365968E1,-3.019112647E-1,1.058292910E-1,-6.474980712E-2
1.234281103E1,-1.530172378E-1,-1.142284349E-1,-1.458397806E-1
1.235196239E1,-4.398100078E-2,-2.000524700E-1,-2.544178963E-1
1.236111374E1,4.123219103E-2,-2.292204350E-1,-3.582619131E-1
1.237026510E1,1.630962193E-1,-2.551814318E-1,-4.165978432E-1
1.237940374E1,3.920112252E-1,-3.633013964E-1,-4.092676640E-1
1.238856780E1,7.805100679E-1,-5.969504714E-1,-3.819322586E-1
1.239771916E1,1.294079900E0,-6.815528274E-1,-3.843756318E-1
1.240685780E1,1.824906230E0,-6.050441861E-1,-4.228590131E-1
1.241602187E1,2.211419821E0,-6.468872428E-1,-4.940227270E-1
1.242517322E1,2.411014080E0,-7.288935184E-1,-6.000047326E-1
1.243432463E1,2.565253019E0,-6.713211536E-1,-7.382088900E-1
1.244347593E1,2.754768372E0,-4.944808483E-1,-8.840487003E-1
1.245262728E1,2.965510845E0,-2.812951505E-1,-1.027597785E0
1.246176593E1,3.119138718E0,-1.898207814E-1,-1.107618809E0
1.247092999E1,3.205420971E0,-2.716743052E-1,-1.103953719E0
1.248008135E1,3.232298374E0,-3.943018913E-1,-1.063485026E0
1.248921999E1,3.168006659E0,-5.358657837E-1,-1.014311910E0
1.249838405E1,3.066147804E0,-6.876612902E-1,-9.416210651E-1
1.250753541E1,3.028275251E0,-6.975875497E-1,-8.570187092E-1
1.251667405E1,3.100355148E0,-5.109737515E-1,-7.950177193E-1
1.252583817E1,3.207406282E0,-2.322746664E-1,-7.492041588E-1
1.253498947E1,3.339654684E0,6.337540597E-2,-7.259919643E-1
1.254412812E1,3.422271729E0,2.557922900E-1,-6.980457306E-1
1.255329218E1,3.409138441E0,2.756448388E-1,-7.157602906E-1
1.256244353E1,3.303462029E0,6.245913357E-2,-7.853968740E-1
1.257158218E1,3.221761227E0,-2.699944973E-1,-8.730534315E-1
1.258074624E1,3.151208401E0,-4.981459379E-1,-9.020686746E-1
1.258989760E1,2.993762493E0,-5.082249045E-1,-8.269344568E-1
1.259903624E1,2.727585793E0,-3.116848171E-1,-6.725428104E-1
1.260820036E1,2.444458008E0,-1.380514801E-1,-5.262449384E-1
1.261735171E1,2.174463511E0,-3.741439432E-2,-4.477510452E-1
1.262649030E1,1.978839636E0,-2.977880463E-2,-4.129327536E-1
1.263565437E1,1.873621225E0,-1.976090819E-1,-4.228590131E-1
1.264480572E1,1.774816751E0,-4.173613787E-1,-4.721849263E-1
1.265394437E1,1.661504507E0,-5.610632300E-1,-5.187620521E-1
1.266310848E1,1.600572586E0,-6.317687631E-1,-5.343386531E-1
1.267225978E1,1.579498291E0,-6.757497787E-1,-5.491516590E-1
1.268141114E1,1.539487839E0,-7.620319724E-1,-5.529694557E-1
1.269056254E1,1.481610060E0,-8.953493834E-1,-5.551074743E-1
1.269971385E1,1.406017661E0,-9.811733961E-1,-5.751127005E-1
1.270886525E1,1.304922462E0,-9.735378027E-1,-5.887040496E-1
1.271801661E1,1.180767775E0,-8.927532434E-1,-5.664080977E-1
1.272716796E1,1.045465112E0,-8.054021001E-1,-5.186093450E-1
1.273631932E1,9.002361298E-1,-7.139277458E-1,-4.592044353E-1
1.274547062E1,7.606575489E-1,-6.439857483E-1,-3.967452943E-1
1.275462202E1,6.239804626E-1,-6.180247068E-1,-3.439069986E-1
1.276376062E1,5.080721974E-1,-6.421532035E-1,-2.971771955E-1
1.277292473E1,4.089622498E-1,-6.801784039E-1,-2.502946556E-1
1.278207603E1,3.315373361E-1,-6.649072170E-1,-1.786728203E-1
1.279122744E1,2.608317733E-1,-5.911474228E-1,-6.872031838E-2
1.280037874E1,1.988307834E-1,-4.720322192E-1,4.123219103E-2
1.280953015E1,1.702736765E-1,-3.338280320E-1,1.148392856E-1
1.281868150E1,1.635543555E-1,-2.264716178E-1,1.427855492E-1
1.282783286E1,1.592784226E-1,-2.246390730E-1,1.372879148E-1
1.283698416E1,1.142284349E-1,-2.851129472E-1,1.235438585E-1
1.284613556E1,3.206948191E-2,-3.315373361E-1,1.406475753E-1
1.285528692E1,-6.001574174E-2,-3.410054743E-1,2.194468826E-1
1.286443822E1,-1.659977436E-1,-3.347443044E-1,3.310792148E-1
1.287358963E1,-2.797680497E-1,-3.411581814E-1,4.396573007E-1
1.288274098E1,-3.914003670E-1,-3.060344756E-1,5.383091569E-1
1.289189228E1,-5.346440673E-1,-1.907370538E-1,6.337540150E-1
1.290104364E1,-7.062921524E-1,-6.704048812E-2,7.374453545E-1
1.291019504E1,-8.796200752E-1,3.313846514E-2,8.484668136E-1
1.291934640E1,-1.123653531E0,1.621799469E-1,9.779664874E-1
1.292848499E1,-1.468629479E0,3.388675153E-1,1.156181097E0
1.293764911E1,-1.823073626E0,5.755708218E-1,1.412431598E0
1.294680046E1,-2.067107201E0,8.299887180E-1,1.726254344E0
1.295593905E1,-1.758171082E0,1.217723966E0,1.948602796E0
1.296510312E1,-1.174506545E0,1.641499281E0,1.929208398E0
1.297425447E1,-1.421288848E0,1.398992896E0,1.773136854E0
1.298339312E1,-1.774969459E0,2.325800955E-1,1.679371834E0
1.299255723E1,-1.744274378E0,2.858765125E-1,1.731293797E0
1.300170853E1,-1.780161619E0,1.068066478E0,1.591867924E0
1.301084718E1,-1.880340576E0,1.186723471E0,1.142895222E0
1.302001129E1,-1.499324560E0,7.977665067E-1,6.134433746E-1
1.302916265E1,-1.098761559E0,2.750339806E-1,2.464768738E-1
1.303830124E1,-9.155073166E-1,-4.524851143E-1,1.293469071E-1
1.304746530E1,-6.725428104E-1,-8.715263009E-1,2.533488870E-1
1.305661671E1,-5.838172436E-1,-9.048175216E-1,4.836383164E-1
1.306575530E1,-6.969767213E-1,-9.136747718E-1,6.050441861E-1
1.307491942E1,-8.393041492E-1,-9.361234307E-1,5.996993184E-1
1.308407077E1,-9.498674870E-1,-6.623111367E-1,5.486935377E-1
1.309322213E1,-1.031262875E0,-2.820587158E-1,4.636330605E-1
1.310237348E1,-1.056307673E0,-6.536065787E-2,3.843756318E-1
1.311152484E1,-1.024543524E0,7.131642103E-2,3.248180151E-1
1.312066343E1,-9.833113551E-1,2.344126403E-1,2.803788781E-1
1.312982754E1,-9.542961121E-1,3.808632791E-1,2.510582209E-1
1.313897890E1,-9.286405444E-1,4.880669713E-1,2.359397560E-1
1.314811749E1,-9.170344472E-1,5.528167486E-1,2.976353168E-1
1.315728161E1,-9.127585292E-1,6.238277555E-1,4.454603493E-1
1.316643296E1,-9.177979827E-1,6.365028620E-1,5.871769190E-1
1.317557155E1,-9.440644383E-1,5.609105229E-1,6.943806410E-1
1.318473567E1,-9.600991607E-1,4.653128982E-1,7.450809479E-1
1.319388702E1,-9.787300229E-1,4.121691883E-1,7.333221436E-1
1.320302562E1,-9.984298348E-1,3.637595475E-1,6.740699410E-1
1.321218973E1,-1.005759954E0,2.835858464E-1,5.500679612E-1
1.322134108E1,-1.008966923E0,1.782146841E-1,3.741439581E-1
1.323049239E1,-9.955283403E-1,5.696150661E-2,1.887518018E-1
1.323964379E1,-9.715525508E-1,3.970507067E-3,2.535016090E-2
1.324879515E1,-9.500201941E-1,-1.038440317E-2,-8.994726092E-2
1.325793374E1,-9.194778204E-1,6.459710002E-2,-1.838650256E-1
1.326709780E1,-9.385668039E-1,2.338017821E-1,-2.261662036E-1
1.327624916E1,-1.000567794E0,5.435013771E-1,-2.206685692E-1
1.328538780E1,-1.025307178E0,7.293516397E-1,-1.551551968E-1
1.329455187E1,-1.099372387E0,1.022711039E0,9.009997360E-3
1.330370322E1,-1.190235853E0,1.310572743E0,1.797417998E-1
1.331285463E1,-1.277281642E0,1.541167617E0,3.158080280E-1
1.332200593E1,-1.320957184E0,1.700446010E0,3.965925872E-1
1.333115734E1,-1.309503794E0,1.849492788E0,4.442386627E-1
1.334029593E1,-1.264453769E0,1.974411011E0,4.779879749E-1
1.334945999E1,-1.203216434E0,2.019155502E0,4.851654470E-1
1.335861135E1,-1.155570269E0,1.865527511E0,4.599680007E-1
1.336774999E1,-1.133579850E0,1.712204814E0,3.717005551E-1
1.337691405E1,-1.130525589E0,1.516428351E0,2.197522968E-1
1.338606541E1,-1.073411345E0,1.251931429E0,7.070557028E-2
1.339520405E1,-9.991934299E-1,9.985825419E-1,-4.275930673E-2
1.340436817E1,-9.660549164E-1,7.591304183E-1,-8.628217876E-2
1.341351947E1,-9.371923804E-1,5.496098399E-1,-6.826218218E-2
1.342267082E1,-9.129112363E-1,3.014531136E-1,-3.726168349E-2
1.343182218E1,-9.213103652E-1,5.039489828E-3,-3.237490356E-2
1.344097353E1,-9.301676750E-1,-2.469350100E-1,-4.321744293E-2
1.345011218E1,-9.008470178E-1,-3.487937748E-1,-5.390727147E-2
1.345927624E1,-8.661814332E-1,-3.747547865E-1,-6.337540597E-2
1.346842760E1,-8.365553021E-1,-3.746020794E-1,-6.077930331E-2
1.347756624E1,-8.125795722E-1,-3.625378609E-1,-5.085303262E-2
1.348673030E1,-7.692093849E-1,-3.191677034E-1,-5.848862603E-2
1.349588166E1,-7.001836896E-1,-2.921377122E-1,-1.062874198E-1
1.350502030E1,-5.989357233E-1,-2.812951505E-1,-1.611109674E-1
1.351418437E1,-4.666872919E-1,-3.035911024E-1,-2.072299272E-1
1.352333572E1,-2.970244884E-1,-3.668137789E-1,-2.663294077E-1
1.353247432E1,-6.581879407E-2,-4.685198367E-1,-3.495573401E-1
1.354163843E1,2.179197669E-1,-5.590779781E-1,-4.818057716E-1
1.355078978E1,5.074613690E-1,-6.033644080E-1,-6.897992492E-1
1.355994114E1,7.913526297E-1,-5.804576278E-1,-9.510892034E-1
1.356909249E1,1.091584086E0,-4.628695250E-1,-1.218334913E0
1.357824385E1,1.386928678E0,-2.443388999E-1,-1.403268814E0
1.358739520E1,1.591867924E0,5.344913341E-3,-1.437934399E0
1.359654655E1,1.685327530E0,1.438545287E-1,-1.355622768E0
1.360569791E1,1.732820988E0,1.534753740E-1,-1.241699815E0
1.361483650E1,1.825669765E0,3.665083647E-2,-1.079061627E0
1.362400062E1,1.967080832E0,-8.475505561E-2,-8.802309036E-1
1.363315197E1,2.124984980E0,-1.217113137E-1,-6.885775924E-1
1.364229057E1,2.316179991E0,2.290677279E-3,-5.034908652E-1
1.365145468E1,2.499434233E0,3.817795217E-2,-3.629959822E-1
1.366060603E1,2.643136024E0,-6.032116711E-2,-3.252761662E-1
1.366974463E1,2.744994879E0,-1.559187621E-1,-4.289674759E-1
1.367890874E1,2.848227978E0,-3.101576865E-1,-6.380299330E-1
1.368806010E1,2.960165739E0,-5.349494815E-1,-8.368607163E-1
1.369719869E1,3.040950298E0,-7.438592315E-1,-9.863656163E-1
1.370636280E1,3.098828077E0,-8.842014074E-1,-1.129303813E0
1.371551416E1,3.148917675E0,-9.797990322E-1,-1.263232112E0
1.372465275E1,3.127843380E0,-1.137855768E0,-1.322484374E0
1.373381687E1,3.026900768E0,-1.382041931E0,-1.299272060E0
1.374296822E1,2.982614517E0,-1.580567241E0,-1.205965161E0
1.375210682E1,2.929470778E0,-1.536891699E0,-1.101357579E0
1.376127093E1,2.837690830E0,-1.202605486E0,-9.452861547E-1
1.377042228E1,2.737053871E0,-9.863656163E-1,-7.727217674E-1
1.377957364E1,2.618244171E0,-7.960866690E-1,-6.216897964E-1
1.378872499E1,2.448123217E0,-5.665608048E-1,-5.338805318E-1
1.379787635E1,2.263189077E0,-3.545968235E-1,-5.140279531E-1
1.380701494E1,2.114142418E0,-2.258607745E-1,-5.114318728E-1
1.381617905E1,2.034579515E0,-2.098260373E-1,-5.291464329E-1
1.382533041E1,2.001135588E0,-2.478512824E-1,-5.464028716E-1
1.383446900E1,1.969371557E0,-2.263189107E-1,-5.473191738E-1
1.384363312E1,1.911646485E0,-1.382041872E-1,-5.184566379E-1
1.385278447E1,1.806580782E0,-4.963133857E-2,-4.654656053E-1
1.386192307E1,1.665933132E0,1.007897966E-2,-4.036173224E-1
1.387108718E1,1.531852245E0,2.275406010E-2,-3.550549746E-1
1.388023853E1,1.404948711E0,5.650337040E-2,-3.133646548E-1
1.388937713E1,1.260025144E0,1.113269106E-1,-2.466295809E-1
1.389854124E1,1.110825777E0,7.941014320E-2,-1.737860441E-1
1.390769260E1,9.764393568E-1,-2.061609551E-2,-1.331647038E-1
1.391683119E1,8.574768305E-1,-1.499630064E-1,-1.308740228E-1
1.392599530E1,7.661551833E-1,-2.658712566E-1,-1.514901221E-1
1.393514666E1,6.791094542E-1,-3.710896969E-1,-1.966928244E-1
1.394429801E1,5.801522136E-1,-4.501944184E-1,-2.302894145E-1
1.395344937E1,4.755446017E-1,-4.775298536E-1,-2.363978922E-1
1.396260072E1,3.854446113E-1,-4.034646153E-1,-1.925695986E-1
1.397173932E1,3.141281903E-1,-2.657185495E-1,-1.015533581E-1
1.398090343E1,2.481566966E-1,-1.583621502E-1,-1.969982497E-2
1.399005478E1,1.582094431E-1,-1.214058921E-1,3.833066672E-2
1.399919338E1,2.244863659E-2,-1.346918195E-1,9.895725548E-2
1.400835749E1,-1.404948682E-1,-1.430909634E-1,1.722589284E-1
1.401750885E1,-2.959555089E-1,-9.956810623E-2,2.512109280E-1
1.402666020E1,-4.011739492E-1,-7.299624383E-2,3.182514310E-1
1.403581155E1,-4.769189954E-1,-1.151447073E-1,3.658975065E-1
1.404496291E1,-5.474718809E-1,-1.693574041E-1,3.990359604E-1
1.405411426E1,-6.366555691E-1,-2.014268786E-1,4.254551232E-1
1.406326562E1,-7.508839965E-1,-1.899735034E-1,4.398100376E-1
1.407241697E1,-7.959339619E-1,-1.021642014E-1,4.278984964E-1
1.408156833E1,-7.273663878E-1,4.077405483E-2,4.043808877E-1
1.409071968E1,-6.554391384E-1,1.001789495E-1,4.538595080E-1
1.409987103E1,-6.728482842E-1,1.227803007E-1,5.873296261E-1
1.410900963E1,-6.693359017E-1,1.643179059E-1,6.966713071E-1
1.411817374E1,-5.980194807E-1,1.466033459E-1,7.643226385E-1
1.412732510E1,-4.952444136E-1,8.964183182E-2,7.937960029E-1
1.413646369E1,-4.880669713E-1,9.697200358E-2,8.391514421E-1
1.414562780E1,-6.207735538E-1,2.107422985E-2,8.858812451E-1
1.415477916E1,-7.905890942E-1,-1.033858955E-1,8.968765140E-1
1.416391775E1,-1.001178622E0,2.128802687E-1,9.275715351E-1
1.417308187E1,-1.213906169E0,9.521581531E-1,1.009119630E0
1.418223322E1,-1.420525312E0,1.358218908E0,1.061805248E0
1.419137182E1,-1.651578307E0,1.431978703E0,1.039356589E0
1.420053593E1,-1.799250603E0,1.471989155E0,1.037065983E0
1.420968728E1,-1.793142080E0,1.454121947E0,1.066997409E0
1.421882588E1,-1.752673507E0,1.212531805E0,1.083337665E0
1.422798999E1,-1.652189136E0,9.150491953E-1,1.089140654E0
1.423714135E1,-1.475043416E0,6.229115129E-1,1.061347127E0
1.424627994E1,-1.371504784E0,3.210002482E-1,9.840749502E-1
1.425544405E1,-1.341420531E0,1.322484314E-1,8.147175312E-1
1.426459541E1,-1.296370625E0,8.750387281E-2,5.891621709E-1
1.427373400E1,-1.255291104E0,1.177408099E-1,4.117110670E-1
1.428289812E1,-1.207950473E0,1.162136942E-1,3.295520842E-1
1.429204947E1,-1.129303813E0,6.994201243E-2,3.417690396E-1
1.430118807E1,-1.136939406E0,5.222744122E-2,4.199574888E-1
1.431035218E1,-1.187792540E0,3.924693540E-2,5.117372870E-1
1.431950353E1,-1.218334913E0,1.255291104E-1,5.896202922E-1
1.432865489E1,-1.258192658E0,2.751866877E-1,6.355865598E-1
1.433780624E1,-1.269187927E0,3.347443044E-1,6.392516494E-1
1.434695760E1,-1.235591292E0,3.077143133E-1,6.161921620E-1
1.435609619E1,-1.135565042E0,3.107685447E-1,5.778614879E-1
1.436526030E1,-1.035386086E0,2.425063550E-1,5.059342384E-1
1.437441166E1,-9.561286569E-1,4.993676394E-2,3.900259733E-1
1.438356301E1,-8.596147895E-1,-7.574506104E-2,2.502946556E-1
1.439271437E1,-7.980719209E-1,-1.539335102E-1,1.438545287E-1
1.440186572E1,-7.936432958E-1,-1.540862173E-1,1.049130186E-1
1.441100432E1,-8.431219459E-1,-7.482878864E-3,1.482831687E-1
1.442016843E1,-9.052756429E-1,2.073826492E-1,2.637332976E-1
1.442931978E1,-9.959864616E-1,4.445441067E-1,3.924693763E-1
1.443845838E1,-1.087155461E0,5.166240931E-1,4.877615273E-1
1.444762249E1,-1.120446563E0,4.460712075E-1,5.186093450E-1
1.445677385E1,-1.113269091E0,3.327590525E-1,5.028799772E-1
1.446592520E1,-1.056918502E0,3.199312389E-1,4.477510452E-1
1.447507655E1,-9.952229261E-1,3.100049794E-1,3.217637837E-1
1.448422791E1,-9.721634388E-1,3.474193811E-1,1.826433241E-1
1.449336650E1,-9.921686649E-1,5.042544007E-1,8.154810965E-2
1.450253062E1,-1.053406119E0,8.209787011E-1,3.634541109E-2
1.451168197E1,-1.063026905E0,1.005301833E0,3.069507517E-2
1.452083333E1,-1.129762053E0,1.206117868E0,9.361234307E-2
1.452998463E1,-1.199704051E0,1.328745484E0,2.041756958E-1
1.453913598E1,-1.221541762E0,1.432284117E0,3.388675153E-1
1.454828734E1,-1.246891975E0,1.566670537E0,5.114318728E-1
1.455743869E1,-1.300035715E0,1.664100647E0,6.502469182E-1
1.456659004E1,-1.318666577E0,1.591409802E0,7.026270628E-1
1.457572869E1,-1.313321590E0,1.531241417E0,7.040014863E-1
1.458489275E1,-1.268424392E0,1.482373595E0,6.694886088E-1
1.459404411E1,-1.208866715E0,1.353637576E0,5.625903010E-1
1.460318275E1,-1.152363300E0,1.048672080E0,3.871244490E-1
1.461234682E1,-1.122126460E0,7.081246972E-1,1.983726472E-1
1.462149817E1,-1.094485521E0,4.581354558E-1,1.496575773E-2
1.463064952E1,-1.092194915E0,2.664821148E-1,-1.308740228E-1
1.463980088E1,-1.095860004E0,9.437590092E-2,-2.064663768E-1
1.464895223E1,-1.090056896E0,-6.765133142E-2,-2.148655206E-1
1.465810359E1,-1.082574010E0,-2.392994165E-1,-1.750077456E-1
1.466725494E1,-1.069440842E0,-4.312581718E-1,-1.191152185E-1
1.467640629E1,-1.047144890E0,-5.980194807E-1,-8.521319181E-2
1.468554494E1,-1.008356094E0,-7.311841846E-1,-8.735115826E-2
1.469470900E1,-9.403993487E-1,-8.651124239E-1,-1.368297935E-1
1.470386036E1,-8.142594099E-1,-9.411629438E-1,-2.269297540E-1
1.471299895E1,-6.200099587E-1,-9.491039515E-1,-3.603998721E-1
1.472216306E1,-3.695625961E-1,-1.023627281E0,-5.381564498E-1
1.473131442E1,-6.429167092E-2,-1.158166409E0,-7.368345261E-1
1.474045301E1,3.257342875E-1,-1.179545999E0,-9.660549164E-1
1.474961713E1,7.612683773E-1,-1.075702071E0,-1.255596519E0
1.475876848E1,1.162289619E0,-9.261971712E-1,-1.538113356E0
1.476790708E1,1.467407823E0,-7.033905983E-1,-1.713121176E0
1.477707119E1,1.670514584E0,-4.494308829E-1,-1.732057452E0
1.478622254E1,1.816201568E0,-3.107685447E-1,-1.624853730E0
1.479536114E1,1.923252583E0,-3.038965166E-1,-1.436101913E0
1.480452525E1,2.043131351E0,-3.190149665E-1,-1.190846682E0
1.481367661E1,2.202562571E0,-2.486148328E-1,-9.779664874E-1
1.482281520E1,2.369476557E0,-1.001789495E-1,-8.327375054E-1
1.483197932E1,2.527533293E0,4.443913698E-2,-7.658497691E-1
1.484113067E1,2.722088099E0,1.041494608E-1,-8.200624585E-1
1.485026926E1,3.044462681E0,1.753131598E-1,-9.820896983E-1
1.485943338E1,3.383024931E0,2.551814318E-1,-1.170841455E0
1.486858473E1,3.620186329E0,2.006633282E-1,-1.337602735E0
1.487773608E1,3.717616320E0,-1.021642014E-1,-1.432589531E0
1.488688744E1,3.584909916E0,-6.439857483E-1,-1.421594262E0
1.489603879E1,3.461976767E0,-1.095096469E0,-1.314085126E0
1.490517739E1,3.338127613E0,-1.285375357E0,-1.210393786E0
1.491434150E1,3.197327375E0,-1.080436110E0,-1.144269586E0
1.492349286E1,3.135020733E0,-7.458444834E-1,-1.077229142E0
1.493263145E1,3.053930759E0,-4.213318825E-1,-9.620844126E-1
1.494179557E1,2.924125910E0,-2.240282297E-1,-8.299887180E-1
1.495094692E1,2.739955425E0,-1.915006191E-1,-7.715001106E-1
1.496009827E1,2.587090969E0,-1.918060333E-1,-7.878402472E-1
1.496924963E1,2.507680655E0,-1.847812980E-1,-8.090671897E-1
1.497840098E1,2.465226889E0,-1.551551968E-1,-7.740961909E-1
1.498755234E1,2.418649673E0,-1.339282542E-1,-7.010999322E-1
1.499670369E1,2.301519871E0,-1.043021679E-1,-6.329904795E-1
1.500585504E1,2.148960590E0,-1.024696305E-1,-5.680879354E-1
1.501499364E1,1.986780763E0,-1.230857223E-1,-5.027272701E-1
1.502415775E1,1.805969954E0,-1.255291104E-1,-4.416425824E-1
1.503330911E1,1.611109614E0,-1.330119967E-1,-4.155288339E-1
1.504244770E1,1.431978703E0,-2.350234836E-1,-4.124746025E-1
1.505161182E1,1.265675545E0,-3.805578351E-1,-4.159869850E-1
1.506076312E1,1.089293361E0,-4.990622103E-1,-4.306473136E-1
1.506990176E1,8.541171551E-1,-5.349494815E-1,-4.419479966E-1
1.507906588E1,5.790832043E-1,-5.202891231E-1,-4.323271513E-1
1.508821718E1,3.234436214E-1,-5.824428797E-1,-3.497100472E-1
1.509735583E1,1.415638477E-1,-6.250494719E-1,-2.301367074E-1
1.510651989E1,5.864133686E-2,-5.783196688E-1,-9.956810623E-2
1.511567124E1,-4.123218823E-3,-4.500417113E-1,3.863608837E-2
1.512480989E1,-1.032331884E-1,-3.153499067E-1,1.647760421E-1
1.513397395E1,-2.457133085E-1,-2.139492482E-1,2.846548259E-1
1.514312530E1,-3.999522328E-1,-9.513945878E-2,3.695625961E-1
1.515227666E1,-5.138752460E-1,7.849387079E-2,4.187358022E-1
1.516142801E1,-6.004628539E-1,2.936648130E-1,4.595098495E-1
1.517057937E1,-7.004891038E-1,5.176930428E-1,4.805840850E-1
1.517971801E1,-8.148702383E-1,7.423321605E-1,4.924955964E-1
1.518888208E1,-9.148964882E-1,8.893936276E-1,5.270084739E-1
1.519803343E1,-1.042410851E0,9.668185115E-1,6.702521443E-1
1.520717202E1,-1.140909910E0,1.133121610E0,1.002247691E0
1.521633614E1,-1.159235358E0,1.165649295E0,1.478403091E0
1.522548749E1,-1.168092728E0,1.088682532E0,1.864305854E0
1.523462608E1,-1.391968250E0,9.236010313E-1,1.965401053E0
1.524379020E1,-1.886296391E0,5.170822144E-1,1.750382781E0
1.525294155E1,-2.288081169E0,7.058340311E-1,1.341267824E0
1.526208015E1,-2.430103064E0,1.653563499E0,8.907679915E-1
1.527124426E1,-2.110477209E0,1.741678238E0,4.656183124E-1
1.528039562E1,-1.762905240E0,9.506310225E-1,3.775036037E-1
1.528953421E1,-1.562394619E0,1.400367320E-1,7.154548764E-1
1.529869832E1,-1.401130915E0,-1.023169160E-1,1.133121610E0
1.530784968E1,-1.448013425E0,4.535540938E-2,1.264606595E0
1.531698827E1,-1.552468300E0,3.955236077E-2,1.079519868E0
1.532615239E1,-1.535364628E0,-7.131642103E-2,7.493568659E-1
1.533530374E1,-1.415333152E0,-9.132166207E-2,5.193728805E-1
1.534444234E1,-1.278503299E0,-1.484358907E-1,3.713951409E-1
1.535360645E1,-1.210699320E0,-2.510582209E-1,2.742704153E-1
1.536275780E1,-1.207034230E0,-2.319692522E-1,2.302894145E-1
1.537190916E1,-1.310725451E0,-7.605048269E-2,2.354816198E-1
1.538106051E1,-1.427702785E0,1.125486046E-1,2.657185495E-1
1.539021187E1,-1.471836448E0,2.718270421E-1,3.165715933E-1
1.539935046E1,-1.468476772E0,3.480302393E-1,3.878880143E-1
1.540851458E1,-1.418845415E0,4.043808877E-1,4.671454430E-1
1.541766593E1,-1.336533785E0,4.234698713E-1,5.099047422E-1
1.542681728E1,-1.254832983E0,3.849864900E-1,5.012001991E-1
1.543596864E1,-1.201994658E0,2.883199155E-1,4.503471553E-1
1.544511999E1,-1.168856263E0,2.020377368E-1,3.840702176E-1
1.545427135E1,-1.157097459E0,1.462979168E-1,3.121429384E-1
1.546342270E1,-1.137550354E0,1.082726792E-1,2.774773538E-1
1.547257405E1,-1.149156451E0,1.172826737E-1,2.585411072E-1
1.548172541E1,-1.160304427E0,2.087570578E-1,2.455606014E-1
1.549087676E1,-1.197107911E0,3.038965166E-1,2.556395829E-1
1.550002812E1,-1.245059371E0,3.665083647E-1,2.643441558E-1
1.550917947E1,-1.285680771E0,5.150969625E-1,2.188360244E-1
1.551833083E1,-1.302020907E0,6.438329816E-1,1.672194302E-1
1.552748218E1,-1.330730796E0,7.776085734E-1,1.467560530E-1
1.553663353E1,-1.374559045E0,9.692618847E-1,1.634016484E-1
1.554578489E1,-1.405559540E0,1.127624035E0,1.918060333E-1
1.555493624E1,-1.436407328E0,1.180767775E0,2.348707765E-1
1.556408760E1,-1.457176089E0,1.272089362E0,2.909159958E-1
1.557323895E1,-1.421136141E0,1.282473803E0,3.234436214E-1
1.558239030E1,-1.392579079E0,1.330272675E0,3.498627543E-1
1.559154166E1,-1.356844425E0,1.370741248E0,3.917058110E-1
1.560069301E1,-1.316375852E0,1.255901933E0,4.109475017E-1
1.560984432E1,-1.334548593E0,1.138924718E0,4.188885093E-1
1.561899567E1,-1.323247910E0,1.044396043E0,4.330907166E-1
1.562814702E1,-1.288276911E0,9.961391687E-1,4.016320705E-1
1.563729838E1,-1.281710267E0,9.236010313E-1,3.352024257E-1
1.564644973E1,-1.237882018E0,8.034168482E-1,2.530434728E-1
1.565560108E1,-1.203521848E0,6.065713167E-1,1.508792788E-1
1.566475244E1,-1.170841455E0,4.266768098E-1,5.726693198E-2
1.567390379E1,-1.151447058E0,2.825168669E-1,-1.099525020E-2
1.568305515E1,-1.170536041E0,9.972081333E-2,-5.558710173E-2
1.569220650E1,-1.177713513E0,-1.180462316E-1,-9.941539168E-2
1.570135786E1,-1.163969398E0,-2.531961799E-1,-1.308740228E-1
1.571050921E1,-1.100288630E0,-2.736595869E-1,-1.531699449E-1
1.571966057E1,-9.897252917E-1,-3.465031087E-1,-1.852394342E-1
1.572879916E1,-8.409839869E-1,-5.477772951E-1,-2.506000996E-1
1.573796327E1,-6.507050395E-1,-8.214368224E-1,-3.510844707E-1
1.574711463E1,-3.915531039E-1,-1.074022174E0,-4.998257756E-1
1.575625322E1,-5.543438718E-2,-1.210393786E0,-6.707102656E-1
1.576541734E1,2.922904193E-1,-1.079061627E0,-8.400676847E-1
1.577456869E1,6.371136904E-1,-8.063184023E-1,-1.035080671E0
1.578370728E1,1.000415087E0,-6.493306160E-1,-1.270104170E0
1.579287140E1,1.338366389E0,-5.338805318E-1,-1.441752195E0
1.580202275E1,1.579040170E0,-3.304683566E-1,-1.473210931E0
1.581116135E1,1.719229579E0,-1.345391124E-1,-1.352110386E0
1.582032546E1,1.817881465E0,-9.025268257E-2,-1.175575495E0
1.582947682E1,1.873621225E0,-2.690782249E-1,-1.008966923E0
1.583861541E1,1.899887681E0,-5.173876286E-1,-8.675557971E-1
1.584777952E1,1.930735469E0,-6.189410090E-1,-7.939487100E-1
1.585693088E1,2.006175041E0,-5.748072863E-1,-7.898254991E-1
1.586606947E1,2.133842230E0,-4.330907166E-1,-8.200624585E-1
1.587523358E1,2.305795670E0,-2.631224692E-1,-8.580876589E-1
1.588438494E1,2.552119732E0,-1.525591016E-1,-9.084826112E-1
1.589353629E1,2.800887346E0,-2.283041626E-1,-9.828532338E-1
1.590268765E1,3.025221109E0,-4.017847776E-1,-1.039814711E0
1.591183900E1,3.212292910E0,-6.311579347E-1,-1.075549364E0
1.592097760E1,3.332324505E0,-8.119687438E-1,-1.118003249E0
1.593014171E1,3.391118526E0,-8.568660021E-1,-1.057682037E0
1.593929307E1,3.396005392E0,-8.419002295E-1,-9.263498783E-1
1.594843166E1,3.325605154E0,-6.536065936E-1,-8.481613994E-1
1.595759577E1,3.196105480E0,-4.668400288E-1,-8.078454733E-1
1.596674713E1,3.039423227E0,-3.213056624E-1,-7.826480269E-1
1.597588572E1,2.884420872E0,-1.484358907E-1,-7.637118101E-1
1.598504984E1,2.714147091E0,5.146388337E-2,-7.290462255E-1
1.599420119E1,2.620840073E0,1.794363856E-1,-6.542174220E-1
1.600335249E1,2.544331551E0,2.247917950E-1,-5.868715048E-1
1.601250385E1,2.460034609E0,1.120904684E-1,-5.367820263E-1
1.602165520E1,2.390092611E0,9.009997360E-3,-5.065450668E-1
1.603080655E1,2.306406498E0,-2.718270384E-2,-4.827220440E-1
1.603995791E1,2.200577259E0,-2.443389036E-3,-4.419479966E-1
1.604910926E1,2.074131966E0,5.909947306E-2,-3.807105422E-1
1.605824786E1,1.923863411E0,8.307522535E-2,-3.292466700E-1
1.606741197E1,1.753284335E0,3.726168349E-2,-2.987042964E-1
1.607656333E1,1.571251869E0,-8.658760041E-2,-2.644968629E-1
1.608570192E1,1.396702290E0,-2.773246467E-1,-2.588465214E-1
1.609486603E1,1.229024649E0,-4.981459379E-1,-2.683146596E-1
1.610401739E1,1.078908920E0,-7.165238261E-1,-2.942756712E-1
1.611315598E1,9.158127308E-1,-8.783983588E-1,-3.051182032E-1
1.612232010E1,7.563816309E-1,-9.773555994E-1,-2.878617644E-1
1.613147145E1,5.926745534E-1,-9.646805525E-1,-2.292204350E-1
1.614061004E1,4.282039404E-1,-8.157865405E-1,-1.412584335E-1
1.614977416E1,2.881672084E-1,-6.296308041E-1,-5.268557742E-2
1.615892551E1,1.488940120E-1,-4.697415531E-1,4.275930673E-2
1.616806411E1,8.551862091E-3,-3.332171738E-1,1.637070626E-1
1.617722822E1,-1.316375881E-1,-1.444653720E-1,2.719797492E-1
1.618637958E1,-2.273878902E-1,4.917320609E-2,3.419217467E-1
1.619553093E1,-2.846548259E-1,1.649287641E-1,3.793361485E-1
1.620468228E1,-3.759764731E-1,2.382304370E-1,3.976615667E-1
1.621383364E1,-5.030327439E-1,3.051182032E-1,4.224008918E-1
1.622298499E1,-6.642963886E-1,3.394783735E-1,4.749337435E-1
1.623213635E1,-8.955020905E-1,3.472666740E-1,5.685460567E-1
1.624128770E1,-1.197871447E0,3.936910629E-1,7.191199064E-1
1.625042629E1,-1.512763262E0,5.699204803E-1,9.268079996E-1
1.625959041E1,-1.710677743E0,8.002098799E-1,1.175575495E0
1.626874176E1,-1.623021126E0,9.787300229E-1,1.363411069E0
1.627788036E1,-1.328592777E0,1.281862974E0,1.518566251E0
1.628704447E1,-1.269798756E0,1.513374090E0,1.702125907E0
1.629619582E1,-1.455649018E0,1.145338655E0,1.835901380E0
1.630533442E1,-1.778023601E0,7.044596076E-1,1.848576546E0
1.631449848E1,-2.088028669E0,7.751652002E-1,1.723047376E0
1.632364989E1,-2.332520247E0,1.241699815E0,1.393648028E0
1.633278848E1,-2.260134935E0,1.480693698E0,9.849911928E-1
1.634195254E1,-1.899276853E0,9.631534219E-1,6.751389503E-1
1.635110390E1,-1.526049137E0,1.301104724E-1,6.076403260E-1
1.636024254E1,-1.390746474E0,-5.357130170E-1,7.379034758E-1
1.636940661E1,-1.335312128E0,-8.032641411E-1,8.819107413E-1
1.637855796E1,-1.318513751E0,-9.116895199E-1,9.127585292E-1
1.638769661E1,-1.353942990E0,-1.026070714E0,8.050966859E-1
1.639686067E1,-1.335006714E0,-9.988879561E-1,6.274928451E-1
1.640601202E1,-1.300951958E0,-8.562551737E-1,4.199574888E-1
1.641515062E1,-1.285375357E0,-7.134696245E-1,2.513636351E-1
1.642431473E1,-1.283084631E0,-5.196782947E-1,1.798945218E-1
1.643346609E1,-1.296676040E0,-1.707318127E-1,1.954711229E-1
1.644260468E1,-1.293774486E0,1.801999360E-1,2.348707765E-1
1.645176879E1,-1.282321095E0,3.775036037E-1,2.945810854E-1
1.646092015E1,-1.249946237E0,5.068505406E-1,3.839175105E-1
1.647005874E1,-1.195275426E0,5.674771070E-1,4.489727318E-1
1.647922286E1,-1.171299577E0,5.627430081E-1,4.712686539E-1
1.648837421E1,-1.174201131E0,6.212316751E-1,4.729484916E-1
1.649751280E1,-1.194511771E0,6.914790869E-1,4.501944184E-1
1.650667692E1,-1.237576604E0,7.064448595E-1,4.028537571E-1
1.651582827E1,-1.266133666E0,6.891884208E-1,3.286358118E-1
1.652497963E1,-1.273311138E0,6.412369013E-1,2.480039895E-1
1.653413098E1,-1.258039951E0,5.402944088E-1,1.792836636E-1
1.654328234E1,-1.235438585E0,4.529432356E-1,1.403421611E-1
1.655243369E1,-1.228261113E0,4.130854607E-1,1.325538605E-1
1.656158504E1,-1.230246425E0,4.245388508E-1,1.343863904E-1
1.657073640E1,-1.268271565E0,4.763081372E-1,1.340809762E-1
1.657988775E1,-1.294690728E0,4.784461260E-1,9.529217333E-2
1.658903911E1,-1.294232607E0,5.343386531E-1,4.275930673E-2
1.659819046E1,-1.318513751E0,6.939224601E-1,2.596100792E-2
1.660734182E1,-1.347070932E0,9.223793745E-1,4.337015375E-2
1.661649317E1,-1.328745484E0,1.014006495E0,5.253286287E-2
1.662564452E1,-1.363105655E0,1.047755718E0,6.704048812E-2
1.663479588E1,-1.377918720E0,1.159388065E0,1.217113137E-1
1.664394723E1,-1.368145108E0,1.332105160E0,2.286095917E-1
1.665309859E1,-1.385096192E0,1.399451017E0,3.229855001E-1
1.666224994E1,-1.413500547E0,1.374406338E0,3.869717419E-1
1.667140124E1,-1.412737012E0,1.329356313E0,4.421007037E-1
1.668055260E1,-1.398992896E0,1.302326322E0,4.630222321E-1
1.668969124E1,-1.380972981E0,1.174353838E0,4.185830951E-1
1.669885530E1,-1.321109891E0,9.300149679E-1,3.067980409E-1
1.670800666E1,-1.254069448E0,5.940489769E-1,1.670667231E-1
1.671715801E1,-1.196955204E0,2.573194206E-1,4.245388508E-2
1.672630937E1,-1.127624035E0,-3.970507067E-3,-8.139539510E-2
1.673546072E1,-1.040883780E0,-2.660239935E-1,-2.179197669E-1
1.674459937E1,-9.509364963E-1,-5.471664071E-1,-3.527642787E-1
1.675376343E1,-8.898517489E-1,-8.524373770E-1,-4.698942602E-1
1.676291478E1,-7.941014171E-1,-1.106244445E0,-5.528167486E-1
1.677205338E1,-6.116108298E-1,-1.214669824E0,-6.190937161E-1
1.678121749E1,-4.028537571E-1,-1.240478039E0,-6.786513329E-1
1.679036885E1,-1.336228400E-1,-1.373795509E0,-8.104416132E-1
1.679950744E1,1.930277348E-1,-1.424648523E0,-1.003469348E0
1.680867155E1,5.357130170E-1,-1.189166903E0,-1.205201626E0
1.681782291E1,8.825215697E-1,-7.235485911E-1,-1.374711752E0
1.682696150E1,1.146713018E0,-1.936385781E-1,-1.417776465E0
1.683612562E1,1.281557560E0,3.122956753E-1,-1.276059866E0
1.684527697E1,1.352873921E0,5.670189857E-1,-1.024238110E0
1.685441556E1,1.439614296E0,5.302154422E-1,-7.640172243E-1
1.686357968E1,1.563310862E0,3.651339412E-1,-5.047125220E-1
1.687273103E1,1.726865172E0,2.032594234E-1,-3.655920923E-1
1.688186963E1,1.903858185E0,-3.054236295E-4,-3.933856487E-1
1.689103374E1,2.142546654E0,-2.258607745E-1,-5.204418898E-1
1.690018510E1,2.439571142E0,-4.242334068E-1,-6.879667044E-1
1.690933645E1,2.749270916E0,-5.065450668E-1,-8.848122358E-1
1.691848780E1,3.084625959E0,-5.412106514E-1,-1.111436605E0
1.692763916E1,3.367600918E0,-5.920637250E-1,-1.313321590E0
1.693677775E1,3.530391693E0,-7.592831254E-1,-1.426175594E0
1.694594182E1,3.546426535E0,-9.484930634E-1,-1.454580069E0
1.695509322E1,3.454035759E0,-9.996515512E-1,-1.378834963E0
1.696423182E1,3.380275965E0,-7.937960029E-1,-1.244601250E0
1.697339588E1,3.321023941E0,-5.297572613E-1,-1.076771021E0
1.698254723E1,3.210613251E0,-2.545706034E-1,-8.994725943E-1
1.699168588E1,3.083098888E0,2.183778957E-2,-7.496622801E-1
1.700084994E1,2.960471153E0,3.132119179E-1,-6.468872428E-1
1.701000129E1,2.823336124E0,5.409052372E-1,-6.016845703E-1
1.701913989E1,2.656116486E0,6.084038615E-1,-5.375455618E-1
1.702830400E1,2.493631124E0,5.378510356E-1,-4.604261220E-1
1.703745536E1,2.400476933E0,3.741439581E-1,-3.749074936E-1
1.704659395E1,2.342293739E0,2.273878902E-1,-3.019112647E-1
1.705575807E1,2.294800520E0,7.116370648E-2,-2.893888950E-1
1.706490942E1,2.190498352E0,-1.122431830E-1,-3.113794029E-1
1.707404801E1,2.060998678E0,-3.017585576E-1,-3.268032968E-1
1.708321213E1,1.904316306E0,-4.315635860E-1,-3.399364948E-1
1.709236348E1,1.740761995E0,-5.373928547E-1,-3.477247953E-1
1.710150208E1,1.585912228E0,-6.707102656E-1,-3.530697227E-1
1.711066619E1,1.439461589E0,-8.360971808E-1,-3.381039500E-1
1.711981754E1,1.279572248E0,-9.790354371E-1,-2.872509360E-1
1.712895614E1,1.093263865E0,-1.044090629E0,-2.218902707E-1
1.713812025E1,8.742751479E-1,-9.996515512E-1,-1.673721522E-1
1.714727161E1,6.325323582E-1,-8.606837988E-1,-1.093416587E-1
1.715641020E1,3.891097009E-1,-6.334486008E-1,-1.649287529E-2
1.716557432E1,1.728697717E-1,-4.080459774E-1,8.383878320E-2
1.717472567E1,1.679830020E-3,-2.538070381E-1,1.667613089E-1
1.718387702E1,-1.262926757E-1,-1.760767251E-1,2.299840003E-1
1.719302838E1,-2.425063550E-1,-9.162709117E-2,2.944283783E-1
1.720217973E1,-3.662029207E-1,-1.068982668E-2,3.507790267E-1
1.721133108E1,-5.279247165E-1,5.619794875E-2,4.205683470E-1
1.722048239E1,-6.893411279E-1,1.369825006E-1,5.128062963E-1
1.722963374E1,-8.258655071E-1,1.878355294E-1,6.082511544E-1
1.723878510E1,-9.706363082E-1,2.119639963E-1,6.963658929E-1
1.724793645E1,-1.105480790E0,2.276933193E-1,7.594358325E-1
1.725708780E1,-1.294232607E0,2.276933193E-1,8.125795722E-1
1.726623916E1,-1.585301399E0,2.631224692E-1,9.222266674E-1
1.727539051E1,-1.896986127E0,3.758237660E-1,1.086086392E0
1.728454187E1,-1.968913436E0,5.738909841E-1,1.219098449E0
1.729368046E1,-1.748397589E0,1.029735804E0,1.322331548E0
1.730284458E1,-1.586523056E0,1.644858956E0,1.548345089E0
1.731199593E1,-1.624853730E0,1.713426590E0,1.850256324E0
1.732113452E1,-1.688839912E0,1.206117868E0,2.041298866E0
1.733029864E1,-1.917449594E0,8.854231238E-1,2.117960215E0
1.733944999E1,-2.235853672E0,8.124268651E-1,1.904010892E0
1.734858858E1,-2.309460878E0,1.118461370E0,1.458092451E0
1.735775270E1,-2.070314169E0,1.227192163E0,9.419264793E-1
1.736690405E1,-1.820172071E0,6.798729897E-1,4.842491746E-1
1.737604265E1,-1.644706249E0,4.657710344E-2,2.696890533E-1
1.738520676E1,-1.434574842E0,-5.612159371E-1,2.483094037E-1
1.739435812E1,-1.271631241E0,-9.263498783E-1,3.561239541E-1
1.740349671E1,-1.209477544E0,-1.105938911E0,4.677563012E-1
1.741266082E1,-1.212684512E0,-1.184280157E0,5.008947253E-1
1.742181218E1,-1.309198380E0,-1.046534061E0,4.732539058E-1
1.743095077E1,-1.435643792E0,-8.064711094E-1,3.920112252E-1
1.744011489E1,-1.538877010E0,-4.407263100E-1,3.055763543E-1
1.744926624E1,-1.595838428E0,-3.176405653E-2,2.518217862E-1
1.745840484E1,-1.599198103E0,3.352024257E-1,2.386885732E-1
1.746756890E1,-1.551552057E0,5.955760479E-1,2.516690791E-1
1.747672025E1,-1.470156670E0,7.020162344E-1,3.046600819E-1
1.748585890E1,-1.389524817E0,6.580352187E-1,4.341596961E-1
1.749502296E1,-1.337297320E0,5.369347334E-1,5.792359114E-1
1.750417432E1,-1.301104665E0,3.704788685E-1,6.817055345E-1
1.751331291E1,-1.256360054E0,2.447970361E-1,7.278245091E-1
1.752247702E1,-1.222610831E0,2.008160353E-1,7.104153633E-1
1.753162838E1,-1.206575990E0,2.186833173E-1,6.531484127E-1
1.754076697E1,-1.211462855E0,1.803526580E-1,5.767925382E-1
1.754993108E1,-1.218182087E0,7.941014320E-2,4.834856093E-1
1.755908244E1,-1.208408594E0,7.956285775E-2,3.484883606E-1
1.756823379E1,-1.170994163E0,1.050657257E-1,2.223484069E-1
1.757738515E1,-1.114185452E0,1.313321590E-1,1.255291104E-1
1.758653650E1,-1.036913276E0,1.401894391E-1,6.566607952E-2
1.759568786E1,-9.781191945E-1,1.870719790E-1,3.130592033E-2
1.760483921E1,-1.022100210E0,5.002838969E-1,1.786728203E-2
1.761399056E1,-1.051878929E0,7.980719209E-1,2.473931387E-2
1.762314192E1,-1.058292866E0,9.428427219E-1,8.872556686E-2
1.763229327E1,-1.149919987E0,1.147934675E0,1.838650256E-1
1.764144463E1,-1.183822036E0,1.169314384E0,2.678565085E-1
1.765059598E1,-1.184890985E0,1.133274436E0,3.032856584E-1
1.765974734E1,-1.205659747E0,1.180920482E0,3.013004065E-1
1.766889869E1,-1.162136912E0,1.239256382E0,2.690782249E-1
1.767803728E1,-1.107771516E0,1.250557065E0,2.011214644E-1
1.768720135E1,-1.075702071E0,1.157402873E0,9.025268257E-2
1.769635270E1,-1.010646820E0,9.732323885E-1,-1.847812906E-2
1.770550405E1,-9.759812355E-1,8.417475224E-1,-7.727217674E-2
1.771465541E1,-9.307785034E-1,7.495095730E-1,-9.590301663E-2
1.772380676E1,-8.191461563E-1,6.821636558E-1,-1.200314835E-1
1.773295812E1,-7.635591030E-1,5.639647245E-1,-1.721062213E-1
1.774210947E1,-8.023478985E-1,3.629959822E-1,-2.283041626E-1
1.775126083E1,-8.344173431E-1,2.458660156E-1,-2.571666837E-1
1.776039942E1,-8.739697337E-1,1.873773932E-1,-2.550287247E-1
1.776956353E1,-9.246700406E-1,1.294996142E-1,-2.351761907E-1
1.777871489E1,-9.391776323E-1,7.666133344E-2,-1.840177327E-1
1.778786624E1,-8.935168386E-1,-2.672456764E-2,-1.377460510E-1
1.779701760E1,-7.966975570E-1,-2.460187376E-1,-1.386623234E-1
1.780616895E1,-6.598677635E-1,-5.569399595E-1,-1.950129867E-1
1.781530754E1,-4.662291706E-1,-8.021951914E-1,-3.057290614E-1
1.782447166E1,-2.044811249E-1,-9.755230546E-1,-4.857762754E-1
1.783362301E1,1.136175916E-1,-1.073411345E0,-6.922426820E-1
1.784276161E1,4.303418994E-1,-9.761339426E-1,-8.958075047E-1
1.785192572E1,7.692093849E-1,-6.389462352E-1,-1.145338655E0
1.786107708E1,1.129151106E0,-2.260134816E-1,-1.398229361E0
1.787021567E1,1.405406833E0,1.476723254E-1,-1.519329786E0
1.787937978E1,1.605612040E0,3.524588645E-1,-1.448471546E0
1.788853114E1,1.773900390E0,3.300102353E-1,-1.262926698E0
1.789766973E1,1.879882455E0,1.580567211E-1,-1.050809979E0
1.790683379E1,1.947839141E0,-1.878355257E-2,-8.302941322E-1
1.791598515E1,2.026791096E0,-1.127013192E-1,-6.453601122E-1
1.792512379E1,2.078407764E0,-1.417165697E-1,-5.410579443E-1
1.793428786E1,2.134300232E0,-6.123743951E-2,-5.248705149E-1
1.794343921E1,2.269603014E0,1.985253580E-2,-6.326850653E-1
1.795257780E1,2.513636589E0,5.375456065E-2,-8.489249945E-1
1.796174192E1,2.773399353E0,6.108472496E-2,-1.062110662E0
1.797089327E1,2.951461315E0,-2.336490713E-2,-1.176186442E0
1.798004463E1,3.064620733E0,-2.576248348E-1,-1.185501814E0
1.798919598E1,3.116389990E0,-4.937172830E-1,-1.136175871E0
1.799834734E1,3.072408915E0,-6.452074051E-1,-1.053406119E0
1.800748593E1,3.006284714E0,-6.255075932E-1,-9.310839176E-1
1.801665004E1,2.936648130E0,-5.503733754E-1,-7.685985565E-1
1.802580140E1,2.840745211E0,-4.427115619E-1,-6.135960817E-1
1.803493999E1,2.708038568E0,-3.387148082E-1,-4.949389994E-1
1.804410411E1,2.557312012E0,-2.032594234E-1,-4.393518865E-1
1.805325546E1,2.422314882E0,-5.803048983E-2,-4.294256270E-1
1.806239405E1,2.296480179E0,3.145863488E-2,-4.364503622E-1
1.807155817E1,2.209434509E0,3.619270027E-2,-4.370612204E-1
1.808070952E1,2.188360214E0,-2.473931387E-2,-4.280512035E-1
1.808984812E1,2.174005508E0,-1.380514801E-1,-4.158342779E-1
1.809901223E1,2.128649950E0,-2.554868758E-1,-3.727695346E-1
1.810816358E1,2.027860165E0,-3.367295563E-1,-3.067980409E-1
1.811730218E1,1.883852959E0,-3.825430870E-1,-2.498365343E-1
1.812646629E1,1.737402320E0,-4.205683470E-1,-2.226538211E-1
1.813561760E1,1.620272398E0,-4.883723855E-1,-2.266243398E-1
1.814475624E1,1.526812673E0,-5.760289431E-1,-2.551814318E-1
1.815392030E1,1.435032964E0,-6.568135023E-1,-2.533488870E-1
1.816307166E1,1.346307397E0,-7.189671993E-1,-2.435753495E-1
1.817221025E1,1.237423778E0,-7.493568659E-1,-2.467822880E-1
1.818137437E1,1.094180107E0,-7.157602906E-1,-2.490729690E-1
1.819052572E1,9.142856598E-1,-6.027535200E-1,-2.179197669E-1
1.819967708E1,7.221741676E-1,-4.563029110E-1,-1.546970755E-1
1.820882843E1,5.506787896E-1,-3.345915973E-1,-6.627693027E-2
1.821797978E1,4.306473136E-1,-2.017323077E-1,5.864133686E-2
1.822713114E1,3.542914093E-1,-6.978929788E-2,2.087570578E-1
1.823628249E1,2.812951505E-1,4.016320780E-2,3.248180151E-1
1.824543385E1,1.765348613E-1,1.530172378E-1,3.869717419E-1
1.825457244E1,2.336490713E-2,2.383831441E-1,4.016320705E-1
1.826373655E1,-1.624853760E-1,2.283041626E-1,3.855973184E-1
1.827288791E1,-3.568875194E-1,1.792836636E-1,3.807105422E-1
1.828203926E1,-5.494571328E-1,2.370087355E-1,4.477510452E-1
1.829119062E1,-7.499676943E-1,3.347443044E-1,5.769452453E-1
1.830034197E1,-1.010799527E0,3.457395434E-1,7.246175408E-1
1.830949333E1,-1.271020412E0,2.936648130E-1,8.816053271E-1
1.831864468E1,-1.456412554E0,2.148655206E-1,1.018893242E0
1.832779598E1,-1.546818018E0,1.577513069E-1,1.088071704E0
1.833693463E1,-1.501462579E0,3.671191931E-1,1.143200636E0
1.834609869E1,-1.537044406E0,8.119687438E-1,1.347070932E0
1.835525004E1,-1.661962628E0,9.087880254E-1,1.680135369E0
1.836438864E1,-1.541320324E0,7.258392572E-1,1.970593214E0
1.837355275E1,-1.479472041E0,5.839699507E-1,2.066954374E0
1.838270411E1,-1.878355265E0,-4.367557913E-2,1.802152157E0
1.839184270E1,-2.233868361E0,-2.412846684E-2,1.417929173E0
1.840100682E1,-2.101467371E0,9.608627558E-1,1.125027895E0
1.841015817E1,-1.818186879E0,1.347681761E0,8.281561732E-1
1.841929676E1,-1.654174328E0,8.125795722E-1,6.129852533E-1
1.842846088E1,-1.578276634E0,-7.757759839E-2,5.702258945E-1
1.843761223E1,-1.460841179E0,-7.296570539E-1,6.667397618E-1
1.844675083E1,-1.338213682E0,-8.000571728E-1,8.165500760E-1
1.845591494E1,-1.295607090E0,-7.461498976E-1,8.461761475E-1
1.846506629E1,-1.293469071E0,-8.896990418E-1,6.484143734E-1
1.847420489E1,-1.335312128E0,-9.203941226E-1,3.709369898E-1
1.848336900E1,-1.382347345E0,-7.282826304E-1,1.963873953E-1
1.849252036E1,-1.414874911E0,-3.915531039E-1,1.617218107E-1
1.850165895E1,-1.429382563E0,-2.916795574E-2,2.351761907E-1
1.851082306E1,-1.418234587E0,2.521272004E-1,3.315373361E-1
1.851997442E1,-1.367686987E0,3.555130959E-1,4.277457893E-1
1.852912577E1,-1.318971992E0,3.489464819E-1,5.679352283E-1
1.853827708E1,-1.289956689E0,3.013004065E-1,6.843016148E-1
1.854742843E1,-1.280641317E0,2.779355049E-1,7.233958840E-1
1.855657978E1,-1.272089362E0,2.874036431E-1,6.978929639E-1
1.856573114E1,-1.234216928E0,2.843494117E-1,6.394043565E-1
1.857488249E1,-1.176033735E0,2.267770469E-1,5.661026835E-1
1.858403385E1,-1.127471328E0,1.331647038E-1,4.839437306E-1
1.859318520E1,-1.076618314E0,1.542389300E-2,3.866663277E-1
1.860233655E1,-1.038898468E0,-1.343864016E-2,2.556395829E-1
1.861148791E1,-1.068677306E0,1.313321572E-2,1.009425074E-1
1.862063926E1,-1.151141644E0,1.178935245E-1,-2.916795574E-2
1.862979062E1,-1.225817680E0,3.999522328E-1,-1.246128380E-1
1.863894197E1,-1.261552334E0,7.583668828E-1,-1.702736765E-1
1.864809332E1,-1.284611821E0,1.128998399E0,-1.522536725E-1
1.865724468E1,-1.286749721E0,1.395633221E0,-5.299099907E-2
1.866639603E1,-1.317444801E0,1.570488334E0,1.291942000E-1
1.867554739E1,-1.297286868E0,1.507265568E0,2.954973578E-1
1.868469874E1,-1.265828252E0,1.392579079E0,3.990359604E-1
1.869383734E1,-1.221389055E0,1.294690728E0,4.526378214E-1
1.870300145E1,-1.165343881E0,1.156792045E0,4.396573007E-1
1.871215280E1,-1.107313395E0,9.772028923E-1,3.881934285E-1
1.872129140E1,-1.014311910E0,8.541171551E-1,3.407000601E-1
1.873045546E1,-9.468132257E-1,7.262973785E-1,2.704526186E-1
1.873960682E1,-8.852704167E-1,5.076140761E-1,1.360662282E-1
1.874875817E1,-8.058602214E-1,2.594573796E-1,-4.642439261E-2
1.875790952E1,-8.148702383E-1,4.474456236E-2,-2.221956849E-1
1.876706088E1,-8.492304087E-1,1.114796288E-2,-3.396310806E-1
1.877621223E1,-8.799254894E-1,1.404948682E-1,-3.643703759E-1
1.878536359E1,-9.049702287E-1,3.003841341E-1,-3.194731176E-1
1.879451494E1,-9.306257963E-1,3.710896969E-1,-2.328855246E-1
1.880365353E1,-9.480349422E-1,3.468085229E-1,-1.291942000E-1
1.881281765E1,-8.939749599E-1,2.501419485E-1,-4.886778072E-2
1.882196900E1,-7.925743461E-1,1.557660550E-1,-3.084778599E-2
1.883112036E1,-6.824691296E-1,5.696150661E-2,-9.055810422E-2
1.884027171E1,-5.256340504E-1,-4.260659590E-2,-1.974563748E-1
1.884942306E1,-3.483356535E-1,-1.473668963E-1,-3.707842827E-1
1.885856166E1,-1.898207814E-1,-2.208212912E-1,-5.674771070E-1
1.886772577E1,-4.535540938E-2,-2.487675399E-1,-7.049177289E-1
1.887687713E1,1.024696305E-1,-1.766875684E-1,-8.292251825E-1
1.888602848E1,3.017585576E-1,-6.719320081E-3,-9.359707236E-1
1.889517978E1,5.189147592E-1,1.278197914E-1,-9.796462655E-1
1.890433114E1,7.650861740E-1,1.776038408E-1,-9.743013978E-1
1.891348249E1,1.027139664E0,1.916533262E-1,-8.961129189E-1
1.892263385E1,1.183516622E0,1.214058921E-1,-7.113316059E-1
1.893178520E1,1.238492846E0,-2.012741715E-1,-4.810422063E-1
1.894092379E1,1.347376347E0,-6.681141853E-1,-3.205420971E-1
1.895008791E1,1.502073407E0,-9.636115432E-1,-3.034383655E-1
1.895923926E1,1.683036923E0,-9.648332596E-1,-3.765873313E-1
1.896837786E1,1.935469508E0,-8.081509471E-1,-4.854708612E-1
1.897754197E1,2.289913654E0,-7.174401283E-1,-6.850652099E-1
1.898669332E1,2.641150951E0,-6.449019909E-1,-9.581139088E-1
1.899583192E1,2.887475014E0,-7.023216486E-1,-1.237882018E0
1.900499603E1,2.986890316E0,-9.717052579E-1,-1.446333647E0
1.901414739E1,3.052098274E0,-1.128540277E0,-1.522689462E0
1.902328598E1,3.102951288E0,-1.119835734E0,-1.467407823E0
1.903245010E1,3.167853832E0,-9.388722181E-1,-1.312558055E0
1.904160145E1,3.128454208E0,-6.026008129E-1,-1.142742515E0
1.905074004E1,3.031940460E0,-1.997470558E-1,-1.006370902E0
1.905990416E1,2.954210043E0,1.640124917E-1,-8.886300325E-1
1.906905546E1,2.868996859E0,5.390726924E-1,-7.637118101E-1
1.907820682E1,2.752935886E0,8.402203918E-1,-6.224533319E-1
1.908735817E1,2.631682634E0,9.616262913E-1,-4.708105326E-1
1.909650952E1,2.514858246E0,8.780929446E-1,-3.775036037E-1
1.910564812E1,2.412693977E0,6.508577466E-1,-3.432961702E-1
1.911481223E1,2.352525473E0,4.126273096E-1,-3.631486893E-1
1.912396359E1,2.319234371E0,1.904316396E-1,-4.590517282E-1
1.913311494E1,2.299992561E0,3.466558084E-2,-5.708367825E-1
1.914226629E1,2.254942656E0,-1.397313178E-1,-6.027535200E-1
1.915141765E1,2.179655790E0,-2.702999115E-1,-6.313106418E-1
1.916056900E1,2.090166569E0,-3.800997138E-1,-6.305471063E-1
1.916972036E1,1.975021958E0,-4.934118688E-1,-5.946598053E-1
1.917887171E1,1.830251098E0,-5.277720094E-1,-5.480827093E-1
1.918801030E1,1.696322799E0,-6.097782850E-1,-4.952444136E-1
1.919717442E1,1.563005447E0,-6.699467301E-1,-4.416425824E-1
1.920632577E1,1.416554809E0,-7.159129977E-1,-4.152234197E-1
1.921546437E1,1.238187432E0,-7.547017932E-1,-4.103366435E-1
1.922462843E1,1.015686274E0,-7.605048418E-1,-4.077405334E-1
1.923377978E1,7.835643291E-1,-7.264500856E-1,-3.941491842E-1
1.924291843E1,5.566345453E-1,-5.983248949E-1,-3.304683566E-1
1.925208249E1,3.753656447E-1,-3.782671690E-1,-2.281514555E-1
1.926123385E1,2.495311052E-1,-1.942494214E-1,-1.105633527E-1
1.927038520E1,1.310267299E-1,-9.620844573E-2,9.468132630E-3
1.927953655E1,3.512371797E-3,-3.390202299E-2,1.324011385E-1
1.928868791E1,-1.264453828E-1,4.764608666E-2,2.467822880E-1
1.929783926E1,-2.667875290E-1,1.146865711E-1,3.416163325E-1
1.930699062E1,-4.309527278E-1,1.672194302E-1,4.254551232E-1
1.931614197E1,-6.531484127E-1,2.244863659E-1,5.282301903E-1
1.932529332E1,-9.660549164E-1,2.602209449E-1,6.792621613E-1
1.933444468E1,-1.296523333E0,3.219164908E-1,8.887827396E-1
1.934359603E1,-1.594616771E0,3.939964771E-1,1.129609346E0
1.935273463E1,-1.763974190E0,4.120164812E-1,1.339740753E0
1.936189874E1,-1.686396599E0,4.815003574E-1,1.492299795E0
1.937105010E1,-1.541931152E0,7.718055248E-1,1.718924165E0
1.938018869E1,-1.489703774E0,1.126249671E0,2.027402163E0
1.938935275E1,-1.443126678E0,8.744278550E-1,2.178739548E0
1.939850411E1,-1.553384542E0,3.562766612E-1,2.079476833E0
1.940764275E1,-1.903858185E0,-1.850867122E-1,1.723810911E0
1.941680682E1,-2.294953108E0,6.917845458E-2,1.256207347E0
1.942595817E1,-2.254026413E0,1.061957955E0,8.496885300E-1
1.943509676E1,-1.897902489E0,1.332868695E0,4.550811946E-1
1.944426088E1,-1.690061688E0,7.350019813E-1,2.084516287E-1
1.945341223E1,-1.540862203E0,-1.747023165E-1,2.070772201E-1
1.946255082E1,-1.315765023E0,-8.460234404E-1,4.295783341E-1
1.947171494E1,-1.240019917E0,-8.489249945E-1,7.507312894E-1
1.948086629E1,-1.308129430E0,-6.259657145E-1,9.339854717E-1
1.949000489E1,-1.399909258E0,-5.239542127E-1,8.562551737E-1
1.949916900E1,-1.491841674E0,-3.280249834E-1,6.021426916E-1
1.950832036E1,-1.550788522E0,1.771457121E-2,3.997995257E-1
1.951745895E1,-1.565296054E0,3.054236174E-1,3.200839758E-1
1.952662307E1,-1.531394124E0,4.566083252E-1,3.037438095E-1
1.953577442E1,-1.459772229E0,5.676298141E-1,3.048127890E-1
1.954491301E1,-1.356691718E0,5.247178078E-1,3.917058110E-1
1.955407708E1,-1.275296330E0,4.657710493E-1,5.089884996E-1
1.956322843E1,-1.195122719E0,4.060607255E-1,6.281036735E-1
1.957237978E1,-1.143658757E0,3.358132839E-1,6.864396334E-1
1.958153114E1,-1.108993173E0,2.615953386E-1,6.635328531E-1
1.959068249E1,-1.091584086E0,2.240282297E-1,5.697677732E-1
1.959982109E1,-1.097387075E0,2.428117841E-1,4.457657933E-1
1.960898520E1,-1.096928954E0,3.151971996E-1,3.258870244E-1
1.961813655E1,-1.093416572E0,3.889569938E-1,2.159345001E-1
1.962728791E1,-1.086697221E0,4.236225784E-1,1.389677525E-1
1.963643926E1,-1.091431379E0,4.753918648E-1,1.304158866E-1
1.964559062E1,-1.086239100E0,5.254813433E-1,1.420219839E-1
1.965474197E1,-1.085170150E0,6.061131954E-1,1.473668963E-1
1.966389332E1,-1.086544514E0,6.917845011E-1,1.388150454E-1
1.967304468E1,-1.108076930E0,7.579087615E-1,1.227803007E-1
1.968219603E1,-1.131289124E0,8.127322793E-1,1.120904684E-1
1.969134739E1,-1.189777732E0,9.494093657E-1,1.128540337E-1
1.970049869E1,-1.282931924E0,1.240325332E0,1.204896197E-1
1.970965004E1,-1.263690233E0,1.301562786E0,8.215895295E-2
1.971880140E1,-1.254985690E0,1.374559045E0,7.482878864E-2
1.972795275E1,-1.254832983E0,1.413195133E0,6.810946763E-2
1.973710411E1,-1.249029875E0,1.323858738E0,6.566607952E-2
1.974625546E1,-1.270409584E0,1.292094707E0,9.865183383E-2
1.975540682E1,-1.269646049E0,1.318819284E0,1.530172378E-1
1.976455817E1,-1.227497578E0,1.252847672E0,2.052446753E-1
1.977370952E1,-1.197413325E0,1.054627776E0,2.348707765E-1
1.978286088E1,-1.198634982E0,8.371661901E-1,2.460187376E-1
1.979201223E1,-1.179087877E0,6.575770974E-1,2.365505993E-1
1.980116358E1,-1.132968903E0,5.328115225E-1,2.009687424E-1
1.981031494E1,-1.142131686E0,4.162923992E-1,1.411057115E-1
1.981946629E1,-1.193137407E0,2.278460264E-1,6.749862432E-2
1.982861765E1,-1.217571259E0,2.809897438E-2,-9.926267900E-3
1.983776900E1,-1.165038466E0,-9.498675168E-2,-7.986827940E-2
1.984692036E1,-1.067761064E0,-1.896680743E-1,-1.320957243E-1
1.985607166E1,-9.640696645E-1,-3.222219348E-1,-1.698155403E-1
1.986522301E1,-8.938222528E-1,-5.234960914E-1,-2.058555335E-1
1.987436166E1,-8.622109294E-1,-6.754443645E-1,-2.243336588E-1
1.988352572E1,-8.336538076E-1,-6.253548861E-1,-2.144073844E-1
1.989267708E1,-8.037222624E-1,-4.637857676E-1,-2.064663768E-1
1.990182843E1,-7.605048418E-1,-3.210002482E-1,-2.360924631E-1
1.991097978E1,-6.612421870E-1,-3.399364948E-1,-3.281776905E-1
1.992013114E1,-4.729484916E-1,-5.094466209E-1,-4.764608741E-1
1.992926973E1,-2.269297540E-1,-6.400152445E-1,-6.656708121E-1
1.993843385E1,6.780404598E-2,-6.372663975E-1,-8.724426031E-1
1.994758520E1,3.646758199E-1,-5.056288242E-1,-1.075091124E0
1.995672379E1,6.109999418E-1,-2.547233105E-1,-1.271325827E0
1.996588791E1,8.345700502E-1,4.123218823E-3,-1.469545841E0
1.997503926E1,1.135717750E0,1.864611208E-1,-1.638597727E0
1.998417786E1,1.448776960E0,4.265241027E-1,-1.688992620E0
1.999334197E1,1.603932142E0,7.328640223E-1,-1.556896925E0
2.000249327E1,1.710677743E0,8.774821162E-1,-1.293010950E0
2.001163192E1,1.878049850E0,8.367080092E-1,-9.944593310E-1
2.002079598E1,2.073826551E0,6.849125028E-1,-7.695148587E-1
2.002994734E1,2.217680931E0,5.347967744E-1,-6.607840061E-1
2.003908593E1,2.327022552E0,4.857762754E-1,-6.137487888E-1
2.004825004E1,2.472098827E0,5.628957748E-1,-5.334223509E-1
2.005740140E1,2.641608953E0,5.883986354E-1,-4.173613787E-1
2.006653999E1,2.787754059E0,4.579827189E-1,-3.436015844E-1
2.007570411E1,2.963220119E0,1.038440317E-1,-3.982724249E-1
2.008485546E1,3.125400066E0,-2.408265322E-1,-5.659499764E-1
2.009399405E1,3.264978647E0,-4.802786708E-1,-7.102626562E-1
2.010315817E1,3.385010004E0,-7.160657048E-1,-7.988355160E-1
2.011230952E1,3.415705204E0,-9.457442760E-1,-8.553388715E-1
2.012144812E1,3.404404402E0,-1.061041713E0,-8.828269839E-1
2.013061223E1,3.362561464E0,-1.076618314E0,-8.550334573E-1
2.013976353E1,3.268796444E0,-1.035538793E0,-7.884510756E-1
2.014890218E1,3.163425207E0,-9.371923804E-1,-7.020162344E-1
2.015806624E1,3.064315319E0,-9.123004079E-1,-6.146650314E-1
2.016721760E1,2.940771341E0,-7.779139876E-1,-5.454866290E-1
2.017636895E1,2.830971718E0,-5.897729993E-1,-4.792096615E-1
2.018552030E1,2.732472420E0,-5.494571328E-1,-4.530959427E-1
2.019467166E1,2.665584803E0,-6.400152445E-1,-4.859289825E-1
2.020382301E1,2.612441063E0,-6.662816405E-1,-5.436540842E-1
2.021297437E1,2.555479527E0,-6.242858768E-1,-5.716003180E-1
2.022212572E1,2.493631124E0,-5.195255876E-1,-5.781669021E-1
2.023127708E1,2.396659136E0,-3.816268146E-1,-5.435013771E-1
2.024042843E1,2.277544022E0,-2.985515893E-1,-5.114318728E-1
2.024957978E1,2.132467747E0,-3.064926267E-1,-4.618005157E-1
2.025871838E1,1.976243615E0,-3.828485310E-1,-3.907895386E-1
2.026788249E1,1.816201568E0,-4.317162931E-1,-3.326063454E-1
2.027703385E1,1.657839417E0,-4.578300118E-1,-2.898470163E-1
2.028617244E1,1.495048642E0,-4.747810364E-1,-2.579302490E-1
2.029533650E1,1.326760292E0,-4.815003574E-1,-2.267770469E-1
2.030448786E1,1.115407109E0,-4.992149174E-1,-2.044811249E-1
2.031362645E1,8.403730989E-1,-4.966188073E-1,-1.818797737E-1
2.032279057E1,5.566345453E-1,-4.341596961E-1,-1.284306347E-1
2.033194192E1,3.028275371E-1,-2.858765125E-1,-2.596100792E-2
2.034109327E1,8.918370306E-2,-1.036913246E-1,1.311794519E-1
2.035024463E1,-9.651386738E-2,-2.199050039E-2,2.812951505E-1
2.035939598E1,-2.863346636E-1,-6.337540597E-2,4.008685052E-1
2.036854734E1,-4.592044353E-1,-1.634016484E-1,5.128062963E-1
2.037769869E1,-5.920637250E-1,-2.432699203E-1,6.065713167E-1
2.038685004E1,-6.977402568E-1,-2.341072112E-1,6.870504618E-1
2.039598864E1,-7.910472155E-1,-1.864611208E-1,7.553126216E-1
2.040515275E1,-8.977927566E-1,-1.447708011E-1,8.380824327E-1
2.041430411E1,-1.018435121E0,-1.844758689E-1,8.984035850E-1
2.042345541E1,-1.147629261E0,-2.328855246E-1,9.127585292E-1
2.043260676E1,-1.246586561E0,-1.890572309E-1,8.974873424E-1
2.044175812E1,-1.292858243E0,-2.519745007E-2,8.840487003E-1
2.045089671E1,-1.246739268E0,1.905843467E-1,8.812998533E-1
2.046006083E1,-1.089140654E0,2.907632887E-1,8.646543026E-1
2.046921218E1,-9.625425935E-1,3.182514310E-1,9.179506898E-1
2.047835077E1,-9.620844126E-1,3.781144619E-1,1.108382344E0
2.048751489E1,-9.127585292E-1,2.724378705E-1,1.323858738E0
2.049666624E1,-8.258655071E-1,-2.102841735E-1,1.470767498E0
2.050580484E1,-9.875873327E-1,-8.167027831E-1,1.470003963E0
2.051496895E1,-1.271325827E0,-1.159846187E0,1.357760787E0
2.052412030E1,-1.539945960E0,-6.894938350E-1,1.249793530E0
2.053325890E1,-1.625311852E0,5.514423847E-1,1.193442822E0
2.054242301E1,-1.536433578E0,1.684258580E0,1.262773991E0
2.055157432E1,-1.494132400E0,1.630809426E0,1.290720224E0
2.056071296E1,-1.609124422E0,6.277982593E-1,1.298508525E0
2.056987702E1,-1.708387017E0,-5.879404768E-2,1.406323075E0
2.057902838E1,-1.761683464E0,-6.337540597E-2,1.510472536E0
2.058816697E1,-1.795890927E0,7.192726433E-2,1.421594262E0
2.059733108E1,-1.739234805E0,8.353336155E-2,1.136175871E0
2.060648244E1,-1.594616771E0,-6.658235192E-2,7.397360206E-1
2.061562103E1,-1.433505774E0,-2.715215981E-1,3.721587062E-1
2.062478515E1,-1.345238328E0,-3.419217467E-1,2.086043358E-1
2.063393650E1,-1.310114622E0,-4.057552814E-1,2.174616307E-1
2.064308786E1,-1.275296330E0,-4.198047817E-1,2.994678617E-1
2.065223921E1,-1.263232112E0,-3.843756318E-1,4.181249440E-1
2.066139056E1,-1.274838209E0,-2.881672084E-1,5.216635466E-1
2.067052916E1,-1.297744989E0,-1.101052165E-1,5.964923501E-1
2.067969327E1,-1.312863469E0,1.207950488E-1,6.128324866E-1
2.068884458E1,-1.300341129E0,3.358132839E-1,5.882459283E-1
2.069799593E1,-1.287971497E0,4.773771465E-1,5.583143830E-1
2.070714728E1,-1.294690728E0,5.561764240E-1,5.357130170E-1
2.071629864E1,-1.310878277E0,6.423059106E-1,5.274665952E-1
2.072544999E1,-1.327371120E0,7.061394453E-1,5.260922313E-1
2.073460135E1,-1.342336893E0,7.241594195E-1,5.279247165E-1
2.074375270E1,-1.335464835E0,7.102626562E-1,5.236487985E-1
2.075290405E1,-1.349819779E0,6.595623493E-1,5.173876286E-1
2.076205541E1,-1.394869685E0,5.914528370E-1,5.147915483E-1
2.077120676E1,-1.382652760E0,4.853181541E-1,4.801259339E-1
2.078035812E1,-1.335464835E0,4.121691883E-1,4.085040987E-1
2.078950947E1,-1.292552829E0,3.396310806E-1,3.202366829E-1
2.079866083E1,-1.247655511E0,3.038965166E-1,2.710634768E-1
2.080781218E1,-1.224137902E0,3.016058207E-1,2.693836391E-1
2.081696353E1,-1.223985195E0,2.547233105E-1,3.084778786E-1
2.082611484E1,-1.227344871E0,2.000524700E-1,3.561239541E-1
2.083526619E1,-1.212837219E0,1.524063945E-1,3.678827584E-1
2.084441754E1,-1.201078415E0,1.160609797E-1,3.161134422E-1
2.085356890E1,-1.184890985E0,1.212531775E-1,2.386885732E-1
2.086272025E1,-1.123500824E0,1.963873953E-1,1.542389393E-1
2.087187161E1,-1.075243831E0,2.680092454E-1,1.020114943E-1
2.088102296E1,-1.066539288E0,3.336753249E-1,9.468132257E-2
2.089017432E1,-1.067608237E0,4.350759685E-1,1.244601309E-1
2.089932567E1,-1.065623045E0,5.430431962E-1,1.701209545E-1
2.090847702E1,-1.044396043E0,6.384881139E-1,2.160872221E-1
2.091762838E1,-1.023627281E0,6.893411279E-1,2.600682080E-1
2.092677973E1,-1.009119630E0,7.146912813E-1,2.895416021E-1
2.093593108E1,-9.712471366E-1,7.408050299E-1,3.051182032E-1
2.094508244E1,-9.098569751E-1,7.788302302E-1,3.115321100E-1
2.095423374E1,-8.770239353E-1,8.197570443E-1,3.037438095E-1
2.096338510E1,-8.861866593E-1,8.316685557E-1,2.658712566E-1
2.097253645E1,-9.243646264E-1,7.941014171E-1,2.015796006E-1
2.098168780E1,-9.736905098E-1,7.647807598E-1,1.212531775E-1
2.099083916E1,-9.993461370E-1,7.747070193E-1,4.230117425E-2
2.099999051E1,-9.962918758E-1,7.823426127E-1,7.635590737E-4
2.100914187E1,-9.793408513E-1,7.637118101E-1,-1.313321572E-2
2.101829322E1,-9.391776323E-1,7.463026643E-1,1.832541777E-3
2.102744458E1,-8.867974877E-1,7.302678823E-1,3.405473381E-2
2.103659593E1,-8.657232523E-1,7.014053464E-1,5.421269313E-2
2.104574728E1,-8.721371889E-1,6.670452356E-1,5.787777901E-2
2.105489864E1,-8.736643195E-1,6.363501549E-1,4.566083103E-2
2.106404999E1,-8.654178381E-1,6.079457402E-1,3.176405653E-2
2.107320135E1,-8.394568563E-1,6.091674566E-1,2.153236605E-2
2.108235265E1,-8.171609044E-1,6.061131954E-1,2.351761982E-2
2.109150400E1,-8.064711094E-1,6.339067221E-1,4.856235534E-2
2.110065536E1,-8.229639530E-1,7.401941419E-1,1.027750522E-1
2.110980671E1,-8.932114244E-1,9.049702287E-1,1.730224788E-1
2.111895806E1,-1.021183848E0,1.059819937E0,2.348707765E-1
2.112810942E1,-1.187639832E0,1.183822036E0,2.782409191E-1
2.113724801E1,-1.413347840E0,1.187181592E0,3.003841341E-1
2.114641213E1,-1.665780425E0,1.013090134E0,2.878617644E-1
2.115556348E1,-1.871941447E0,7.233958840E-1,2.418955117E-1
2.116470208E1,-1.961125135E0,3.964398801E-1,1.566823274E-1
2.117386619E1,-1.897749662E0,1.001789495E-1,4.734066129E-2
2.118301754E1,-1.708081603E0,-9.697200358E-2,-4.642439261E-2
2.119216885E1,-1.451983929E0,-2.397575527E-1,-1.201841980E-1
2.120132025E1,-1.166412830E0,-3.750602305E-1,-1.742441803E-1
2.121047155E1,-8.797727823E-1,-5.060869455E-1,-2.124221325E-1
2.121961020E1,-6.221479177E-1,-6.287145615E-1,-2.244863659E-1
2.122877426E1,-4.294256270E-1,-7.560762167E-1,-2.163926363E-1
2.123792562E1,-2.958027720E-1,-8.751913905E-1,-2.018850148E-1
2.124706421E1,-2.079934925E-1,-9.260444641E-1,-1.835595965E-1
2.125622833E1,-1.487413049E-1,-8.609892130E-1,-1.763821393E-1
2.126537968E1,-1.265980899E-1,-7.108734846E-1,-1.745496094E-1
2.127451827E1,-1.270562261E-1,-5.282301903E-1,-1.637070626E-1
2.128368239E1,-1.571404636E-1,-3.371876776E-1,-1.501157135E-1
2.129283374E1,-2.182251811E-1,-1.293469071E-1,-1.536280811E-1
2.130198510E1,-2.932066917E-1,7.773031294E-2,-1.757712960E-1
2.131113640E1,-3.816268146E-1,2.557922900E-1,-2.021904439E-1
2.132028775E1,-4.642439187E-1,3.961344361E-1,-1.997470558E-1
2.132942640E1,-4.995203316E-1,5.331169367E-1,-1.579040140E-1
2.133859046E1,-4.740174711E-1,6.798729897E-1,-8.887827396E-2
2.134774182E1,-3.791834414E-1,7.928797603E-1,-1.618745178E-2
2.135688041E1,-2.228065431E-1,7.970029712E-1,2.764083818E-2
2.136604452E1,-1.328592747E-2,6.659762263E-1,2.611372061E-2
2.137519588E1,1.881409585E-1,4.931064546E-1,-1.084253844E-2
2.138434723E1,3.150444627E-1,3.100049794E-1,-6.108472496E-2
2.139349858E1,3.684936166E-1,1.320957243E-1,-1.026223376E-1
2.140264994E1,3.538332880E-1,-2.443389036E-3,-1.246128380E-1
2.141180129E1,2.767138183E-1,-7.421794534E-2,-1.288887709E-1
2.142095265E1,1.627907902E-1,-7.803573459E-2,-1.204896197E-1
2.143010395E1,4.627167806E-2,-1.969982497E-2,-1.067455560E-1
2.143925530E1,-4.657710344E-2,8.628217876E-2,-9.407047927E-2
2.144840666E1,-1.201841980E-1,1.928750277E-1,-7.879929990E-2
2.145755801E1,-1.721062213E-1,2.585411072E-1,-6.016845629E-2
2.146670937E1,-1.956238300E-1,2.683146596E-1,-4.398100078E-2
2.147586072E1,-1.930277348E-1,2.380777150E-1,-3.466558084E-2
2.148501208E1,-1.670667231E-1,1.719534993E-1,-3.497100621E-2
2.149416343E1,-1.243074164E-1,8.567132801E-2,-5.054761097E-2
2.150331478E1,-6.566607952E-2,1.160609815E-2,-7.391251624E-2
2.151246614E1,-7.177455351E-3,-3.771981969E-2,-9.422318637E-2
2.152161749E1,3.802524135E-2,-6.536065787E-2,-1.018587798E-1
2.153076885E1,6.154286116E-2,-7.330167294E-2,-9.804098308E-2
2.153992020E1,6.581879407E-2,-6.352811307E-2,-8.704573661E-2
2.154907150E1,4.352286831E-2,-6.047387794E-2,-7.437065244E-2
2.155822286E1,1.191152167E-2,-5.085303262E-2,-6.474980712E-2
2.156737421E1,-1.435491070E-2,-1.114796288E-2,-5.589252338E-2
2.157652556E1,-2.428117767E-2,5.940489471E-2,-4.993676394E-2
2.158567692E1,-2.244863659E-2,1.269035190E-1,-4.382828996E-2
2.159482827E1,-1.053711493E-2,1.696628332E-1,-4.062134400E-2
2.160397963E1,8.246437646E-3,1.968455315E-1,-3.390202299E-2
2.161313098E1,3.588727489E-2,2.113531530E-1,-2.504473738E-2
2.162228234E1,6.169557199E-2,2.168507725E-1,-1.939439960E-2
2.163143369E1,8.444963396E-2,2.302894145E-1,-1.740914769E-2
2.164058499E1,1.007898003E-1,2.585411072E-1,-2.168507688E-2
2.164973640E1,1.049130186E-1,2.767138183E-1,-2.229592577E-2
2.165888770E1,9.193251282E-2,2.754921019E-1,-1.801999472E-2
2.166803905E1,6.933116168E-2,2.640387416E-1,-1.023169141E-2
2.167719041E1,3.497100621E-2,2.295258641E-1,-3.206948051E-3
2.168634176E1,2.748812549E-3,1.837123185E-1,2.748812549E-3
2.169549312E1,-1.420219894E-2,1.488940120E-1,3.206948051E-3
2.170464447E1,-1.878355257E-2,1.186570823E-1,1.374406274E-3
2.171379583E1,-2.214321308E-2,7.345438004E-2,-5.955760833E-3
2.172294718E1,-2.962609194E-2,1.908897609E-2,-1.817270555E-2
2.173209853E1,-3.649812192E-2,-2.733541466E-2,-2.916795574E-2
2.174124989E1,-3.268032894E-2,-4.902049154E-2,-3.206948191E-2
2.175040119E1,-2.092151903E-2,-4.840964451E-2,-3.084778599E-2
2.175955254E1,-7.635590620E-3,-2.244863659E-2,-2.351761982E-2
2.176870390E1,7.330167107E-3,2.092151903E-2,-1.603474095E-2
2.177785525E1,1.695101149E-2,5.543438718E-2,-7.482878864E-3
2.178700661E1,2.107422985E-2,7.284353673E-2,-1.527118147E-4
2.179615796E1,1.664558798E-2,8.383878320E-2,3.512371797E-3
2.180530932E1,1.282779220E-2,9.407047927E-2,2.290677279E-3
2.181446067E1,1.404948719E-2,9.636115283E-2,-4.428642802E-3
2.182361202E1,2.458660305E-2,9.208522737E-2,-9.315420873E-3
2.183276338E1,3.451287001E-2,8.735115826E-2,-1.099525020E-2
2.184191473E1,3.817795217E-2,8.490777016E-2,-7.330167107E-3
2.185106609E1,3.573456407E-2,8.017370105E-2,-2.443389036E-3
2.186021744E1,2.596100792E-2,6.566607952E-2,-1.832541777E-3
2.186936874E1,1.817270555E-2,4.886778072E-2,4.581354442E-4
2.187852010E1,1.206423342E-2,3.970507160E-2,1.679830020E-3
2.188767145E1,9.009997360E-3,3.191677108E-2,-1.527118147E-4
2.189682280E1,1.038440317E-2,1.863084175E-2,-4.428642802E-3
2.190597416E1,1.236965694E-2,3.512371797E-3,-1.114796288E-2
2.191512551E1,1.450762246E-2,-1.695101149E-2,-1.664558798E-2
2.192427687E1,6.719320081E-3,-4.046862945E-2,-2.336490713E-2
2.193342822E1,-8.551862091E-3,-5.925218388E-2,-2.580829710E-2
2.194257958E1,-2.565558441E-2,-7.253811508E-2,-2.412846684E-2
2.195173093E1,-4.169032723E-2,-7.620319724E-2,-2.061609551E-2
2.196088228E1,-5.283828825E-2,-7.070557028E-2,-1.634016447E-2
2.197003359E1,-5.360184610E-2,-6.169557199E-2,-1.084253844E-2
2.197918494E1,-4.275930673E-2,-4.107947648E-2,-6.566607859E-3
2.198833629E1,-3.298575059E-2,-2.244863659E-2,1.527118147E-4
2.199748765E1,-2.809897438E-2,-2.000524849E-2,8.093725890E-3
2.200663900E1,-3.176405653E-2,-2.657185495E-2,7.482878864E-3
2.201579036E1,-3.405473381E-2,-4.398100078E-2,-4.581354442E-4
2.202494171E1,-3.497100621E-2,-6.765133142E-2,-1.023169141E-2
2.203409306E1,-3.054236248E-2,-8.460234851E-2,-1.618745178E-2
2.204324442E1,-2.672456764E-2,-9.239064902E-2,-1.924168877E-2
2.205239577E1,-2.794626169E-2,-9.605573118E-2,-1.863084175E-2
2.206154713E1,-3.542914242E-2,-9.544488788E-2,-1.313321572E-2
2.207069843E1,-4.779879749E-2,-8.338065445E-2,-5.344913341E-3
2.207984978E1,-5.864133686E-2,-5.787777901E-2,3.665083554E-3
2.208900114E1,-7.559234649E-2,-2.428117767E-2,4.734066315E-3
2.209815249E1,-9.559759498E-2,1.130067464E-2,6.413896102E-3
2.210730385E1,-9.468132257E-2,4.504998401E-2,1.374406368E-2
2.211645520E1,-8.017370105E-2,6.612421572E-2,1.817270555E-2
2.212560655E1,-6.291726977E-2,7.223268598E-2,2.061609551E-2
2.213475791E1,-5.054761097E-2,7.162184268E-2,1.588202827E-2
2.214390926E1,-4.062134400E-2,6.444438547E-2,9.162709117E-3
2.215306062E1,-3.420744836E-2,4.932591692E-2,7.635590737E-4
2.216221197E1,-2.718270384E-2,2.580829710E-2,-9.009997360E-3
2.217136332E1,-2.275406010E-2,8.246437646E-3,-1.863084175E-2
2.218051463E1,-2.076880634E-2,1.068982761E-3,-1.618745178E-2
2.218966598E1,-2.641914412E-2,2.290677279E-3,-1.084253844E-2
2.219881734E1,-3.756710514E-2,8.399149403E-3,-1.068982761E-3
2.220796869E1,-5.299099907E-2,1.191152167E-2,9.162709117E-3
2.221712004E1,-7.941014320E-2,-3.054236295E-3,1.756185852E-2
2.222627140E1,-1.033858955E-1,-2.000524849E-2,1.801999472E-2
2.223542275E1,-1.123958975E-1,-4.107947648E-2,7.635590620E-3
2.224457411E1,-1.035386100E-1,-5.864133686E-2,-9.162708884E-4
2.225372546E1,-7.941014320E-2,-7.314895838E-2,-6.108472589E-3
2.226287682E1,-5.085303262E-2,-1.014006436E-1,-1.328592747E-2
2.227202812E1,-2.825168520E-2,-1.406475753E-1,-2.351761982E-2
2.228117947E1,-9.926267900E-3,-1.774511337E-1,-3.069507517E-2
2.229033082E1,1.985253533E-3,-2.021904439E-1,-3.481829539E-2
2.229948218E1,7.635590620E-3,-2.153236568E-1,-3.298575059E-2
2.230863353E1,7.635590620E-3,-2.141019702E-1,-2.870982140E-2
2.231778489E1,0.000000000E0,-1.942494214E-1,-2.137965336E-2
2.232693624E1,-1.634016447E-2,-1.641651988E-1,-1.664558798E-2
2.233608760E1,-3.680354729E-2,-1.406475753E-1,-1.374406368E-2
2.234523895E1,-5.421269313E-2,-1.232384369E-1,-1.023169141E-2
2.235439030E1,-6.490252167E-2,-1.105633527E-1,-7.330167107E-3
2.236354166E1,-6.184828654E-2,-1.014006436E-1,-4.275931045E-3
2.237269296E1,-5.390727147E-2,-1.020114943E-1,-6.566607859E-3
2.238184432E1,-4.260659590E-2,-1.105633527E-1,-1.328592747E-2
2.239099567E1,-2.397575416E-2,-1.177408099E-1,-2.107422985E-2
2.240014702E1,-3.817795310E-3,-1.134648770E-1,-2.458660305E-2
2.240929838E1,2.199050039E-2,-1.026223376E-1,-2.443389036E-2
2.241844973E1,4.581354558E-2,-7.605048269E-2,-2.061609551E-2
2.242760109E1,6.032116711E-2,-4.153761268E-2,-1.130067464E-2
2.243675244E1,6.368082762E-2,-1.313321572E-2,-3.970507067E-3
2.244590379E1,5.741964281E-2,0.000000000E0,1.985253533E-3
2.245505515E1,4.566083103E-2,1.221694518E-3,5.650337320E-3
2.246420650E1,3.527642787E-2,-7.177455351E-3,5.497625098E-3
2.247335786E1,2.489202656E-2,-2.107422985E-2,5.497625098E-3
2.248250916E1,1.939439960E-2,-2.947338112E-2,3.665083554E-3
2.249166051E1,1.695101149E-2,-3.558185324E-2,-1.832541777E-3
2.250081187E1,1.832541823E-2,-3.619270027E-2,-4.886778072E-3
2.250996322E1,1.878355257E-2,-3.130592033E-2,-3.054236295E-3
2.251911458E1,2.000524849E-2,-2.901524492E-2,-1.832541777E-3
2.252826593E1,2.382304333E-2,-3.252761811E-2,-1.832541777E-3
2.253741728E1,2.702999115E-2,-4.046862945E-2,-4.886778072E-3
2.254656864E1,3.512371704E-2,-4.642439261E-2,-9.009997360E-3
2.255571999E1,4.062134400E-2,-5.008947477E-2,-1.389677543E-2
2.256487135E1,4.062134400E-2,-5.192201585E-2,-1.389677543E-2
2.257402270E1,3.878879920E-2,-4.581354558E-2,-1.023169141E-2
2.258317400E1,3.924693540E-2,-3.680354729E-2,-4.734066315E-3
2.259232536E1,3.848337755E-2,-3.008422814E-2,-1.068982761E-3
2.260147671E1,3.741439432E-2,-3.313846514E-2,-4.123218823E-3
2.261062806E1,3.374931216E-2,-4.642439261E-2,-6.108472589E-3
2.261977942E1,3.023693897E-2,-6.627693027E-2,-9.162709117E-3
2.262893077E1,2.611372061E-2,-8.628217876E-2,-1.099525020E-2
2.263808213E1,2.443389036E-2,-9.590301663E-2,-1.160609815E-2
2.264723348E1,2.626643144E-2,-9.468132257E-2,-1.343864016E-2
2.265638484E1,3.115320951E-2,-8.506047726E-2,-1.634016447E-2
2.266553619E1,3.710897267E-2,-6.994201243E-2,-1.939439960E-2
2.267468749E1,4.077405483E-2,-5.909947306E-2,-2.122694254E-2
2.268383885E1,4.245388508E-2,-5.375456065E-2,-2.122694254E-2
2.269299020E1,4.550812021E-2,-4.764608666E-2,-2.183778957E-2
2.270214155E1,4.856235534E-2,-4.337015375E-2,-1.939439960E-2
2.271129291E1,5.161659420E-2,-3.680354729E-2,-1.878355257E-2
2.272044426E1,4.856235534E-2,-3.680354729E-2,-2.000524849E-2
2.272959562E1,4.611896724E-2,-4.046862945E-2,-2.000524849E-2
2.273874697E1,4.062134400E-2,-4.474456236E-2,-1.878355257E-2
2.274789832E1,3.573456407E-2,-4.581354558E-2,-1.572931744E-2
2.275704968E1,3.313846514E-2,-3.985778242E-2,-1.404948719E-2
2.276620098E1,3.298575059E-2,-2.840439789E-2,-1.099525020E-2
2.277535234E1,3.420744836E-2,-1.389677543E-2,-1.038440317E-2
2.278450369E1,3.344388679E-2,-4.275931045E-3,-9.162709117E-3
2.279365504E1,3.466558084E-2,-3.054236295E-3,-1.160609815E-2
2.280280640E1,3.771981969E-2,-7.330167107E-3,-1.389677543E-2
2.281195775E1,4.520269856E-2,-1.206423342E-2,-1.939439960E-2
2.282110911E1,5.451811850E-2,-1.023169141E-2,-2.122694254E-2
2.283026046E1,6.230641901E-2,4.275931045E-3,-1.985253580E-2
2.283941182E1,6.963659078E-2,1.924168877E-2,-1.618745178E-2
2.284856312E1,7.375980914E-2,3.191677108E-2,-8.857285604E-3
2.285771447E1,7.314895838E-2,3.329117596E-2,9.162708884E-4
2.286686582E1,6.826218218E-2,2.305948362E-2,6.413896102E-3
2.287601718E1,6.169557199E-2,5.497625098E-3,6.261184346E-3
2.288516853E1,5.619794875E-2,-1.023169141E-2,6.872031838E-3
2.289431989E1,5.375456065E-2,-1.924168877E-2,9.315420873E-3
2.290347124E1,5.390727147E-2,-2.290677279E-2,9.926267900E-3
2.291262260E1,5.192201585E-2,-1.740914769E-2,8.704573847E-3
2.292177395E1,4.749337584E-2,-4.734066315E-3,5.650337320E-3
2.293092530E1,4.566083103E-2,3.665083554E-3,3.206948051E-3
2.294007666E1,4.443913698E-2,-1.221694518E-3,7.635590737E-4
2.294922796E1,4.214845970E-2,-1.267508045E-2,-2.290677279E-3
2.295837932E1,3.848337755E-2,-2.764083818E-2,-2.290677279E-3
2.296753067E1,3.741439432E-2,-4.092676565E-2,-2.290677279E-3
2.297668202E1,3.497100621E-2,-5.054761097E-2,-1.679830020E-3
2.298583338E1,3.497100621E-2,-5.238015205E-2,1.221694518E-3
2.299498473E1,3.313846514E-2,-5.299099907E-2,4.275931045E-3
2.300413609E1,3.374931216E-2,-5.482354015E-2,6.719320081E-3
2.301328744E1,3.069507517E-2,-5.604523420E-2,1.038440317E-2
2.302243879E1,2.397575416E-2,-5.543438718E-2,1.343864016E-2
2.303159010E1,1.649287529E-2,-5.360184610E-2,1.527118124E-2
2.304074145E1,1.267508045E-2,-4.932591692E-2,1.756185852E-2
2.304989280E1,1.511846948E-2,-4.337015375E-2,1.756185852E-2
2.305904416E1,2.244863659E-2,-3.558185324E-2,1.588202827E-2
2.306819551E1,3.298575059E-2,-2.886253223E-2,1.404948719E-2
2.307734687E1,4.275930673E-2,-2.519745007E-2,1.053711493E-2
2.308649822E1,5.146388337E-2,-2.519745007E-2,8.093725890E-3
2.309564958E1,5.573981255E-2,-3.481829539E-2,7.482878864E-3
2.310480093E1,5.589252338E-2,-4.398100078E-2,8.704573847E-3
2.311395223E1,5.528167635E-2,-4.871506989E-2,9.315420873E-3
2.312310359E1,4.856235534E-2,-4.688252881E-2,1.175880991E-2
2.313225494E1,3.985778242E-2,-3.970507160E-2,1.603474095E-2
2.314140629E1,3.054236248E-2,-3.726168349E-2,1.893626526E-2
2.315055765E1,2.367033064E-2,-4.031591862E-2,2.137965336E-2
2.315970900E1,1.954711229E-2,-4.749337584E-2,2.199050039E-2
2.316886036E1,1.954711229E-2,-5.772506446E-2,2.015795931E-2
2.317801171E1,2.351761982E-2,-6.978929788E-2,1.282779220E-2
2.318716306E1,2.473931387E-2,-7.711946964E-2,5.497625098E-3
2.319631437E1,2.733541466E-2,-8.139539510E-2,-1.832541777E-3
2.320546572E1,3.100049868E-2,-8.383878320E-2,-8.551862091E-3
2.321461708E1,3.344388679E-2,-8.383878320E-2,-1.084253844E-2
2.322376843E1,2.977880463E-2,-8.567132801E-2,-8.551862091E-3
2.323291978E1,2.489202656E-2,-8.811471611E-2,-4.275931045E-3
2.324207114E1,1.939439960E-2,-9.223793447E-2,-3.665083554E-3
2.325122249E1,1.695101149E-2,-9.590301663E-2,-3.054236295E-3
2.326037385E1,1.572931744E-2,-9.712471068E-2,-5.497625098E-3
2.326952520E1,1.939439960E-2,-9.345962852E-2,-7.941014133E-3
2.327867655E1,2.305948362E-2,-8.383878320E-2,-7.941014133E-3
2.328782791E1,2.779355086E-2,-6.872031838E-2,-6.108472589E-3
2.329697921E1,2.901524492E-2,-6.032116711E-2,-2.443389036E-3
2.330613056E1,2.397575416E-2,-5.604523420E-2,1.832541777E-3
2.331528192E1,1.786728203E-2,-5.543438718E-2,5.497625098E-3
2.332443327E1,9.162709117E-3,-5.360184610E-2,7.788302377E-3
2.333358463E1,3.512371797E-3,-4.398100078E-2,5.955760833E-3
2.334273598E1,3.970507067E-3,-3.130592033E-2,2.901524538E-3
2.335188734E1,7.635590620E-3,-2.412846684E-2,-7.635590737E-4
2.336103869E1,8.857285604E-3,-2.351761982E-2,-1.985253533E-3
2.337019004E1,6.566607859E-3,-3.436015919E-2,-2.596100792E-3
2.337934135E1,3.665083554E-3,-4.947862774E-2,-2.596100792E-3
2.338849270E1,-1.221694518E-3,-6.215370819E-2,-5.650337320E-3
2.339764405E1,-4.734066315E-3,-7.666133344E-2,-6.872031838E-3
2.340679541E1,-8.399149403E-3,-8.261708915E-2,-8.093725890E-3
2.341594676E1,-9.620844387E-3,-8.093725890E-2,-7.482878864E-3
2.342509812E1,-1.221694518E-2,-7.727217674E-2,-7.024743594E-3
2.343424947E1,-1.282779220E-2,-7.666133344E-2,-4.581354558E-3
2.344340082E1,-1.282779220E-2,-8.093725890E-2,-2.137965523E-3
2.345255213E1,-1.771457121E-2,-8.628217876E-2,-2.748812549E-3
2.346170348E1,-2.504473738E-2,-9.651386738E-2,-3.970507067E-3
2.347085484E1,-3.222219273E-2,-1.020114943E-1,-5.803049076E-3
2.348000619E1,-3.420744836E-2,-9.727742523E-2,-1.007897966E-2
2.348915754E1,-3.237490356E-2,-8.704573661E-2,-1.435491070E-2
2.349830890E1,-2.687728032E-2,-7.971556485E-2,-1.496575773E-2
2.350746025E1,-2.321219631E-2,-7.299624383E-2,-1.435491070E-2
2.351661161E1,-2.275406010E-2,-6.704048812E-2,-1.252236869E-2
2.352576296E1,-2.153236605E-2,-5.787777901E-2,-7.024743594E-3
2.353491432E1,-2.107422985E-2,-4.169032723E-2,-9.162708884E-4
2.354406562E1,-1.878355257E-2,-2.535016090E-2,3.970507067E-3
2.355321697E1,-1.649287529E-2,-1.878355257E-2,2.748812549E-3
2.356236832E1,-1.634016447E-2,-1.939439960E-2,-3.054236295E-4
2.357151968E1,-1.695101149E-2,-2.244863659E-2,-3.970507067E-3
2.358067103E1,-2.000524849E-2,-2.840439789E-2,-4.581354558E-3
2.358982239E1,-2.244863659E-2,-3.023693897E-2,-5.192201585E-3
2.359897374E1,-2.672456764E-2,-3.023693897E-2,-7.635590620E-3
2.360812510E1,-3.054236248E-2,-2.901524492E-2,-8.399149403E-3
2.361727645E1,-3.420744836E-2,-2.779355086E-2,-8.399149403E-3
2.362642775E1,-3.665083647E-2,-3.329117596E-2,-7.788302377E-3
2.363557911E1,-3.405473381E-2,-4.230117425E-2,-1.023169141E-2
2.364473046E1,-2.901524492E-2,-5.070032179E-2,-1.557660475E-2
2.365388182E1,-1.969982497E-2,-5.680879578E-2,-1.924168877E-2
2.366303317E1,-1.298050396E-2,-5.680879578E-2,-2.229592577E-2
2.367218452E1,-1.053711493E-2,-5.192201585E-2,-2.107422985E-2
2.368133588E1,-1.053711493E-2,-4.535540938E-2,-1.924168877E-2
2.369048723E1,-1.191152167E-2,-3.756710514E-2,-1.557660475E-2
2.369963859E1,-1.374406368E-2,-3.390202299E-2,-1.374406368E-2
2.370878989E1,-1.695101149E-2,-3.023693897E-2,-1.374406368E-2
2.371794124E1,-1.756185852E-2,-2.000524849E-2,-1.435491070E-2
2.372709260E1,-1.588202827E-2,-7.330167107E-3,-1.496575773E-2
2.373624395E1,-1.282779220E-2,4.123218823E-3,-1.618745178E-2
2.374539530E1,-1.038440317E-2,7.635590620E-3,-1.801999472E-2
2.375454666E1,-8.551862091E-3,7.635590620E-3,-1.679829881E-2
2.376369801E1,-7.941014133E-3,1.313321572E-2,-1.740914769E-2
2.377284937E1,-5.650337320E-3,1.801999472E-2,-1.863084175E-2
2.378200072E1,-6.108472589E-4,2.092151903E-2,-2.153236605E-2
2.379115202E1,6.108472589E-3,2.031067200E-2,-2.214321308E-2
2.380030338E1,1.175880991E-2,1.740914769E-2,-2.092151903E-2
2.380945473E1,1.481304597E-2,1.374406368E-2,-1.481304597E-2
2.381860609E1,1.359135192E-2,1.313321572E-2,-7.482878864E-3
2.382775744E1,7.941014133E-3,1.252236869E-2,-2.596100792E-3
2.383690879E1,-1.527118147E-4,1.863084175E-2,1.068982761E-3
2.384606015E1,-6.261184346E-3,2.351761982E-2,-3.054236295E-4
2.385521150E1,-1.130067464E-2,3.008422814E-2,-4.581354558E-3
2.386436286E1,-9.468132630E-3,3.420744836E-2,-9.468132630E-3
2.387351416E1,-5.803049076E-3,3.420744836E-2,-1.374406368E-2
2.388266551E1,1.068982761E-3,3.008422814E-2,-1.481304597E-2
2.389181687E1,7.330167107E-3,2.519745007E-2,-1.420219894E-2
2.390096822E1,1.404948719E-2,2.229592577E-2,-1.053711493E-2
2.391011958E1,1.710372418E-2,2.107422985E-2,-8.704573847E-3
2.391927093E1,1.588202827E-2,2.535016090E-2,-4.428642802E-3
2.392842228E1,1.572931744E-2,3.741439432E-2,4.581354442E-4
2.393757364E1,1.496575773E-2,5.360184610E-2,3.512371797E-3
2.394672499E1,1.236965694E-2,6.566607952E-2,6.566607859E-3
2.395587635E1,1.114796288E-2,7.055285573E-2,7.177455351E-3
2.396502765E1,1.175880991E-2,6.978929788E-2,3.512371797E-3
2.397417900E1,1.359135192E-2,6.933116168E-2,1.068982761E-3
2.398333036E1,1.664558798E-2,7.284353673E-2,-1.985253533E-3
2.399248171E1,2.031067200E-2,7.589777559E-2,-2.596100792E-3
2.400163306E1,2.153236605E-2,7.589777559E-2,-1.374406274E-3
2.401078442E1,2.092151903E-2,6.994201243E-2,4.734066315E-3
2.401993577E1,1.924168877E-2,5.909947306E-2,9.009997360E-3
2.402908713E1,1.801999472E-2,5.360184610E-2,9.620844387E-3
2.403823843E1,1.740914769E-2,4.993676394E-2,7.177455351E-3
2.404738978E1,1.985253580E-2,5.299099907E-2,4.734066315E-3
2.405654114E1,2.229592577E-2,5.848862603E-2,2.901524538E-3
2.406569249E1,2.535016090E-2,6.810946763E-2,3.512371797E-3
2.407484385E1,2.718270384E-2,7.406523079E-2,2.443389036E-3
2.408399520E1,2.886253223E-2,7.956285775E-2,3.665083554E-3
2.409314655E1,2.702999115E-2,7.895200700E-2,5.344913341E-3
2.410229791E1,2.336490713E-2,7.238540053E-2,7.177455351E-3
2.411144926E1,1.801999472E-2,5.971032009E-2,7.788302377E-3
2.412060056E1,1.252236869E-2,4.886778072E-2,8.399149403E-3
2.412975192E1,1.007897966E-2,3.970507160E-2,8.399149403E-3
2.413890327E1,9.468132630E-3,3.970507160E-2,7.177455351E-3
2.414805463E1,1.252236869E-2,4.581354558E-2,7.788302377E-3
2.415720598E1,1.557660475E-2,5.482354015E-2,7.788302377E-3
2.416635734E1,1.924168877E-2,5.971032009E-2,5.955760833E-3
2.417550869E1,2.535016090E-2,6.200099736E-2,4.886778072E-3
2.418466004E1,3.161134571E-2,6.139015034E-2,4.275931045E-3
2.419381135E1,3.771981969E-2,6.154286116E-2,7.330167107E-3
2.420296270E1,4.443913698E-2,5.848862603E-2,1.099525020E-2
2.421211405E1,4.947862774E-2,5.787777901E-2,1.420219894E-2
2.422126541E1,5.238015205E-2,6.276455522E-2,1.481304597E-2
2.423041676E1,4.810422286E-2,6.994201243E-2,1.481304597E-2
2.423956812E1,3.817795217E-2,7.238540053E-2,1.343864016E-2
2.424871947E1,2.397575416E-2,7.116370648E-2,1.343864016E-2
2.425787082E1,1.114796288E-2,7.055285573E-2,1.389677543E-2
2.426702213E1,1.832541777E-3,6.749862432E-2,1.374406368E-2
2.427617348E1,-3.665083554E-3,6.139015034E-2,1.068982668E-2
2.428532484E1,-3.512371797E-3,4.947862774E-2,9.468132630E-3
2.429447619E1,-1.527118147E-4,3.191677108E-2,6.566607859E-3
2.430362754E1,4.886778072E-3,1.450762246E-2,5.344913341E-3
2.431277890E1,9.315420873E-3,2.443389036E-3,3.512371797E-3
2.432193025E1,1.175880991E-2,-3.054236295E-3,1.068982761E-3
2.433108161E1,1.481304597E-2,-4.275931045E-3,-1.527118147E-4
2.434023296E1,1.481304597E-2,-6.108472589E-4,-1.527118147E-4
2.434938426E1,1.420219894E-2,5.955760833E-3,4.581354442E-4
2.435853562E1,1.236965694E-2,9.620844387E-3,2.901524538E-3
2.436768697E1,1.099525020E-2,1.206423342E-2,4.123218823E-3
2.437683832E1,1.038440317E-2,9.620844387E-3,2.901524538E-3
2.438598968E1,8.551862091E-3,8.399149403E-3,2.290677279E-3
2.439514103E1,6.719320081E-3,6.566607859E-3,1.068982761E-3
2.440429239E1,3.665083554E-3,5.955760833E-3,1.068982761E-3
2.441344374E1,2.443389036E-3,7.177455351E-3,1.068982761E-3
2.442259510E1,0.000000000E0,9.009997360E-3,2.901524538E-3
2.443174640E1,0.000000000E0,8.399149403E-3,4.123218823E-3
2.444089775E1,6.108472589E-4,6.566607859E-3,6.566607859E-3
2.445004911E1,1.832541777E-3,8.399149403E-3,5.955760833E-3
2.445920046E1,3.054236295E-3,9.009997360E-3,5.344913341E-3
2.446835182E1,0.000000000E0,1.023169141E-2,4.734066315E-3
2.447750317E1,-1.832541777E-3,2.443389036E-3,5.344913341E-3
2.448665452E1,-4.123218823E-3,-1.023169141E-2,4.123218823E-3
2.449580588E1,-4.123218823E-3,-1.878355257E-2,1.679830020E-3
2.450495718E1,-2.901524538E-3,-2.122694254E-2,-1.374406274E-3
2.451410853E1,-1.527118147E-3,-2.168507688E-2,-1.374406274E-3
2.452325989E1,-4.581354442E-4,-1.878355257E-2,-1.374406274E-3
2.453241124E1,-3.512371797E-3,-1.817270555E-2,4.581354442E-4
2.454156260E1,-4.734066315E-3,-2.000524849E-2,1.068982761E-3
2.455071395E1,-7.177455351E-3,-2.412846684E-2,1.527118147E-3
2.455986530E1,-8.399149403E-3,-2.412846684E-2,1.527118147E-3
2.456901666E1,-7.788302377E-3,-2.290677279E-2,1.527118147E-3
2.457816796E1,-7.177455351E-3,-1.634016447E-2,3.054236295E-4
2.458731932E1,-7.177455351E-3,-7.941014133E-3,-1.527118147E-3
2.459647067E1,-9.162709117E-3,-0.000000000E0,3.054236295E-4
2.460562202E1,-1.038440317E-2,2.901524538E-3,-3.054236295E-4
2.461477338E1,-1.038440317E-2,-3.665083554E-3,-9.162708884E-4
2.462392473E1,-9.620844387E-3,-1.328592747E-2,-9.162708884E-4
2.463307609E1,-6.566607859E-3,-2.000524849E-2,-9.162708884E-4
2.464222744E1,-5.344913341E-3,-2.000524849E-2,-1.527118147E-3
2.465137879E1,-5.955760833E-3,-1.389677543E-2,-3.359660041E-3
2.466053010E1,-6.566607859E-3,-1.099525020E-2,-4.581354558E-3
2.466968145E1,-8.551862091E-3,-9.162709117E-3,-3.359660041E-3
2.467883280E1,-1.084253844E-2,-1.511846948E-2,-2.748812549E-3
2.468798416E1,-1.023169141E-2,-2.412846684E-2,-3.970507067E-3
2.469713551E1,-1.145338640E-2,-3.023693897E-2,-3.970507067E-3
2.470628687E1,-1.313321572E-2,-3.451287001E-2,-5.192201585E-3
2.471543822E1,-1.130067464E-2,-3.985778242E-2,-7.635590620E-3
2.472458952E1,-9.468132630E-3,-4.046862945E-2,-8.246437646E-3
2.473374088E1,-7.635590620E-3,-3.680354729E-2,-8.093725890E-3