"Time (s)","Gyroscope x (rad/s)","Gyroscope y (rad/s)","Gyroscope z (rad/s)"
8.443892924E0,-9.009997360E-3,-6.261184346E-3,-3.863608837E-2
8.453044330E0,-1.191152167E-2,-1.527118124E-2,-3.985778242E-2
8.462195788E0,-1.557660475E-2,-2.015795931E-2,-4.291202128E-2
8.471347247E0,-1.801999472E-2,-2.489202656E-2,-4.902049154E-2
8.480498705E0,-1.969982497E-2,-3.939964995E-2,-5.635065958E-2
8.489650111E0,-1.725643501E-2,-4.001049697E-2,-6.490252167E-2
8.498801570E0,-7.635590620E-3,-7.482878864E-3,-6.123743951E-2
8.507953028E0,-7.635590620E-3,4.734066129E-2,-4.596625641E-2
8.517104486E0,-1.924168877E-2,9.865183383E-2,-2.046338283E-2
8.526255893E0,-3.619270027E-2,1.221694499E-1,5.039489828E-3
8.535407351E0,-3.939964995E-2,1.378987730E-1,1.603474095E-2
8.544558809E0,-3.680354729E-2,1.288887709E-1,2.336490713E-2
8.553710268E0,-2.718270384E-2,7.589777559E-2,1.847812906E-2
8.562861674E0,-1.603474095E-2,7.788302377E-3,9.162708884E-4
8.572013132E0,-9.926267900E-3,-4.840964451E-2,-1.908897609E-2
8.581164590E0,-5.803049076E-3,-8.811471611E-2,-3.542914242E-2
8.590316049E0,1.832541777E-3,-1.068982705E-1,-4.092676565E-2
8.599467455E0,4.886778072E-3,-1.068982705E-1,-4.031591862E-2
8.608618913E0,-4.581354558E-3,-8.399149776E-2,-3.497100621E-2
8.617770372E0,-2.031067200E-2,-5.070032179E-2,-2.458660305E-2
8.626921778E0,-3.665083647E-2,-2.183778957E-2,-1.679829881E-2
8.636073236E0,-4.856235534E-2,-8.551862091E-3,-8.399149403E-3
8.645224695E0,-5.467082933E-2,-1.099525020E-2,-3.512371797E-3
8.654376153E0,-5.268557742E-2,-2.183778957E-2,-4.734066315E-3
8.663527559E0,-4.214845970E-2,-2.962609194E-2,-7.788302377E-3
8.672679018E0,-3.405473381E-2,-3.634541109E-2,-9.468132630E-3
8.681830476E0,-2.733541466E-2,-3.084778599E-2,-8.246437646E-3
8.690981934E0,-2.199050039E-2,-1.267508045E-2,-8.857285604E-3
8.700133393E0,-2.336490713E-2,1.557660475E-2,-7.024743594E-3
8.709284799E0,-2.687728032E-2,4.932591692E-2,-3.970507067E-3
8.718436257E0,-2.519745007E-2,7.650861889E-2,-3.054236295E-4
8.727587715E0,-2.657185495E-2,8.612946421E-2,-1.527118147E-3
8.736739122E0,-2.473931387E-2,8.536590636E-2,-5.803049076E-3
8.745890580E0,-1.969982497E-2,8.124268800E-2,-1.068982668E-2
8.755042038E0,-2.092151903E-2,6.978929788E-2,-1.130067464E-2
8.764193497E0,-3.008422814E-2,5.833591148E-2,-7.635590620E-3
8.773344903E0,-4.107947648E-2,4.810422286E-2,-4.123218823E-3
8.782496361E0,-4.779879749E-2,4.504998401E-2,-1.679830020E-3
8.791647820E0,-4.596625641E-2,4.688252881E-2,1.527118147E-4
8.800799278E0,-4.107947648E-2,4.321744293E-2,-1.068982761E-3
8.809950684E0,-4.092676565E-2,4.688252881E-2,-5.344913341E-3
8.819102143E0,-4.413371533E-2,5.344913527E-2,-7.788302377E-3
8.828253601E0,-4.352286831E-2,4.978405312E-2,-1.145338640E-2
8.837405059E0,-4.275930673E-2,4.688252881E-2,-1.084253844E-2
8.846556465E0,-3.588727489E-2,3.787253052E-2,-1.084253844E-2
8.855707924E0,-3.008422814E-2,1.496575773E-2,-1.313321572E-2
8.864859382E0,-2.382304333E-2,-7.941014133E-3,-1.435491070E-2
8.874010840E0,-1.389677543E-2,-2.183778957E-2,-1.481304597E-2
8.883162247E0,-1.252236869E-2,-3.558185324E-2,-6.261184346E-3
8.892313705E0,-1.695101149E-2,-2.962609194E-2,-6.261184346E-3
8.901465163E0,-1.084253844E-2,-6.719320081E-3,-1.053711493E-2
8.910616622E0,-1.175880991E-2,1.374406368E-2,-1.175880991E-2
8.919768028E0,-1.863084175E-2,2.641914412E-2,-9.468132630E-3
8.928919486E0,-2.367033064E-2,3.481829539E-2,-5.803049076E-3
8.938070945E0,-2.367033064E-2,4.566083103E-2,-2.748812549E-3
8.947222403E0,-2.687728032E-2,4.337015375E-2,-2.137965523E-3
8.956373809E0,-2.046338283E-2,2.947338112E-2,-5.192201585E-3
8.965525268E0,-1.175880991E-2,1.374406368E-2,-7.482878864E-3
8.974676726E0,-1.068982761E-3,-6.108472589E-4,-1.053711493E-2
8.983828132E0,7.024743594E-3,-1.145338640E-2,-1.221694518E-2
8.992979590E0,1.130067464E-2,-1.099525020E-2,-1.282779220E-2
9.002131049E0,1.496575773E-2,6.108472589E-4,-9.773556143E-3
9.011282507E0,1.038440317E-2,1.863084175E-2,-1.832541777E-3
9.020433965E0,-1.374406274E-3,3.008422814E-2,5.344913341E-3
9.029585372E0,-1.511846948E-2,3.558185324E-2,1.068982668E-2
9.038736830E0,-2.504473738E-2,4.214845970E-2,1.557660475E-2
9.047888288E0,-2.932066843E-2,3.726168349E-2,1.496575773E-2
9.057039747E0,-2.794626169E-2,2.535016090E-2,1.130067464E-2
9.066191153E0,-1.725643501E-2,1.145338640E-2,2.748812549E-3
9.075342611E0,-3.512371797E-3,-1.527118147E-4,-8.093725890E-3
9.084494070E0,6.413896102E-3,-1.160609815E-2,-1.466033421E-2
9.093645528E0,1.206423342E-2,-1.878355257E-2,-1.832541823E-2
9.102796934E0,1.328592747E-2,-2.596100792E-2,-1.832541823E-2
9.111948393E0,9.009997360E-3,-2.840439789E-2,-1.221694518E-2
9.121099851E0,-1.527118147E-3,-3.023693897E-2,-5.650337320E-3
9.130251309E0,-1.023169141E-2,-2.657185495E-2,-1.985253533E-3
9.139402715E0,-1.084253844E-2,-1.450762246E-2,-1.374406274E-3
9.148554174E0,-6.108472589E-3,6.108472589E-4,-1.527118147E-4
9.157705632E0,-6.261184346E-3,1.084253844E-2,-7.635590737E-4
9.166857090E0,-5.650337320E-3,1.557660475E-2,-1.985253533E-3
9.176008497E0,-4.428642802E-3,2.580829710E-2,-1.985253533E-3
9.185159955E0,-3.359660041E-3,3.420744836E-2,-7.635590737E-4
9.194311413E0,-7.024743594E-3,3.191677108E-2,1.679830020E-3
9.203462820E0,-1.053711493E-2,1.618745178E-2,-1.527118147E-4
9.212614278E0,-1.084253844E-2,-8.399149403E-3,-3.206948051E-3
9.221765736E0,-6.413896102E-3,-2.901524492E-2,-7.482878864E-3
9.230917195E0,-7.635590737E-4,-4.107947648E-2,-1.053711493E-2
9.240068601E0,4.123218823E-3,-3.497100621E-2,-1.099525020E-2
9.249220059E0,1.023169141E-2,-2.657185495E-2,-1.038440317E-2
9.258371518E0,7.635590620E-3,-2.290677279E-2,-7.941014133E-3
9.267522976E0,7.024743594E-3,-2.107422985E-2,-6.108472589E-3
9.276674382E0,6.413896102E-3,-1.267508045E-2,-4.275931045E-3
9.285825840E0,4.428642802E-3,-3.665083554E-3,-3.054236295E-3
9.294977299E0,6.108472589E-4,1.679830020E-3,-1.374406274E-3
9.304128757E0,-1.221694518E-3,1.068982761E-3,-2.596100792E-3
9.313280163E0,-6.108472589E-4,2.901524538E-3,-1.374406274E-3
9.322431622E0,3.054236295E-3,1.206423342E-2,-1.374406274E-3
9.331583080E0,6.719320081E-3,1.985253580E-2,-1.374406274E-3
9.340734538E0,1.328592747E-2,3.008422814E-2,6.108472589E-4
9.349885945E0,2.199050039E-2,3.497100621E-2,-0.000000000E0
9.359037403E0,2.443389036E-2,3.069507517E-2,-3.054236295E-3
9.368188861E0,2.641914412E-2,2.351761982E-2,-3.054236295E-3
9.377340320E0,3.008422814E-2,2.290677279E-2,-2.290677279E-3
9.386491726E0,3.130592033E-2,2.764083818E-2,1.527118147E-4
9.395643184E0,3.436015919E-2,2.473931387E-2,-4.581354442E-4
9.404794643E0,3.436015919E-2,2.351761982E-2,-4.581354442E-4
9.413946101E0,2.641914412E-2,1.801999472E-2,-6.108472589E-4
9.423097507E0,1.649287529E-2,1.985253580E-2,-3.665083554E-3
9.432248965E0,9.162709117E-3,2.229592577E-2,-5.497625098E-3
9.441400424E0,7.788302377E-3,2.825168520E-2,-6.719320081E-3
9.450551830E0,9.009997360E-3,2.886253223E-2,-6.719320081E-3
9.459703288E0,1.282779220E-2,2.412846684E-2,-6.719320081E-3
9.468854747E0,1.908897609E-2,1.679829881E-2,-7.330167107E-3
9.478006205E0,2.351761982E-2,6.566607859E-3,-9.162709117E-3
9.487157611E0,2.535016090E-2,-1.832541777E-3,-1.145338640E-2
9.496309070E0,2.367033064E-2,-9.773556143E-3,-1.450762246E-2
9.505460528E0,2.489202656E-2,-1.221694518E-2,-1.817270555E-2
9.514611986E0,2.977880463E-2,-7.330167107E-3,-2.000524849E-2
9.523763393E0,3.527642787E-2,2.901524538E-3,-2.061609551E-2
9.532914851E0,4.199574888E-2,1.740914769E-2,-2.122694254E-2
9.542066309E0,3.863608837E-2,3.497100621E-2,-1.878355257E-2
9.551217768E0,2.870982140E-2,4.275930673E-2,-1.771457121E-2
9.560369174E0,2.137965336E-2,4.382828996E-2,-1.893626526E-2
9.569520632E0,1.450762246E-2,4.153761268E-2,-1.771457121E-2
9.578672090E0,8.399149403E-3,3.481829539E-2,-1.649287529E-2
9.587823549E0,1.114796288E-2,1.924168877E-2,-1.710372418E-2
9.596974955E0,1.542389300E-2,1.252236869E-2,-2.015795931E-2
9.606126413E0,2.473931387E-2,1.618745178E-2,-2.443389036E-2
9.615277872E0,3.313846514E-2,2.702999115E-2,-2.794626169E-2
9.624429278E0,4.046862945E-2,3.665083647E-2,-3.222219273E-2
9.633580736E0,4.428642616E-2,3.848337755E-2,-3.466558084E-2
9.642732195E0,4.184303805E-2,3.848337755E-2,-3.710897267E-2
9.651883653E0,3.756710514E-2,3.237490356E-2,-3.894151375E-2
9.661035059E0,3.084778599E-2,2.641914412E-2,-4.077405483E-2
9.670186518E0,2.596100792E-2,1.969982497E-2,-4.337015375E-2
9.679337976E0,2.290677279E-2,1.252236869E-2,-4.398100078E-2
9.688489434E0,1.985253580E-2,7.635590620E-3,-4.642439261E-2
9.697640893E0,1.313321572E-2,-1.527118147E-4,-4.642439261E-2
9.706792299E0,7.024743594E-3,-1.985253533E-3,-4.764608666E-2
9.715943757E0,1.527118147E-3,-1.985253533E-3,-4.779879749E-2
9.725095215E0,2.137965523E-3,3.054236295E-4,-5.192201585E-2
9.734246622E0,6.413896102E-3,3.359660041E-3,-5.741964281E-2
9.743398080E0,1.145338640E-2,2.137965523E-3,-6.230641901E-2
9.752549538E0,1.649287529E-2,-5.039489828E-3,-6.841489673E-2
9.761700997E0,2.580829710E-2,-1.588202827E-2,-7.375980914E-2
9.770852403E0,3.573456407E-2,-2.443389036E-2,-7.803573459E-2
9.780003861E0,4.077405483E-2,-2.748812735E-2,-8.353336155E-2
9.789155320E0,4.688252881E-2,-2.076880634E-2,-8.704573661E-2
9.798306778E0,4.856235534E-2,-4.428642802E-3,-8.948912472E-2
9.807458184E0,4.779879749E-2,1.603474095E-2,-9.254335612E-2
9.816609643E0,4.703523964E-2,3.283303976E-2,-9.376505762E-2
9.825761101E0,4.138490185E-2,4.123219103E-2,-9.391776472E-2
9.834912559E0,3.268032894E-2,4.306473210E-2,-9.513945878E-2
9.844063965E0,2.657185495E-2,4.062134400E-2,-9.819369763E-2
9.853215424E0,2.840439789E-2,4.062134400E-2,-1.000262350E-1
9.862366882E0,3.527642787E-2,3.878879920E-2,-1.043021679E-1
9.871518340E0,4.398100078E-2,3.100049868E-2,-1.067455560E-1
9.880669747E0,4.963133857E-2,2.000524849E-2,-1.108687744E-1
9.889821205E0,5.344913527E-2,1.099525020E-2,-1.200314835E-1
9.898972663E0,5.421269313E-2,7.635590737E-4,-1.285833418E-1
9.908124070E0,5.176930502E-2,-5.344913341E-3,-1.322484314E-1
9.917275528E0,4.932591692E-2,-9.009997360E-3,-1.353026628E-1
9.926426986E0,4.275930673E-2,-2.031067200E-2,-1.383569092E-1
9.935578445E0,3.542914242E-2,-3.420744836E-2,-1.403421611E-1
9.944729851E0,3.008422814E-2,-4.810422286E-2,-1.433963925E-1
9.953881309E0,2.641914412E-2,-5.176930502E-2,-1.458397806E-1
9.963032768E0,2.397575416E-2,-5.115845799E-2,-1.507265568E-1
9.972184226E0,2.336490713E-2,-5.543438718E-2,-1.574458778E-1
9.981335632E0,2.840439789E-2,-5.726693198E-2,-1.666085869E-1
9.990487090E0,3.344388679E-2,-6.459710002E-2,-1.769929975E-1
9.999638549E0,4.352286831E-2,-7.895200700E-2,-1.866138428E-1
1.000879001E1,5.543438718E-2,-9.712471068E-2,-1.980672181E-1
1.001794141E1,7.284353673E-2,-1.206423342E-1,-2.127275616E-1
1.002709287E1,9.483403713E-2,-1.490467340E-1,-2.307475507E-1
1.003624433E1,1.197260618E-1,-1.821851879E-1,-2.464768738E-1
1.004539579E1,1.485885978E-1,-2.189887464E-1,-2.615953386E-1
1.005454720E1,1.734806150E-1,-2.472404242E-1,-2.747285664E-1
1.006369865E1,2.020377368E-1,-2.617480457E-1,-2.880144715E-1
1.007285011E1,2.336490750E-1,-2.641914487E-1,-3.011476994E-1
1.008200157E1,2.742704153E-1,-2.521272004E-1,-3.138227761E-1
1.009115298E1,3.252761662E-1,-2.351761907E-1,-3.268032968E-1
1.010030443E1,3.904841244E-1,-2.188360244E-1,-3.361186981E-1
1.010945589E1,4.749337435E-1,-2.079934925E-1,-3.471139669E-1
1.011860735E1,5.716003180E-1,-1.982199401E-1,-3.593308926E-1
1.012775876E1,6.733064055E-1,-1.841704547E-1,-3.658975065E-1
1.013691022E1,7.734853625E-1,-1.611109674E-1,-3.712424338E-1
1.014606167E1,8.652651310E-1,-1.447708011E-1,-3.797942698E-1
1.015521313E1,9.422318935E-1,-1.337755471E-1,-3.897205591E-1
1.016436454E1,1.007592559E0,-1.272089481E-1,-4.027010500E-1
1.017351600E1,1.069746256E0,-1.217113137E-1,-4.144598544E-1
1.018266746E1,1.125944257E0,-1.131594554E-1,-4.323271513E-1
1.019181891E1,1.183211088E0,-1.004843712E-1,-4.534013867E-1
1.020097032E1,1.248419046E0,-7.818844914E-2,-4.731011987E-1
1.021012178E1,1.320346355E0,-5.528167635E-2,-4.877615273E-1
1.021927324E1,1.390135646E0,-6.306997687E-2,-4.946335554E-1
1.022842470E1,1.467255116E0,-1.369825006E-1,-4.824166298E-1
1.023757610E1,1.562547326E0,-2.741177082E-1,-4.676035643E-1
1.024672756E1,1.670819998E0,-4.504998624E-1,-4.668400288E-1
1.025587902E1,1.771151662E0,-6.407787800E-1,-4.640912116E-1
1.026503042E1,1.829182148E0,-8.087617755E-1,-4.410317242E-1
1.027418188E1,1.827196836E0,-9.310839176E-1,-4.249969721E-1
1.028333334E1,1.783979416E0,-9.932376146E-1,-4.246915579E-1
1.029248480E1,1.716328144E0,-1.007287145E0,-4.563029110E-1
1.030163626E1,1.646080613E0,-1.030041218E0,-5.276193023E-1
1.031078766E1,1.631573081E0,-1.100746751E0,-6.137487888E-1
1.031993912E1,1.674485087E0,-1.191915751E0,-6.861341596E-1
1.032909058E1,1.771304369E0,-1.286749721E0,-7.605048418E-1
1.033824204E1,1.976243615E0,-1.273463845E0,-8.518264890E-1
1.034738068E1,2.274795294E0,-1.128234863E0,-9.437590241E-1
1.035654490E1,2.551967144E0,-9.422318935E-1,-9.810206890E-1
1.036569636E1,2.716743231E0,-7.676823139E-1,-9.440644383E-1
1.037483506E1,2.748507261E0,-6.372663975E-1,-8.718317747E-1
1.038399923E1,2.654589415E0,-5.738909841E-1,-8.005153537E-1
1.039315068E1,2.473167896E0,-5.164713860E-1,-7.237012982E-1
1.040228938E1,2.256164312E0,-4.111002088E-1,-6.380299330E-1
1.041145355E1,2.064205647E0,-2.687727809E-1,-5.569399595E-1
1.042060501E1,1.911493778E0,-1.253764033E-1,-4.763081372E-1
1.042975646E1,1.790851474E0,-6.184828654E-2,-3.697153032E-1
1.043890792E1,1.753284335E0,-1.102579311E-1,-2.496838123E-1
1.044805933E1,1.777718186E0,-1.172826737E-1,-1.982199401E-1
1.045721079E1,1.832083583E0,-4.795150831E-2,-2.240282297E-1
1.046636225E1,1.955322027E0,-7.391251624E-2,-2.799207568E-1
1.047551371E1,2.128344536E0,-2.418955117E-1,-3.208475113E-1
1.048466511E1,2.321830511E0,-4.424061179E-1,-3.400892019E-1
1.049381657E1,2.484010458E0,-5.760289431E-1,-3.633013964E-1
1.050296803E1,2.547843933E0,-6.827745438E-1,-3.987305462E-1
1.051210673E1,2.496990919E0,-7.577560544E-1,-4.515688419E-1
1.052127089E1,2.343209982E0,-8.335011005E-1,-5.123481154E-1
1.053042235E1,2.148808002E0,-8.599202037E-1,-5.474718809E-1
1.053956105E1,1.999913931E0,-8.232693672E-1,-5.418215394E-1
1.054872527E1,1.871330619E0,-7.861604095E-1,-5.250232220E-1
1.055787667E1,1.745190620E0,-6.951441765E-1,-5.021164417E-1
1.056702813E1,1.643026471E0,-5.157077909E-1,-4.535540938E-1
1.057617959E1,1.536128163E0,-3.106158376E-1,-3.939964771E-1
1.058533105E1,1.406628489E0,-1.823379099E-1,-3.393256664E-1
1.059448246E1,1.277281642E0,-1.395785958E-1,-3.049654961E-1
1.060363391E1,1.164122105E0,-1.710372269E-1,-3.014531136E-1
1.061278537E1,1.056154966E0,-2.249445021E-1,-3.100049794E-1
1.062193683E1,9.546015263E-1,-3.167243004E-1,-3.185568452E-1
1.063108824E1,8.672503829E-1,-4.627167881E-1,-3.252761662E-1
1.064023970E1,8.296833038E-1,-6.117635369E-1,-3.284831047E-1
1.064939115E1,8.208259940E-1,-6.581879258E-1,-3.284831047E-1
1.065854261E1,8.005153537E-1,-5.839699507E-1,-3.263451457E-1
1.066769402E1,7.350019813E-1,-4.291202128E-1,-3.225273490E-1
1.067684548E1,6.241331697E-1,-2.443388999E-1,-3.112266660E-1
1.068599693E1,5.154023767E-1,-1.485885978E-1,-2.870981991E-1
1.069514839E1,4.317162931E-1,-1.762294322E-1,-2.516690791E-1
1.070429980E1,3.807105422E-1,-2.786990702E-1,-2.226538211E-1
1.071345126E1,3.599417508E-1,-3.865135908E-1,-1.908897758E-1
1.072260272E1,3.529170156E-1,-4.465293586E-1,-1.530172378E-1
1.073175417E1,3.356605768E-1,-4.585935771E-1,-1.189625040E-1
1.074090558E1,3.106158376E-1,-4.390464723E-1,-8.368607610E-2
1.075005704E1,2.724378705E-1,-3.865135908E-1,-3.878879920E-2
1.075920850E1,2.159345001E-1,-2.930539846E-1,5.803049076E-3
1.076835996E1,1.730224788E-1,-2.044811249E-1,4.092676565E-2
1.077751136E1,1.554606259E-1,-1.785201132E-1,5.115845799E-2
1.078666282E1,1.553079188E-1,-2.124221325E-1,4.443913698E-2
1.079581428E1,1.605001241E-1,-2.371614426E-1,2.993151546E-2
1.080496574E1,1.600419879E-1,-2.449497581E-1,1.038440317E-2
1.081411714E1,1.608055383E-1,-2.643441558E-1,4.886778072E-3
1.082326860E1,1.475196183E-1,-3.016058207E-1,1.206423342E-2
1.083242006E1,1.125486046E-1,-3.245126009E-1,2.657185495E-2
1.084157152E1,7.314895838E-2,-3.365768492E-1,5.070032179E-2
1.085072292E1,4.352286831E-2,-3.490992188E-1,8.414421231E-2
1.085987438E1,1.435491070E-2,-3.466558158E-1,1.241547018E-1
1.086902584E1,-3.817795217E-2,-2.851129472E-1,1.786728203E-1
1.087817730E1,-1.102579311E-1,-1.794363856E-1,2.373141646E-1
1.088732870E1,-1.840177327E-1,-8.780929446E-2,2.929012477E-1
1.089648016E1,-2.382304370E-1,-3.894151375E-2,3.333698809E-1
1.090563162E1,-2.655658424E-1,-2.443389036E-2,3.643703759E-1
1.091478308E1,-2.609844804E-1,-9.162709117E-3,3.985778391E-1
1.092393449E1,-2.629697323E-1,-1.145338640E-2,4.364503622E-1
1.093308594E1,-3.054236174E-1,-3.130592033E-2,4.752391577E-1
1.094223740E1,-3.539859951E-1,-5.299099907E-2,4.926483035E-1
1.095138881E1,-3.536805511E-1,-1.572931744E-2,4.645493329E-1
1.096054027E1,-3.321481943E-1,7.879929990E-2,4.109475017E-1
1.096969173E1,-3.213056624E-1,1.537808031E-1,3.431434333E-1
1.097883042E1,-3.124483824E-1,1.440072358E-1,2.899997234E-1
1.098799459E1,-3.329117596E-1,1.579040140E-1,3.045073450E-1
1.099714605E1,-3.263451457E-1,1.574458778E-1,3.643703759E-1
1.100629751E1,-2.437280566E-1,1.233911440E-1,4.016320705E-1
1.101544897E1,-1.551551968E-1,1.517955512E-1,3.735330999E-1
1.102460037E1,-1.163664013E-1,3.246653080E-1,3.298575282E-1
1.103375183E1,-1.279724985E-1,6.036698222E-1,3.313846290E-1
1.104290329E1,-1.843231618E-1,8.225058317E-1,3.796415627E-1
1.105205475E1,-2.324273884E-1,9.113841057E-1,4.653128982E-1
1.106120615E1,-2.495311052E-1,9.617789984E-1,6.055023670E-1
1.107035761E1,-3.151971996E-1,1.009272337E0,7.461498976E-1
1.107950907E1,-4.813476503E-1,1.071426034E0,8.371661901E-1
1.108864777E1,-6.875085831E-1,1.095401883E0,8.832851648E-1
1.109781193E1,-8.964183331E-1,1.147476554E0,8.896990418E-1
1.110696339E1,-1.079367161E0,1.222305417E0,8.603783846E-1
1.111610209E1,-1.242310643E0,1.263537526E0,8.145648241E-1
1.112526631E1,-1.354401112E0,1.319277406E0,8.063184023E-1
1.113441772E1,-1.370893955E0,1.287513256E0,8.386932611E-1
1.114355641E1,-1.339893460E0,1.125027895E0,8.652651310E-1
1.115272063E1,-1.317597508E0,9.570449591E-1,8.947384953E-1
1.116187209E1,-1.287360549E0,8.524373770E-1,9.365815520E-1
1.117101079E1,-1.209019423E0,7.615737915E-1,9.762866497E-1
1.118017496E1,-1.125791550E0,6.070294380E-1,9.941539168E-1
1.118932641E1,-1.093111157E0,4.016320705E-1,9.975135922E-1
1.119847787E1,-1.113574505E0,2.141019702E-1,9.846857786E-1
1.120762928E1,-1.133885264E0,1.566823274E-1,9.474241138E-1
1.121678074E1,-1.145644069E0,2.623589039E-1,8.641961813E-1
1.122591943E1,-1.143200636E0,4.112529159E-1,7.218687534E-1
1.123508365E1,-1.100135922E0,4.975350797E-1,5.784723759E-1
1.124423506E1,-1.066386580E0,5.292991400E-1,5.140279531E-1
1.125337376E1,-1.108076930E0,5.601469278E-1,5.577035546E-1
1.126253798E1,-1.154195905E0,6.250494719E-1,6.818582416E-1
1.127168943E1,-1.151752472E0,6.978929639E-1,8.272398710E-1
1.128084084E1,-1.141062737E0,6.952968836E-1,9.261971712E-1
1.128999230E1,-1.060583591E0,5.827482939E-1,9.225320816E-1
1.129914376E1,-9.303203821E-1,4.023956358E-1,8.417475224E-1
1.130828246E1,-8.264763355E-1,2.159345001E-1,7.259919643E-1
1.131744662E1,-7.615737915E-1,4.993676394E-2,5.958815217E-1
1.132659808E1,-7.314895988E-1,-2.412846684E-2,4.666872919E-1
1.133574954E1,-7.351546884E-1,-2.535016090E-2,3.129065037E-1
1.134490100E1,-7.175928354E-1,-5.054761097E-2,1.554606259E-1
1.135405240E1,-6.664343476E-1,-8.643488586E-2,6.612421572E-2
1.136319110E1,-6.190937161E-1,-1.398840249E-1,8.719844371E-2
1.137235532E1,-5.893148780E-1,-2.112004459E-1,1.826433241E-1
1.138150678E1,-5.819846988E-1,-2.434226274E-1,2.670929730E-1
1.139065818E1,-5.902311802E-1,-9.193251282E-2,3.126010895E-1
1.139980964E1,-6.380299330E-1,1.244601309E-1,3.457395434E-1
1.140896110E1,-7.061394453E-1,3.607053161E-1,3.836120665E-1
1.141811256E1,-7.643226385E-1,5.549547076E-1,4.624113739E-1
1.142726396E1,-7.820371985E-1,5.829010010E-1,5.349494815E-1
1.143641542E1,-7.872294188E-1,5.824428797E-1,5.917583108E-1
1.144555412E1,-7.704311013E-1,5.488462448E-1,6.168029904E-1
1.145471834E1,-7.693621516E-1,4.330907166E-1,6.065713167E-1
1.146386975E1,-7.779139876E-1,3.225273490E-1,5.424323678E-1
1.147302120E1,-7.699729800E-1,2.342599183E-1,4.320217371E-1
1.148217266E1,-7.423321605E-1,1.650814712E-1,3.174878657E-1
1.149132412E1,-7.429429889E-1,1.424801201E-1,2.315111160E-1
1.150047553E1,-7.539382577E-1,1.488940120E-1,1.867665499E-1
1.150962699E1,-7.577560544E-1,1.669140160E-1,1.672194302E-1
1.151877844E1,-7.545490861E-1,2.228065431E-1,1.433963925E-1
1.152791714E1,-7.864658237E-1,3.678827584E-1,1.082726792E-1
1.153708131E1,-8.554915786E-1,5.948125124E-1,7.834116369E-2
1.154623277E1,-8.979454637E-1,7.273663878E-1,8.399149776E-2
1.155537146E1,-9.332218766E-1,8.504521251E-1,1.282779276E-1
1.156453568E1,-9.614735842E-1,1.012173891E0,2.090624720E-1
1.157368709E1,-9.468132257E-1,1.113879919E0,3.104631305E-1
1.158283855E1,-9.171871543E-1,1.225664973E0,3.692571819E-1
1.159199001E1,-8.819107413E-1,1.285222650E0,3.584146202E-1
1.160114147E1,-8.321266770E-1,1.339435339E0,3.061871827E-1
1.161029287E1,-7.824953198E-1,1.386928678E0,2.602209449E-1
1.161944433E1,-7.304205894E-1,1.373490095E0,2.098260373E-1
1.162859579E1,-6.784985662E-1,1.251626015E0,1.424801201E-1
1.163773449E1,-6.595623493E-1,1.103190184E0,8.170082420E-2
1.164689865E1,-6.726955175E-1,9.336800575E-1,2.870982140E-2
1.165605011E1,-6.768187881E-1,7.887565494E-1,-2.015795931E-2
1.166520157E1,-6.606312990E-1,6.759024858E-1,-8.536590636E-2
1.167435303E1,-6.360446811E-1,5.659499764E-1,-1.528645307E-1
1.168350443E1,-6.080984473E-1,4.822639227E-1,-1.818797737E-1
1.169265589E1,-5.806103349E-1,4.292729199E-1,-1.577513069E-1
1.170180735E1,-5.726693273E-1,4.066715539E-1,-1.009425074E-1
1.171095881E1,-5.711421967E-1,3.687990308E-1,-6.306997687E-2
1.172011022E1,-5.743491650E-1,2.965663373E-1,-5.390727147E-2
1.172926167E1,-5.888567567E-1,2.657185495E-1,-6.001574174E-2
1.173841313E1,-6.022953987E-1,2.741177082E-1,-7.116370648E-2
1.174756459E1,-6.172611713E-1,2.794626355E-1,-7.177454978E-2
1.175671600E1,-6.207735538E-1,2.589992285E-1,-6.810946763E-2
1.176586746E1,-6.361974478E-1,2.567085624E-1,-5.726693198E-2
1.177501891E1,-6.670452356E-1,2.602209449E-1,-4.046862945E-2
1.178417037E1,-7.119424939E-1,2.367033064E-1,-2.122694254E-2
1.179332178E1,-7.511894107E-1,1.904316396E-1,7.788302377E-3
1.180247324E1,-7.762341499E-1,1.447708011E-1,5.344913527E-2
1.181162470E1,-8.215895891E-1,1.606528312E-1,1.075091213E-1
1.182077615E1,-8.732061386E-1,1.866138428E-1,1.516428292E-1
1.182991485E1,-8.996253014E-1,1.817270666E-1,1.527118087E-1
1.183907902E1,-9.028322697E-1,1.404948682E-1,1.014006436E-1
1.184823048E1,-8.634325862E-1,5.650337040E-2,1.695101149E-2
1.185738193E1,-7.707365155E-1,-1.233911440E-1,-9.284878522E-2
1.186653334E1,-6.097782850E-1,-4.164451063E-1,-2.234173864E-1
1.187568480E1,-3.860554695E-1,-7.571451664E-1,-3.814741075E-1
1.188482350E1,-1.470614821E-1,-1.070967913E0,-5.818319917E-1
1.189398772E1,1.043021679E-1,-1.371046662E0,-8.283088803E-1
1.190313912E1,3.895678520E-1,-1.644553542E0,-1.112505555E0
1.191227782E1,7.290462255E-1,-1.812231064E0,-1.428160906E0
1.192144204E1,1.105022669E0,-1.736791492E0,-1.737555027E0
1.193059350E1,1.390746474E0,-1.338824511E0,-1.933789730E0
1.193973214E1,1.559645772E0,-7.739434838E-1,-1.927375793E0
1.194889636E1,1.703042150E0,-3.283303976E-1,-1.799097896E0
1.195804782E1,1.917602301E0,-2.241809368E-1,-1.578429341E0
1.196718652E1,2.128039122E0,-2.689255178E-1,-1.247808218E0
1.197635068E1,2.284110546E0,-1.505738497E-1,-9.298622608E-1
1.198550214E1,2.412999392E0,8.780929446E-2,-7.356128097E-1
1.199464084E1,2.540819168E0,4.587462842E-1,-6.775823236E-1
1.200380506E1,2.721629858E0,7.469134927E-1,-7.453863621E-1
1.201295646E1,3.072256327E0,7.744016051E-1,-9.225320816E-1
1.202209516E1,3.600944519E0,6.655181050E-1,-1.126402378E0
1.203125938E1,4.142307758E0,6.549809575E-1,-1.265980959E0
1.204041084E1,4.448953152E0,3.474193811E-1,-1.280641317E0
1.204954954E1,4.370764732E0,-2.472404242E-1,-1.216655016E0
1.205871370E1,4.077252865E0,-6.074876189E-1,-1.200773001E0
1.206786516E1,3.868190289E0,-7.120952010E-1,-1.225970507E0
1.207700386E1,3.770149231E0,-3.852919042E-1,-1.156792045E0
1.208616803E1,3.603998899E0,1.989834905E-1,-1.010646820E0
1.209531949E1,3.345610380E0,6.540647149E-1,-8.692356348E-1
1.210445818E1,3.054999828E0,8.716790676E-1,-6.937697530E-1
1.211362240E1,2.836774588E0,7.817317843E-1,-5.063923597E-1
1.212277381E1,2.765916348E0,4.828747511E-1,-3.064926267E-1
1.213192527E1,2.814936876E0,8.536590636E-2,-1.171299592E-1
1.214107673E1,2.839981556E0,-2.215848416E-1,-2.748812735E-2
1.215022818E1,2.788670540E0,-3.845283389E-1,-8.338065445E-2
1.215936683E1,2.676579952E0,-4.648547769E-1,-2.299840003E-1
1.216853105E1,2.524937153E0,-5.134171247E-1,-4.027010500E-1
1.217768251E1,2.352220058E0,-5.787777901E-1,-5.627430081E-1
1.218682121E1,2.163010120E0,-6.584933400E-1,-6.684195995E-1
1.219598537E1,1.964179397E0,-7.504258752E-1,-6.936170459E-1
1.220513683E1,1.794211149E0,-8.788564801E-1,-6.427640319E-1
1.221427553E1,1.627297044E0,-1.014311910E0,-5.314370990E-1
1.222343975E1,1.414874911E0,-1.093721986E0,-3.978142738E-1
1.223259115E1,1.167481780E0,-1.052642584E0,-2.677038014E-1
1.224172985E1,8.947384953E-1,-8.802309036E-1,-1.421747059E-1
1.225089407E1,5.996993184E-1,-6.705575585E-1,-3.573456407E-2
1.226004548E1,3.020639718E-1,-5.754181147E-1,4.764608666E-2
1.226919693E1,5.741964281E-2,-6.859814525E-1,1.052184403E-1
1.227834839E1,-8.979454637E-2,-8.003626466E-1,1.835595965E-1
1.228749985E1,-1.630962193E-1,-7.240067124E-1,3.161134422E-1
1.229663855E1,-1.948602796E-1,-4.866925478E-1,4.683671296E-1
1.230580272E1,-2.327328026E-1,-2.851129472E-1,5.650337338E-1
1.231495417E1,-2.947337925E-1,-1.855448484E-1,5.993938446E-1
1.232410563E1,-3.655920923E-1,-1.249182671E-1,5.922164321E-1
1.233325709E1,-4.734066129E-1,-1.232384369E-1,5.711421967E-1
1.234240850E1,-6.021426916E-1,-1.808107942E-1,5.502206683E-1
1.235155996E1,-7.070556879E-1,-2.298312783E-1,5.427377820E-1
1.236071141E1,-7.803573608E-1,-2.396048307E-1,5.514423847E-1
1.236986282E1,-8.461761475E-1,-1.908897758E-1,5.632011890E-1
1.237901428E1,-9.339854717E-1,-1.192679256E-1,5.777087808E-1
1.238816574E1,-1.034775257E0,-7.177454978E-2,5.897729993E-1
1.239731720E1,-1.122889996E0,-9.162709117E-3,6.068767309E-1
1.240646865E1,-1.151905179E0,1.814216375E-1,6.511631608E-1
1.241562006E1,-1.090362310E0,4.682144225E-1,7.814263701E-1
1.242477152E1,-9.941539168E-1,6.803311110E-1,8.979454637E-1
1.243391022E1,-8.855758309E-1,6.615476012E-1,9.542961121E-1
1.244307443E1,-8.061656952E-1,5.099047422E-1,1.009272337E0
1.245222584E1,-8.608365059E-1,3.590254784E-1,1.107924223E0
1.246136454E1,-1.114796281E0,1.786728203E-1,1.189930439E0
1.247052876E1,-1.437323570E0,1.843231618E-1,1.223679781E0
1.247968022E1,-1.755269647E0,6.019899845E-1,1.200314879E0
1.248881886E1,-1.960514307E0,1.252236843E0,1.159388065E0
1.249798308E1,-2.059777021E0,1.645927906E0,1.085017443E0
1.250713454E1,-2.046185493E0,1.538877010E0,9.808679819E-1
1.251627324E1,-1.916533232E0,1.117239594E0,9.539906979E-1
1.252543740E1,-1.691283345E0,6.201626658E-1,1.064095974E0
1.253458886E1,-1.542847514E0,2.565558553E-1,1.258345366E0
1.254372756E1,-1.495812178E0,4.367557913E-2,1.341725945E0
1.255289178E1,-1.439156175E0,-2.237228155E-1,1.200162172E0
1.256204318E1,-1.338060975E0,-4.421007037E-1,9.274188280E-1
1.257118188E1,-1.221236348E0,-3.550549746E-1,6.522321701E-1
1.258034610E1,-1.110367656E0,-2.376195788E-1,4.239279926E-1
1.258949756E1,-1.056154966E0,-2.489202619E-1,2.887780368E-1
1.259863626E1,-1.056460381E0,-2.699944973E-1,2.771719396E-1
1.260780042E1,-1.078450799E0,-1.275143623E-1,3.715478480E-1
1.261695188E1,-1.123958945E0,8.811471611E-2,5.048652887E-1
1.262610334E1,-1.151752472E0,1.817270666E-1,6.022953987E-1
1.263525475E1,-1.142589808E0,2.170034945E-1,6.768187881E-1
1.264440621E1,-1.075243831E0,2.768665254E-1,6.736118197E-1
1.265354490E1,-9.825478196E-1,2.266243398E-1,5.740436912E-1
1.266270912E1,-9.014578462E-1,1.091889441E-1,4.239279926E-1
1.267186053E1,-8.415948153E-1,4.245388508E-2,2.802261710E-1
1.268101199E1,-8.032641411E-1,1.908897609E-2,1.577513069E-1
1.269016345E1,-7.892146707E-1,9.162709117E-3,6.887302548E-2
1.269931490E1,-7.960866690E-1,9.345962852E-2,5.100574717E-2
1.270846631E1,-8.235748410E-1,2.521272004E-1,9.590301663E-2
1.271761777E1,-8.898517489E-1,4.553866386E-1,1.812689304E-1
1.272676923E1,-9.651386738E-1,6.279509664E-1,2.631224692E-1
1.273592068E1,-1.016907930E0,7.408050299E-1,3.121429384E-1
1.274507209E1,-1.026528835E0,8.600729704E-1,3.199312389E-1
1.275422355E1,-1.012632012E0,9.003888369E-1,2.919849753E-1
1.276337501E1,-1.019351363E0,9.164236188E-1,2.484621257E-1
1.277252646E1,-1.010341406E0,8.980981708E-1,1.801999360E-1
1.278167787E1,-9.961391687E-1,9.316948056E-1,1.093416587E-1
1.279082933E1,-9.984298348E-1,1.010341406E0,4.947862774E-2
1.279998079E1,-9.900307059E-1,1.058903694E0,-4.275931045E-3
1.280913225E1,-1.034317136E0,1.196955204E0,-2.748812549E-3
1.281828365E1,-1.083643079E0,1.389830232E0,4.367557913E-2
1.282743511E1,-1.103037477E0,1.455038190E0,1.021642014E-1
1.283658657E1,-1.099372387E0,1.489703774E0,1.785201132E-1
1.284573803E1,-1.100288630E0,1.493063450E0,2.583884001E-1
1.285488943E1,-1.136023164E0,1.535975456E0,3.197785318E-1
1.286404089E1,-1.168245435E0,1.588508248E0,3.843756318E-1
1.287317959E1,-1.183211088E0,1.523758531E0,4.337015450E-1
1.288234381E1,-1.203063726E0,1.317444801E0,4.184303582E-1
1.289149522E1,-1.220014691E0,1.046075940E0,3.611634374E-1
1.290063391E1,-1.226581335E0,8.426637650E-1,2.745758295E-1
1.290979813E1,-1.206117868E0,6.139014959E-1,1.496575773E-1
1.291894959E1,-1.187487125E0,3.162661791E-1,2.748812549E-3
1.292810100E1,-1.190235853E0,5.665608495E-2,-1.087308154E-1
1.293725246E1,-1.196955204E0,-1.304158866E-1,-1.904316396E-1
1.294640391E1,-1.199704051E0,-2.788517773E-1,-2.428117841E-1
1.295554261E1,-1.192679286E0,-3.680354655E-1,-2.544178963E-1
1.296470678E1,-1.155417562E0,-3.981196880E-1,-2.443388999E-1
1.297385824E1,-1.085475564E0,-4.335488379E-1,-2.425063550E-1
1.298299693E1,-1.043327093E0,-5.366293192E-1,-2.507528067E-1
1.299216115E1,-1.000873208E0,-6.595623493E-1,-2.631224692E-1
1.300131256E1,-9.240592122E-1,-7.469134927E-1,-2.893888950E-1
1.301045126E1,-8.362498879E-1,-8.970292211E-1,-3.504736125E-1
1.301961548E1,-6.963658929E-1,-1.060430884E0,-4.292729199E-1
1.302876693E1,-4.176668227E-1,-1.094638348E0,-5.109737515E-1
1.303790563E1,-3.405473381E-2,-1.072800517E0,-6.287145615E-1
1.304706980E1,4.361449480E-1,-1.045617819E0,-8.322793841E-1
1.305622126E1,1.008508801E0,-1.023627281E0,-1.107466102E0
1.306535996E1,1.539029717E0,-1.005149126E0,-1.378376842E0
1.307452412E1,1.867970943E0,-9.750649333E-1,-1.542847514E0
1.308367558E1,2.054126501E0,-1.029735804E0,-1.583010674E0
1.309281428E1,2.186069727E0,-1.132816195E0,-1.510472536E0
1.310197850E1,2.278765678E0,-1.220167398E0,-1.366312623E0
1.311112990E1,2.379097462E0,-1.065775752E0,-1.238187432E0
1.312026860E1,2.497448921E0,-7.437065244E-1,-1.191152096E0
1.312943282E1,2.609692097E0,-3.784198761E-1,-1.233911514E0
1.313858428E1,2.796153307E0,-1.588202827E-2,-1.346460104E0
1.314772298E1,3.142045498E0,3.168770075E-1,-1.488940239E0
1.315688714E1,3.612550735E0,5.154023767E-1,-1.628060699E0
1.316603860E1,4.038311005E0,6.157340407E-1,-1.696628213E0
1.317517730E1,4.222481728E0,3.880407214E-1,-1.606528282E0
1.318434147E1,4.167810917E0,5.619794875E-2,-1.382652760E0
1.319349292E1,3.979975224E0,-4.596625641E-2,-1.205048919E0
1.320263162E1,3.745715380E0,9.895725548E-2,-1.069288135E0
1.321179584E1,3.529933691E0,3.124483824E-1,-9.123004079E-1
1.322094725E1,3.310028553E0,6.452074051E-1,-7.901309133E-1
1.323008594E1,3.096384764E0,1.019962192E0,-7.198835015E-1
1.323925016E1,2.903967857E0,1.205507040E0,-6.528429985E-1
1.324840162E1,2.734915972E0,1.056002140E0,-6.013791561E-1
1.325754032E1,2.617633104E0,6.885775924E-1,-5.024218559E-1
1.326670449E1,2.532114506E0,2.677038014E-1,-3.775036037E-1
1.327585594E1,2.497143507E0,-1.533226669E-1,-3.072561622E-1
1.328499464E1,2.498823404E0,-4.654656053E-1,-3.106158376E-1
1.329415881E1,2.448734045E0,-5.705313683E-1,-3.561239541E-1
1.330331027E1,2.311140537E0,-5.729747415E-1,-4.529432356E-1
1.331244897E1,2.141630411E0,-5.821374655E-1,-5.757235289E-1
1.332161318E1,1.962957621E0,-7.038487792E-1,-6.306998134E-1
1.333076459E1,1.769624472E0,-8.896990418E-1,-6.258130074E-1
1.333990329E1,1.547581553E0,-1.034011722E0,-5.905365944E-1
1.334906751E1,1.311030984E0,-1.146713018E0,-5.115845799E-1
1.335821896E1,1.071273327E0,-1.206881523E0,-3.959817290E-1
1.336735766E1,8.417475224E-1,-1.226123214E0,-2.706053257E-1
1.337652183E1,5.995466113E-1,-1.196649790E0,-1.928750277E-1
1.338567329E1,3.571929336E-1,-1.211920977E0,-1.676775664E-1
1.339481199E1,1.375933439E-1,-1.191763043E0,-1.571404636E-1
1.340397615E1,-4.764608666E-2,-1.044854283E0,-9.926267713E-2
1.341312761E1,-1.930277348E-1,-7.333221436E-1,-2.901524492E-2
1.342226631E1,-3.126010895E-1,-3.492519259E-1,4.367557913E-2
1.343143053E1,-4.072824121E-1,-2.107422985E-2,1.630962193E-1
1.344058193E1,-4.582881629E-1,1.896680743E-1,3.121429384E-1
1.344973339E1,-4.978405237E-1,2.834331393E-1,4.156815708E-1
1.345888485E1,-5.598415136E-1,2.858765125E-1,4.836383164E-1
1.346803631E1,-6.679614782E-1,2.293731421E-1,5.451811552E-1
1.347718772E1,-8.086090684E-1,1.514901221E-1,5.827482939E-1
1.348633917E1,-9.489512444E-1,8.765657991E-2,6.299362183E-1
1.349549063E1,-1.095401883E0,1.081199646E-1,6.936170459E-1
1.350464209E1,-1.306296825E0,2.171562016E-1,7.788302302E-1
1.351379350E1,-1.553995371E0,3.564293683E-1,9.124531150E-1
1.352294496E1,-1.886449099E0,4.989095032E-1,1.091431379E0
1.353209641E1,-2.171867371E0,6.843016148E-1,1.299883008E0
1.354124787E1,-1.994569063E0,1.043174386E0,1.496881247E0
1.355039928E1,-1.801999450E0,1.479319334E0,1.672652483E0
1.355953798E1,-1.847507477E0,1.657839417E0,1.893931985E0
1.356870220E1,-1.941883445E0,1.121668339E0,1.989376783E0
1.357785365E1,-2.168660402E0,9.182561636E-1,1.983115673E0
1.358699235E1,-2.433004618E0,1.125027895E0,1.814369082E0
1.359615652E1,-2.542193651E0,1.387386799E0,1.439767003E0
1.360530798E1,-2.241198540E0,1.348292589E0,1.019198656E0
1.361444667E1,-1.859877229E0,6.739172339E-1,7.061394453E-1
1.362361084E1,-1.608819008E0,-9.773556143E-3,6.308525205E-1
1.363276230E1,-1.423884988E0,-3.374931216E-1,7.502731681E-1
1.364190100E1,-1.334243178E0,-5.874823332E-1,8.927532434E-1
1.365106522E1,-1.293774486E0,-8.538117409E-1,9.164236188E-1
1.366021662E1,-1.314237833E0,-1.074633002E0,8.480086923E-1
1.366935532E1,-1.352721214E0,-1.127471328E0,7.391251922E-1
1.367851954E1,-1.364938259E0,-9.883508682E-1,5.618267655E-1
1.368767100E1,-1.401894450E0,-7.047650218E-1,3.752129376E-1
1.369680970E1,-1.438392639E0,-3.425326049E-1,2.403683960E-1
1.370597386E1,-1.452442050E0,8.551862091E-3,1.794363856E-1
1.371512532E1,-1.418540001E0,3.037438095E-1,1.624853760E-1
1.372426402E1,-1.369672298E0,5.546492934E-1,1.944021434E-1
1.373342818E1,-1.319430113E0,6.679614782E-1,3.124483824E-1
1.374257964E1,-1.262468576E0,6.198572516E-1,4.912739098E-1
1.375173110E1,-1.214822531E0,5.833591223E-1,6.966713071E-1
1.376088256E1,-1.184585571E0,5.205945969E-1,8.026533127E-1
1.377003397E1,-1.184127450E0,4.705050886E-1,7.873821259E-1
1.377917266E1,-1.149309158E0,4.859289825E-1,6.917845011E-1
1.378833688E1,-1.165038466E0,5.859552622E-1,5.358657837E-1
1.379748834E1,-1.194206357E0,6.207735538E-1,3.738385141E-1
1.380663975E1,-1.188250661E0,7.262973785E-1,2.339545041E-1
1.381579120E1,-1.190541267E0,8.162446618E-1,1.246128380E-1
1.382494266E1,-1.181684017E0,8.351809382E-1,3.909422457E-2
1.383409412E1,-1.172368646E0,8.561024070E-1,-1.145338640E-2
1.384324553E1,-1.179851532E0,9.910996556E-1,-7.941014133E-3
1.385239699E1,-1.194206357E0,1.197871447E0,3.268032894E-2
1.386153568E1,-1.246891975E0,1.376086116E0,1.690519750E-1
1.387069990E1,-1.278350592E0,1.444806457E0,3.439069986E-1
1.387985131E1,-1.250404358E0,1.443584800E0,4.625640810E-1
1.388900277E1,-1.210393786E0,1.423884988E0,5.092939138E-1
1.389815423E1,-1.174506545E0,1.420830727E0,4.882196784E-1
1.390730568E1,-1.103342891E0,1.326912999E0,4.564556181E-1
1.391644438E1,-1.046381354E0,1.175422788E0,3.915531039E-1
1.392560855E1,-1.015380859E0,9.429954290E-1,2.790044844E-1
1.393476001E1,-1.030804753E0,7.835643291E-1,1.776038408E-1
1.394391141E1,-1.063485026E0,6.699467301E-1,9.452861547E-2
1.395306287E1,-1.091431379E0,5.961869359E-1,3.512371704E-2
1.396221433E1,-1.113421798E0,5.187620521E-1,-5.955760833E-3
1.397136579E1,-1.123653531E0,3.733803928E-1,-3.939964995E-2
1.398051720E1,-1.140604496E0,2.105895877E-1,-8.032641560E-2
1.398966865E1,-1.129151106E0,1.214058921E-1,-9.254335612E-2
1.399882011E1,-1.115101695E0,1.107160673E-1,-5.024218559E-2
1.400797157E1,-1.120446563E0,1.820324808E-1,4.550812021E-2
1.401712298E1,-1.116934180E0,2.246390730E-1,1.487413049E-1
1.402627443E1,-1.071731567E0,2.244863659E-1,2.290677279E-1
1.403542589E1,-1.022252917E0,1.324011385E-1,2.386885732E-1
1.404457735E1,-9.567395449E-1,-6.902574003E-2,1.855448484E-1
1.405371605E1,-8.191461563E-1,-3.155026138E-1,9.254335612E-2
1.406288022E1,-5.731274486E-1,-5.012001991E-1,4.734066315E-3
1.407203167E1,-2.396048307E-1,-6.058077812E-1,-6.001574174E-2
1.408117037E1,1.247655526E-1,-7.114843726E-1,-1.447708011E-1
1.409033454E1,5.085303187E-1,-9.513946176E-1,-3.225273490E-1
1.409948600E1,9.090934396E-1,-1.349819779E0,-6.607840061E-1
1.410862470E1,1.312558055E0,-1.609887958E0,-1.087155461E0
1.411778891E1,1.672805190E0,-1.541931152E0,-1.439308882E0
1.412694032E1,1.989376783E0,-1.202300072E0,-1.620577812E0
1.413607902E1,2.221498728E0,-8.959602118E-1,-1.649134874E0
1.414524324E1,2.351762056E0,-8.176190853E-1,-1.546818018E0
1.415439470E1,2.404294729E0,-8.493831158E-1,-1.372421026E0
1.416353339E1,2.423536539E0,-9.014578462E-1,-1.144575000E0
1.417269756E1,2.451788187E0,-8.089144826E-1,-8.787037730E-1
1.418184902E1,2.529060364E0,-6.090146899E-1,-6.389462352E-1
1.419098772E1,2.679481506E0,-4.156815708E-1,-4.462239146E-1
1.420015193E1,2.824252367E0,-3.035911024E-1,-3.768927455E-1
1.420930334E1,2.955126286E0,-3.400892019E-1,-4.802786708E-1
1.421844204E1,3.160371065E0,-4.986040890E-1,-7.463026643E-1
1.422760626E1,3.432961702E0,-7.276718020E-1,-1.045312405E0
1.423675766E1,3.633625031E0,-7.898254991E-1,-1.263690233E0
1.424589636E1,3.738538027E0,-8.357917666E-1,-1.362342119E0
1.425506058E1,3.684325218E0,-1.076007485E0,-1.442668557E0
1.426421204E1,3.533904076E0,-1.380362034E0,-1.530172348E0
1.427335074E1,3.387300730E0,-1.455954432E0,-1.572015405E0
1.428251490E1,3.247874975E0,-1.242157936E0,-1.532921195E0
1.429166636E1,3.174573183E0,-9.084826112E-1,-1.380362034E0
1.430080506E1,3.194731236E0,-5.413633585E-1,-1.207186937E0
1.430996923E1,3.204657316E0,-2.086043358E-1,-1.047297597E0
1.431912068E1,3.083404303E0,-8.108997345E-2,-9.016105533E-1
1.432825938E1,2.874036312E0,-8.658760041E-2,-8.047912717E-1
1.433742360E1,2.677343607E0,-1.740914769E-2,-7.769976854E-1
1.434657501E1,2.488439083E0,9.559759498E-2,-7.783721089E-1
1.435571371E1,2.322593927E0,8.154810965E-2,-7.569924593E-1
1.436487792E1,2.190040112E0,-3.038965166E-2,-6.632274389E-1
1.437402938E1,2.106201410E0,-2.472404242E-1,-6.258130074E-1
1.438316808E1,1.969218850E0,-3.849864900E-1,-6.320741773E-1
1.439233225E1,1.787949920E0,-5.047125220E-1,-6.485670805E-1
1.440148370E1,1.549261332E0,-5.606050491E-1,-6.581879258E-1
1.441062240E1,1.280946732E0,-6.140542030E-1,-6.508577466E-1
1.441978657E1,9.952229261E-1,-7.168292403E-1,-6.300889254E-1
1.442893803E1,7.004891038E-1,-8.402203918E-1,-6.248967648E-1
1.443807673E1,4.708105326E-1,-9.382613897E-1,-6.423059106E-1
1.444724094E1,2.788517773E-1,-9.975135922E-1,-6.044333577E-1
1.445639235E1,1.090362370E-1,-8.779402375E-1,-4.938700199E-1
1.446553105E1,-4.153761268E-2,-6.474980712E-1,-3.370349705E-1
1.447469527E1,-2.408265322E-1,-4.095730782E-1,-1.731752008E-1
1.448384673E1,-4.546230733E-1,-2.238755226E-1,-3.252761811E-2
1.449299813E1,-6.152759194E-1,-7.543963939E-2,6.704048812E-2
1.450214959E1,-7.110261917E-1,4.703523964E-2,1.401894391E-1
1.451130105E1,-7.916580439E-1,1.640124917E-1,1.980672181E-1
1.452045251E1,-8.651124239E-1,3.304683566E-1,2.658712566E-1
1.452960391E1,-9.513946176E-1,5.632011890E-1,3.742966652E-1
1.453875537E1,-1.124417067E0,8.142594099E-1,5.250232220E-1
1.454790683E1,-1.445569992E0,1.017518878E0,7.015580535E-1
1.455705829E1,-1.772373319E0,1.146102190E0,9.123004079E-1
1.456620975E1,-1.964637518E0,1.176186442E0,1.139230132E0
1.457536115E1,-1.934095144E0,1.189014196E0,1.315917730E0
1.458451261E1,-1.632336617E0,1.665322304E0,1.550941229E0
1.459366407E1,-1.587439299E0,2.420024157E0,1.890877724E0
1.460280277E1,-1.853615999E0,2.553799629E0,2.161941051E0
1.461196693E1,-2.315874577E0,1.993652701E0,2.160872221E0
1.462111839E1,-2.855252743E0,1.509098172E0,1.885532737E0
1.463025709E1,-3.090429068E0,1.668071151E0,1.488176584E0
1.463942126E1,-2.613357306E0,1.983115673E0,1.089446068E0
1.464857272E1,-1.943257809E0,1.428008199E0,6.360446811E-1
1.465771141E1,-1.611720443E0,2.809897363E-1,4.138490260E-1
1.466687563E1,-1.516581059E0,-4.903576374E-1,5.409052372E-1
1.467602704E1,-1.472905397E0,-5.314370990E-1,8.002098799E-1
1.468516574E1,-1.571099162E0,-3.683409095E-1,9.361234307E-1
1.469432996E1,-1.704111099E0,-3.364241421E-1,8.191461563E-1
1.470348141E1,-1.690977931E0,-4.506525695E-1,5.677825212E-1
1.471262011E1,-1.635238171E0,-3.886515796E-1,3.720059693E-1
1.472178428E1,-1.612484097E0,-1.950129867E-1,2.725905776E-1
1.473093574E1,-1.594005942E0,-4.672981426E-2,2.591519356E-1
1.474007443E1,-1.583316088E0,1.931804419E-1,2.883199155E-1
1.474923860E1,-1.574153423E0,4.680617154E-1,3.255815804E-1
1.475839006E1,-1.555217147E0,5.752654076E-1,4.355340898E-1
1.476754152E1,-1.525285602E0,5.366293192E-1,5.821374655E-1
1.477669298E1,-1.447708011E0,4.813476503E-1,7.159129977E-1
1.478584438E1,-1.351499557E0,3.588727713E-1,8.040276766E-1
1.479498308E1,-1.305380583E0,1.847812980E-1,7.922688723E-1
1.480414730E1,-1.304769754E0,7.421794534E-2,7.093463540E-1
1.481329876E1,-1.339282632E0,5.726693198E-2,5.801522136E-1
1.482243746E1,-1.382805467E0,4.092676565E-2,4.230117202E-1
1.483160162E1,-1.429077148E0,4.153761268E-2,2.846548259E-1
1.484075308E1,-1.426328301E0,1.146865711E-1,1.936385781E-1
1.484989178E1,-1.382041931E0,2.296785712E-1,1.267508119E-1
1.485905595E1,-1.367534280E0,3.565820754E-1,7.055285573E-2
1.486820740E1,-1.402505279E0,4.454603493E-1,1.160609815E-2
1.487734610E1,-1.495506763E0,9.208522439E-1,2.641914412E-2
1.488651032E1,-1.566212416E0,1.348903418E0,1.111742035E-1
1.489566173E1,-1.563005447E0,1.502226114E0,1.837123185E-1
1.490480042E1,-1.609735250E0,1.723200083E0,2.944283783E-1
1.491396464E1,-1.632489324E0,1.792836666E0,4.205683470E-1
1.492311605E1,-1.584232330E0,1.666696787E0,4.894413650E-1
1.493225475E1,-1.497339368E0,1.445111871E0,5.128062963E-1
1.494141896E1,-1.429840684E0,1.198176861E0,5.195255876E-1
1.495057042E1,-1.398382068E0,9.946120381E-1,5.100574493E-1
1.495970912E1,-1.373948216E0,8.322793841E-1,4.584408700E-1
1.496887329E1,-1.337755442E0,6.239804626E-1,3.458922505E-1
1.497802475E1,-1.338977218E0,3.516952991E-1,1.849340051E-1
1.498717620E1,-1.324622273E0,1.053711493E-2,-3.054236295E-4
1.499632761E1,-1.267202616E0,-2.678565085E-1,-1.792836636E-1
1.500547907E1,-1.193137407E0,-5.499152541E-1,-3.458922505E-1
1.501461777E1,-1.103953719E0,-8.183826208E-1,-4.842491746E-1
1.502378199E1,-9.674293399E-1,-1.012784719E0,-5.925218463E-1
1.503293345E1,-7.828007340E-1,-1.139840961E0,-6.687250137E-1
1.504207209E1,-5.787777901E-1,-1.114948988E0,-7.160657048E-1
1.505123631E1,-3.410054743E-1,-1.069746256E0,-7.821899056E-1
1.506038777E1,-6.841489673E-2,-1.218640327E0,-9.268079996E-1
1.506952647E1,2.548760176E-1,-1.372573733E0,-1.150836229E0
1.507869063E1,6.601731777E-1,-1.349514365E0,-1.418540001E0
1.508784209E1,1.061805248E0,-9.590302110E-1,-1.600419760E0
1.509698079E1,1.358371615E0,-2.786990702E-1,-1.583010674E0
1.510614496E1,1.593853235E0,2.299840003E-1,-1.476570487E0
1.511529641E1,1.891793966E0,4.735593498E-1,-1.274380088E0
1.512443511E1,2.197217703E0,5.328115225E-1,-1.042716265E0
1.513359933E1,2.454689741E0,4.705050886E-1,-8.790091872E-1
1.514275074E1,2.676885366E0,2.686200738E-1,-8.119687438E-1
1.515188943E1,2.873272896E0,-4.321744293E-2,-8.457180262E-1
1.516105365E1,3.080197334E0,-2.573194206E-1,-9.596410394E-1
1.517020511E1,3.407000542E0,-2.591519356E-1,-1.120904684E0
1.517934381E1,3.724335670E0,-1.748550236E-1,-1.274380088E0
1.518850798E1,3.868953943E0,-1.780619770E-1,-1.361425877E0
1.519765943E1,3.897969007E0,-2.281514555E-1,-1.401436329E0
1.520679813E1,3.842840195E0,-9.193251282E-2,-1.354248405E0
1.521596230E1,3.728153467E0,1.928750277E-1,-1.194664478E0
1.522511376E1,3.607816696E0,4.312581718E-1,-9.434536099E-1
1.523425246E1,3.473582983E0,5.144860744E-1,-6.838434935E-1
1.524341667E1,3.323467255E0,5.305208564E-1,-5.157077909E-1
1.525256808E1,3.220692158E0,4.920374751E-1,-4.454603493E-1
1.526170678E1,3.122803926E0,3.274141252E-1,-4.295783341E-1
1.527087100E1,3.031329632E0,6.963659078E-2,-4.111002088E-1
1.528002246E1,2.952530146E0,-2.347180545E-1,-3.669664860E-1
1.528916110E1,2.881061077E0,-4.685198367E-1,-3.513898849E-1
1.529832532E1,2.809592009E0,-5.888567567E-1,-3.797942698E-1
1.530747678E1,2.733999729E0,-6.542174220E-1,-4.504998624E-1
1.531661548E1,2.612593651E0,-7.679877281E-1,-5.172349215E-1
1.532577964E1,2.464310646E0,-8.677085042E-1,-5.170822144E-1
1.533493110E1,2.333741903E0,-9.002361298E-1,-4.666872919E-1
1.534406980E1,2.184237003E0,-8.845068216E-1,-3.981196880E-1
1.535323402E1,2.022820711E0,-9.309312105E-1,-3.301629424E-1
1.536238542E1,1.844453335E0,-1.004080176E0,-2.837385535E-1
1.537152412E1,1.635543585E0,-1.022252917E0,-2.583884001E-1
1.538068834E1,1.413958669E0,-9.834640622E-1,-2.593046725E-1
1.538983980E1,1.151599765E0,-8.670976758E-1,-2.680092454E-1
1.539897845E1,8.556442857E-1,-7.246175408E-1,-2.469350100E-1
1.540814266E1,5.552601814E-1,-6.574243903E-1,-1.930277348E-1
1.541729412E1,2.475458533E-1,-6.882721782E-1,-9.681928903E-2
1.542643282E1,-3.436015919E-2,-7.284353375E-1,3.924693540E-2
1.543559699E1,-2.368560284E-1,-7.511894107E-1,1.856975704E-1
1.544474844E1,-3.723114133E-1,-7.498149872E-1,2.964136302E-1
1.545388714E1,-4.373666346E-1,-6.766660213E-1,3.629959822E-1
1.546305131E1,-4.752391577E-1,-4.668400288E-1,4.126273096E-1
1.547220277E1,-5.317425132E-1,-1.527118087E-1,4.590517282E-1
1.548135423E1,-6.849125028E-1,1.507265568E-1,4.889832437E-1
1.549050568E1,-9.278770089E-1,4.001049399E-1,5.438067913E-1
1.549965709E1,-1.163205862E0,6.080984473E-1,6.714738607E-1
1.550879579E1,-1.419761777E0,7.840224504E-1,9.046648145E-1
1.551796001E1,-1.694184899E0,8.955020905E-1,1.174964666E0
1.552711146E1,-1.772067904E0,1.001636744E0,1.419150949E0
1.553625016E1,-1.555522561E0,1.413958669E0,1.674332380E0
1.554541433E1,-1.374559045E0,2.283805132E0,1.974869132E0
1.555456579E1,-1.601794243E0,2.682993889E0,2.131093264E0
1.556370449E1,-2.166217089E0,2.015185118E0,2.024500608E0
1.557286865E1,-2.828833580E0,1.299119353E0,1.772984147E0
1.558202011E1,-3.094246864E0,1.354553819E0,1.436407328E0
1.559115881E1,-2.556243181E0,1.619661450E0,1.041952729E0
1.560032303E1,-1.762447000E0,1.165802002E0,6.894938350E-1
1.560947443E1,-1.485885978E0,1.777565479E-1,6.090146899E-1
1.561861313E1,-1.598892689E0,-5.332696438E-1,8.365553021E-1
1.562777735E1,-1.691588759E0,-2.678565085E-1,1.093416572E0
1.563692881E1,-1.666391373E0,-1.227803007E-1,1.060430884E0
1.564606751E1,-1.605306625E0,-4.387410581E-1,8.382351398E-1
1.565523167E1,-1.518413544E0,-7.545490861E-1,6.357392669E-1
1.566438313E1,-1.492910743E0,-6.584933400E-1,5.155550838E-1
1.567352183E1,-1.518260837E0,-5.095993280E-1,3.906368315E-1
1.568268600E1,-1.537960649E0,-3.309265077E-1,2.988570333E-1
1.569183746E1,-1.560867429E0,-9.972081333E-2,2.502946556E-1
1.570097615E1,-1.556438804E0,1.259872466E-1,2.134911120E-1
1.571014037E1,-1.500699043E0,1.933331639E-1,2.718270421E-1
1.571929178E1,-1.410904408E0,1.637070626E-1,3.891097009E-1
1.572844324E1,-1.326912999E0,3.527642787E-2,5.002838969E-1
1.573759470E1,-1.288582325E0,-2.229592577E-2,5.604523420E-1
1.574674615E1,-1.286444306E0,9.651386738E-2,5.470137000E-1
1.575588485E1,-1.311336398E0,2.281514555E-1,4.929537475E-1
1.576504902E1,-1.347070932E0,3.213056624E-1,4.291202128E-1
1.577420048E1,-1.362647533E0,3.750602305E-1,3.436015844E-1
1.578335193E1,-1.340046167E0,4.011739492E-1,2.099787444E-1
1.579250334E1,-1.346307397E0,4.776825607E-1,6.872031838E-2
1.580165480E1,-1.356386304E0,5.555655956E-1,-5.405998230E-2
1.581080626E1,-1.383721709E0,7.450809479E-1,-1.148392856E-1
1.581995772E1,-1.428008199E0,1.077687263E0,-8.857285231E-2
1.582910912E1,-1.467713237E0,1.347529054E0,4.428642802E-3
1.583824782E1,-1.507570982E0,1.532310367E0,1.524063945E-1
1.584741204E1,-1.556133389E0,1.706554532E0,3.271087110E-1
1.585656350E1,-1.533073902E0,1.779856205E0,4.158342779E-1
1.586570214E1,-1.490314603E0,1.740761995E0,4.411844313E-1
1.587486636E1,-1.458397865E0,1.678302884E0,4.640912116E-1
1.588401782E1,-1.408461094E0,1.522384048E0,4.871506989E-1
1.589315652E1,-1.394258857E0,1.301715493E0,4.903576374E-1
1.590232068E1,-1.390288353E0,9.999569654E-1,4.784461260E-1
1.591147214E1,-1.381583810E0,7.472189069E-1,4.115583301E-1
1.592061084E1,-1.393800735E0,5.140279531E-1,2.779355049E-1
1.592977501E1,-1.391815424E0,2.270824611E-1,1.039967462E-1
1.593892647E1,-1.346307397E0,-1.450762246E-2,-6.459710002E-2
1.594807792E1,-1.282168388E0,-2.487675399E-1,-2.073826492E-1
1.595722938E1,-1.218487620E0,-5.534276366E-1,-3.161134422E-1
1.596638079E1,-1.133121610E0,-8.959602118E-1,-4.019374847E-1
1.597551949E1,-1.048366666E0,-1.183974743E0,-4.714213610E-1
1.598468370E1,-9.355126023E-1,-1.364938259E0,-5.271611810E-1
1.599383516E1,-7.583668828E-1,-1.501004457E0,-5.839699507E-1
1.600297386E1,-5.219689608E-1,-1.634169102E0,-6.810947061E-1
1.601213803E1,-1.737860441E-1,-1.817576051E0,-8.593093753E-1
1.602128949E1,2.663294077E-1,-1.717702508E0,-1.094485521E0
1.603042818E1,6.894938350E-1,-1.172368646E0,-1.287818789E0
1.603959235E1,1.013853788E0,-4.645493329E-1,-1.354401112E0
1.604874381E1,1.280641317E0,-5.604523420E-2,-1.325996637E0
1.605788251E1,1.472599983E0,-1.068982761E-3,-1.189625025E0
1.606704673E1,1.611720443E0,-8.551861346E-2,-9.614735842E-1
1.607619813E1,1.799556017E0,-1.519482583E-1,-7.739434838E-1
1.608533683E1,2.057486296E0,-2.170034945E-1,-7.102626562E-1
1.609450105E1,2.361993551E0,-2.504473627E-1,-7.551599145E-1
1.610365251E1,2.623130798E0,-2.696890533E-1,-8.473978639E-1
1.611279115E1,2.881366491E0,-4.028537571E-1,-9.743013978E-1
1.612195537E1,3.280249834E0,-4.946335554E-1,-1.137550354E0
1.613110683E1,3.675315142E0,-4.069769979E-1,-1.275907159E0
1.614024553E1,3.818406105E0,-3.807105422E-1,-1.369519591E0
1.614940970E1,3.752434731E0,-4.900522232E-1,-1.412737012E0
1.615856115E1,3.649965048E0,-6.161921620E-1,-1.407850266E0
1.616769985E1,3.549022675E0,-4.862344265E-1,-1.291942000E0
1.617686407E1,3.400281191E0,-1.380514801E-1,-1.100288630E0
1.618601548E1,3.209697008E0,2.327328026E-1,-9.724688530E-1
1.619515417E1,3.066300631E0,4.975350797E-1,-8.344173431E-1
1.620431839E1,2.975589752E0,5.740436912E-1,-6.836907864E-1
1.621346980E1,2.869913101E0,5.482354164E-1,-5.683933496E-1
1.622262126E1,2.742551565E0,3.555130959E-1,-5.092939138E-1
1.623177272E1,2.685284615E0,8.368607610E-2,-5.082249045E-1
1.624092417E1,2.648175478E0,-1.046075895E-1,-5.468609929E-1
1.625006287E1,2.608012438E0,-2.145601064E-1,-5.983248949E-1
1.625922704E1,2.528602123E0,-2.528907657E-1,-6.581879258E-1
1.626837850E1,2.384594917E0,-3.333698809E-1,-7.024743557E-1
1.627751720E1,2.232494116E0,-4.837910235E-1,-7.186617851E-1
1.628668136E1,2.077033281E0,-6.201626658E-1,-6.885775924E-1
1.629583282E1,1.908439517E0,-6.930062175E-1,-6.183301210E-1
1.630497152E1,1.724269152E0,-7.281299233E-1,-5.688515306E-1
1.631413574E1,1.494590521E0,-7.519529462E-1,-5.625903010E-1
1.632328714E1,1.232689738E0,-7.638645172E-1,-5.601469278E-1
1.633242584E1,9.593356252E-1,-7.424848676E-1,-5.296045542E-1
1.634159006E1,6.710157394E-1,-6.600204706E-1,-4.517215490E-1
1.635074152E1,4.112529159E-1,-6.082511544E-1,-3.649812341E-1
1.635988016E1,1.640124917E-1,-6.407787800E-1,-2.538070381E-1
1.636904438E1,-9.666658193E-2,-5.761816502E-1,-1.206423342E-1
1.637819584E1,-3.489464819E-1,-4.181249440E-1,3.374931216E-2
1.638733454E1,-5.874823332E-1,-2.003578991E-1,1.821851879E-1
1.639649871E1,-7.345438004E-1,4.947862774E-2,3.231382072E-1
1.640565016E1,-7.634063363E-1,2.625116110E-1,4.228590131E-1
1.641480162E1,-8.029587269E-1,4.518742561E-1,4.866925478E-1
1.642395308E1,-9.402466416E-1,6.158867478E-1,5.416688323E-1
1.643310449E1,-1.221389055E0,7.802046537E-1,6.343649030E-1
1.644225594E1,-1.532921195E0,1.004691005E0,8.359444737E-1
1.645140740E1,-1.833610773E0,1.152210593E0,1.093721986E0
1.646055886E1,-2.152320385E0,1.093721986E0,1.368755937E0
1.646969751E1,-2.142241240E0,1.205201626E0,1.671736240E0
1.647886173E1,-1.751146436E0,1.806428075E0,1.950587988E0
1.648801318E1,-1.747175932E0,2.440029383E0,2.172478199E0
1.649715188E1,-2.079782248E0,2.049545288E0,2.179655790E0
1.650631605E1,-2.558381081E0,1.349208832E0,1.995332599E0
1.651546751E1,-2.996816635E0,1.300341129E0,1.705790997E0
1.652460620E1,-2.863804579E0,1.313168883E0,1.240325332E0
1.653377037E1,-2.220277071E0,1.026986957E0,8.255600929E-1
1.654292183E1,-1.641957402E0,4.016320705E-1,6.255075932E-1
1.655206053E1,-1.471683741E0,-5.250232220E-1,6.120689511E-1
1.656122475E1,-1.443432093E0,-1.184432864E0,7.067502737E-1
1.657037615E1,-1.423121452E0,-1.088682532E0,8.095253110E-1
1.657951485E1,-1.432589531E0,-8.495358229E-1,8.006680608E-1
1.658867907E1,-1.492605329E0,-8.930587173E-1,6.610894203E-1
1.659783053E1,-1.491994381E0,-1.017824292E0,4.804313779E-1
1.660696917E1,-1.458855987E0,-8.802309036E-1,3.596363366E-1
1.661613339E1,-1.432436824E0,-6.751389503E-1,2.681619525E-1
1.662528485E1,-1.432742238E0,-4.848600030E-1,2.142546773E-1
1.663442355E1,-1.437781692E0,-2.409792393E-1,1.614163816E-1
1.664358772E1,-1.398992896E0,-1.832541777E-3,1.212531775E-1
1.665273917E1,-1.329967141E0,1.068982705E-1,1.704263836E-1
1.666187787E1,-1.262926698E0,1.311794519E-1,3.162661791E-1
1.667104204E1,-1.172368646E0,1.198787764E-1,5.031854510E-1
1.668019350E1,-1.129303813E0,2.012741715E-1,6.397097707E-1
1.668933220E1,-1.128540277E0,3.732276857E-1,6.742226481E-1
1.669849641E1,-1.164580345E0,6.230642200E-1,6.482616663E-1
1.670764782E1,-1.239409089E0,8.365553021E-1,5.627430081E-1
1.671679928E1,-1.277739763E0,8.570187092E-1,4.164451063E-1
1.672595074E1,-1.265675545E0,8.089144826E-1,2.718270421E-1
1.673510220E1,-1.213600755E0,7.734853625E-1,1.415638477E-1
1.674425360E1,-1.129762053E0,7.437065244E-1,4.138490185E-2
1.675340506E1,-1.122584581E0,7.941014171E-1,-1.664558798E-2
1.676255652E1,-1.184432864E0,9.733850956E-1,-5.131116882E-2
1.677170798E1,-1.172063231E0,1.051726222E0,-8.429691941E-2
1.678085938E1,-1.211768270E0,1.218640327E0,-6.139015034E-2
1.679001084E1,-1.223374367E0,1.370893955E0,3.909422457E-2
1.679916230E1,-1.187487125E0,1.444195628E0,1.418692768E-1
1.680831370E1,-1.181836724E0,1.395633221E0,2.041756958E-1
1.681746516E1,-1.151447058E0,1.218182087E0,2.382304370E-1
1.682660386E1,-1.077534556E0,1.008050680E0,2.583884001E-1
1.683576808E1,-1.022252917E0,8.959602118E-1,2.582356930E-1
1.684491949E1,-9.900307059E-1,6.891884208E-1,2.024958730E-1
1.685407094E1,-9.171871543E-1,3.223746419E-1,7.314895838E-2
1.686322240E1,-8.695410490E-1,1.695101149E-2,-7.345438004E-2
1.687237386E1,-8.455653191E-1,-1.751604527E-1,-2.148655206E-1
1.688152527E1,-8.115105629E-1,-4.130854607E-1,-3.567348123E-1
1.689067673E1,-7.747070193E-1,-6.702521443E-1,-4.813476503E-1
1.689982818E1,-7.122479081E-1,-8.037222624E-1,-5.639647245E-1
1.690896688E1,-5.877877474E-1,-8.356390595E-1,-6.149705052E-1
1.691813105E1,-4.056025743E-1,-9.295567870E-1,-6.679614782E-1
1.692728251E1,-2.128802687E-1,-1.070051670E0,-7.568397522E-1
1.693642121E1,9.620844387E-3,-1.148392797E0,-8.890882134E-1
1.694558542E1,2.585411072E-1,-1.131289124E0,-1.074174881E0
1.695473683E1,5.169295073E-1,-9.767447710E-1,-1.269035220E0
1.696387553E1,7.805100679E-1,-6.708629727E-1,-1.429229856E0
1.697303975E1,1.002553105E0,-2.350234836E-1,-1.487718463E0
1.698219120E1,1.142131686E0,1.838650256E-1,-1.394411564E0
1.699132985E1,1.301257372E0,3.504736125E-1,-1.194206357E0
1.700049407E1,1.485122442E0,2.591519356E-1,-8.979454637E-1
1.700964553E1,1.641957402E0,7.864658535E-2,-5.749599934E-1
1.701878423E1,1.858808160E0,-1.472141892E-1,-3.446705639E-1
1.702794839E1,2.122999668E0,-4.178195298E-1,-2.913741469E-1
1.703709985E1,2.463088751E0,-5.767925382E-1,-3.950654566E-1
1.704623855E1,2.889154911E0,-5.396835804E-1,-6.279509664E-1
1.705540272E1,3.257037640E0,-5.036435723E-1,-9.837695360E-1
1.706455417E1,3.525657654E0,-6.800256968E-1,-1.349361539E0
1.707369287E1,3.651339531E0,-9.651386738E-1,-1.619966984E0
1.708285709E1,3.642787695E0,-1.163053155E0,-1.788408041E0
1.709200850E1,3.609190941E0,-1.162136912E0,-1.707470775E0
1.710114720E1,3.530544519E0,-8.513683677E-1,-1.406628489E0
1.711031141E1,3.368822575E0,-2.826695740E-1,-1.069288135E0
1.711946287E1,3.166937590E0,2.055501044E-1,-8.414421082E-1
1.712860152E1,2.957722425E0,4.676035643E-1,-7.466080785E-1
1.713776574E1,2.750797987E0,6.427640319E-1,-7.096518278E-1
1.714691720E1,2.572736025E0,7.482879162E-1,-6.415423155E-1
1.715605589E1,2.460950851E0,7.003363967E-1,-5.028799772E-1
1.716522006E1,2.396659136E0,4.943281412E-1,-3.249707520E-1
1.717437152E1,2.351914644E0,1.270562261E-1,-2.199050188E-1
1.718351022E1,2.294800520E0,-1.539335102E-1,-2.177670449E-1
1.719267438E1,2.177517653E0,-3.200839758E-1,-2.855710983E-1
1.720182584E1,2.027554750E0,-4.708105326E-1,-3.762819171E-1
1.721096454E1,1.884311080E0,-6.797202826E-1,-4.578300118E-1
1.722012876E1,1.736333370E0,-8.748859763E-1,-5.013529062E-1
1.722928016E1,1.581941724E0,-9.691091776E-1,-5.219689608E-1
1.723841886E1,1.437018156E0,-1.049435616E0,-4.955498278E-1
1.724758308E1,1.265370131E0,-1.098914266E0,-4.611896873E-1
1.725673454E1,1.046686769E0,-1.110062122E0,-4.413371384E-1
1.726587324E1,8.090671897E-1,-1.090515018E0,-4.173613787E-1
1.727503740E1,5.723638535E-1,-9.959864616E-1,-3.440597057E-1
1.728418886E1,3.497100472E-1,-8.186880350E-1,-2.168507725E-1
1.729332756E1,1.734806150E-1,-6.213843822E-1,-5.833591148E-2
1.730249173E1,5.696150661E-2,-4.165978432E-1,8.475505561E-2
1.731164318E1,-4.062134400E-2,-2.206685692E-1,1.670667231E-1
1.732078188E1,-1.127013192E-1,-2.840439789E-2,2.049392611E-1
1.732994610E1,-1.759240031E-1,1.844758689E-1,2.660239935E-1
1.733909751E1,-2.189887464E-1,4.216373265E-1,3.515425920E-1
1.734823621E1,-2.788517773E-1,5.971031785E-1,4.340069890E-1
1.735740042E1,-4.013266563E-1,7.557707429E-1,5.021164417E-1
1.736655183E1,-5.674771070E-1,8.309049606E-1,5.632011890E-1
1.737569053E1,-8.050966859E-1,7.640172243E-1,6.403206587E-1
1.738485475E1,-1.126096964E0,6.236750484E-1,7.748597264E-1
1.739400620E1,-1.459008694E0,4.640912116E-1,9.558232427E-1
1.740314490E1,-1.715564489E0,3.807105422E-1,1.179393291E0
1.741230907E1,-1.817576051E0,5.653391480E-1,1.433811188E0
1.742146053E1,-1.607444525E0,1.203216434E0,1.740151167E0
1.743059923E1,-1.281252146E0,1.895306349E0,1.995943427E0
1.743976339E1,-1.260177851E0,1.853310585E0,2.053515673E0
1.744891485E1,-1.649440289E0,7.424848676E-1,1.834832430E0
1.745805355E1,-2.188665628E0,-3.802524135E-2,1.526965380E0
1.746721777E1,-2.571361542E0,5.141806602E-1,1.256971002E0
1.747636917E1,-2.417580843E0,1.434269309E0,8.660287261E-1
1.748550787E1,-1.905996203E0,1.493063450E0,4.311054647E-1
1.749467209E1,-1.400367379E0,5.234960914E-1,2.307475507E-1
1.750382350E1,-1.271325827E0,-5.204418898E-1,4.682144225E-1
1.751296220E1,-1.283084631E0,-8.205205798E-1,9.469659925E-1
1.752212641E1,-1.306907654E0,-6.366555691E-1,1.271020412E0
1.753127787E1,-1.360814929E0,-4.512633979E-1,1.233758807E0
1.754041657E1,-1.423121452E0,-4.547757804E-1,9.310839176E-1
1.754958074E1,-1.416249394E0,-4.411844313E-1,5.850389600E-1
1.755873220E1,-1.347681761E0,-4.178195298E-1,3.521534503E-1
1.756787089E1,-1.314848781E0,-3.904841244E-1,2.557922900E-1
1.757703506E1,-1.278350592E0,-2.608317733E-1,2.530434728E-1
1.758618652E1,-1.246433854E0,-3.894151375E-2,2.603736520E-1
1.759532522E1,-1.209019423E0,1.714953631E-1,3.051182032E-1
1.760448943E1,-1.184280157E0,2.594573796E-1,4.046863019E-1
1.761364084E1,-1.151905179E0,2.560977042E-1,4.819584787E-1
1.762279230E1,-1.138619304E0,2.742704153E-1,5.131117105E-1
1.763194376E1,-1.140451789E0,3.333698809E-1,5.172349215E-1
1.764109516E1,-1.169314384E0,3.965925872E-1,5.091412067E-1
1.765023386E1,-1.146407604E0,4.659237564E-1,4.897467792E-1
1.765939808E1,-1.112658262E0,4.946335554E-1,4.446968138E-1
1.766854954E1,-1.088071704E0,4.051444530E-1,3.607053161E-1
1.767770094E1,-1.066386580E0,3.590254784E-1,2.767138183E-1
1.768685240E1,-1.042258143E0,3.918585181E-1,1.863084137E-1
1.769600386E1,-1.002247691E0,3.884988427E-1,6.154286116E-2
1.770515532E1,-9.969027042E-1,3.972034156E-1,-4.535540938E-2
1.771430673E1,-9.920159578E-1,5.100574493E-1,-1.168245375E-1
1.772345818E1,-1.014006495E0,7.721109390E-1,-1.366770715E-1
1.773260964E1,-1.023932695E0,1.038593054E0,-1.058292910E-1
1.774176110E1,-1.042410851E0,1.149003744E0,-5.665608495E-2
1.775091251E1,-1.062263370E0,1.203521848E0,1.343864016E-2
1.776005120E1,-1.093263865E0,1.341115117E0,9.804098308E-2
1.776921542E1,-1.090056896E0,1.429993391E0,1.566823274E-1
1.777836683E1,-1.074174881E0,1.433811188E0,1.853921413E-1
1.778750553E1,-1.059667230E0,1.372421026E0,2.081461996E-1
1.779666975E1,-1.056918502E0,1.269951463E0,2.217375487E-1
1.780582120E1,-1.066081166E0,1.128387570E0,2.229592502E-1
1.781495990E1,-1.067913771E0,9.281824231E-1,2.011214644E-1
1.782412407E1,-1.077992678E0,6.911736727E-1,1.365243644E-1
1.783327553E1,-1.076007485E0,5.202891231E-1,4.260659590E-2
1.784242699E1,-1.062416077E0,4.253024161E-1,-5.803048983E-2
1.785157839E1,-1.037218690E0,1.988307834E-1,-1.718007922E-1
1.786072985E1,-1.005912781E0,-8.994726092E-2,-2.641914487E-1
1.786988131E1,-9.691091776E-1,-3.173351586E-1,-3.133646548E-1
1.787903277E1,-9.278770089E-1,-5.216635466E-1,-3.245126009E-1
1.788818417E1,-8.858812451E-1,-6.662816405E-1,-3.258870244E-1
1.789732287E1,-8.709154725E-1,-7.499676943E-1,-3.220692277E-1
1.790648709E1,-8.335011005E-1,-8.021951914E-1,-3.144336343E-1
1.791563850E1,-7.559235096E-1,-8.559496999E-1,-3.303156495E-1
1.792477720E1,-6.374191046E-1,-9.148964882E-1,-3.733803928E-1
1.793394141E1,-4.346178174E-1,-9.558232427E-1,-4.318690002E-1
1.794309287E1,-2.418955117E-1,-9.660549164E-1,-5.410579443E-1
1.795223157E1,-1.038440317E-1,-8.971819282E-1,-6.688777208E-1
1.796139574E1,7.055285573E-2,-6.977402568E-1,-7.795938253E-1
1.797054720E1,2.959555089E-1,-4.613423944E-1,-8.202151656E-1
1.797968589E1,5.057815313E-1,-3.071034551E-1,-7.481352091E-1
1.798885006E1,6.591041684E-1,-3.568875194E-1,-6.022953987E-1
1.799800152E1,8.017370105E-1,-5.917583108E-1,-4.721849263E-1
1.800714022E1,9.284878373E-1,-8.686248064E-1,-4.204156399E-1
1.801630438E1,1.029888511E0,-1.086086392E0,-4.738647640E-1
1.802545584E1,1.191763043E0,-1.134648800E0,-6.229115129E-1
1.803459454E1,1.450304151E0,-1.057987452E0,-8.464815617E-1
1.804375876E1,1.766112089E0,-9.848384857E-1,-1.068524599E0
1.805291016E1,2.072757483E0,-9.385668039E-1,-1.227497578E0
1.806206162E1,2.344431877E0,-8.709154725E-1,-1.319124699E0
1.807121308E1,2.564184189E0,-7.592831254E-1,-1.344474792E0
1.808036454E1,2.719491959E0,-5.749599934E-1,-1.283084631E0
1.808950318E1,2.805163383E0,-3.590254784E-1,-1.143964171E0
1.809866740E1,2.862124920E0,-1.679829955E-1,-9.947647452E-1
1.810781886E1,2.821961641E0,-3.191677108E-2,-8.492304087E-1
1.811697027E1,2.684520960E0,1.386623234E-1,-7.519529462E-1
1.812612173E1,2.557312012E0,4.016320705E-1,-6.754443645E-1
1.813527318E1,2.510582209E0,6.833853722E-1,-5.606050491E-1
1.814441188E1,2.486912012E0,8.025006056E-1,-4.485146105E-1
1.815357605E1,2.416206360E0,6.801784039E-1,-3.859027624E-1
1.816272751E1,2.309308052E0,4.228590131E-1,-3.541387022E-1
1.817186620E1,2.224553108E0,1.698155403E-1,-3.307738006E-1
1.818103037E1,2.149418831E0,-4.123219103E-2,-3.446705639E-1
1.819018183E1,2.072146654E0,-2.038702667E-1,-4.176668227E-1
1.819933329E1,2.030456305E0,-3.180987239E-1,-5.161659122E-1
1.820848475E1,2.004189968E0,-3.686463237E-1,-6.099309921E-1
1.821763615E1,1.975632787E0,-3.283303976E-1,-6.455128193E-1
1.822678761E1,1.894695520E0,-2.464768738E-1,-6.137487888E-1
1.823593907E1,1.773747683E0,-2.751866877E-1,-5.334223509E-1
1.824509053E1,1.657534003E0,-4.245388508E-1,-4.271349311E-1
1.825424193E1,1.560867429E0,-5.491516590E-1,-3.617742956E-1
1.826339339E1,1.502684236E0,-6.062659025E-1,-3.115321100E-1
1.827254485E1,1.469240427E0,-5.931326747E-1,-3.087832928E-1
1.828168355E1,1.404796004E0,-5.445703268E-1,-3.432961702E-1
1.829084772E1,1.302173615E0,-4.863871336E-1,-3.814741075E-1
1.829999917E1,1.147476554E0,-4.106420577E-1,-4.051444530E-1
1.830913787E1,9.433009028E-1,-3.158080280E-1,-4.103366435E-1
1.831830204E1,7.250757217E-1,-2.451024652E-1,-3.967452943E-1
1.832745350E1,5.341859460E-1,-2.313583940E-1,-3.466558158E-1
1.833659220E1,3.886515796E-1,-2.081461996E-1,-2.214321345E-1
1.834575641E1,2.895416021E-1,-1.737860441E-1,-2.611372061E-2
1.835490782E1,2.134911120E-1,-1.647760421E-1,1.646233350E-1
1.836404652E1,1.400367320E-1,-1.577513069E-1,3.167243004E-1
1.837321074E1,7.605048269E-2,-7.299624383E-2,4.071297050E-1
1.838236214E1,1.328592747E-2,4.504998401E-2,4.390464723E-1
1.839151360E1,-9.009996802E-2,1.708845198E-1,4.338542521E-1
1.840066506E1,-2.174616307E-1,2.677038014E-1,4.494308829E-1
1.840981652E1,-4.135435820E-1,2.603736520E-1,4.986040890E-1
1.841896792E1,-6.613948941E-1,2.254026383E-1,5.928272605E-1
1.842811938E1,-9.526162744E-1,2.531961799E-1,7.446228266E-1
1.843727084E1,-1.158929944E0,2.764083743E-1,9.220739603E-1
1.844640954E1,-1.050657272E0,3.675773442E-1,1.094943762E0
1.845557376E1,-8.270871639E-1,7.904363275E-1,1.415027618E0
1.846472516E1,-9.917105436E-1,1.263384819E0,1.903858185E0
1.847386386E1,-1.375475287E0,9.607100487E-1,2.187749386E0
1.848302808E1,-1.738318563E0,3.637595475E-1,2.086043358E0
1.849217949E1,-2.041451454E0,1.737860441E-1,1.704874754E0
1.850131818E1,-2.316485405E0,7.591304183E-1,1.237271070E0
1.851048240E1,-2.090319395E0,1.381431103E0,8.237275481E-1
1.851963381E1,-1.675859451E0,1.144269586E0,5.215108395E-1
1.852877251E1,-1.433047652E0,2.622061968E-1,4.775298536E-1
1.853793673E1,-1.219861984E0,-4.030064642E-1,7.120952010E-1
1.854708818E1,-1.175422788E0,-4.621059597E-1,9.993461370E-1
1.855622688E1,-1.223374367E0,-3.327590525E-1,1.123042703E0
1.856539105E1,-1.320040941E0,-3.429907262E-1,9.856020808E-1
1.857454251E1,-1.356539011E0,-3.362714052E-1,7.134696245E-1
1.858368120E1,-1.282015681E0,-2.046338320E-1,4.526378214E-1
1.859284537E1,-1.203369141E0,-9.743013978E-2,2.417428046E-1
1.860199683E1,-1.160151601E0,-1.171299592E-1,1.382041872E-1
1.861113553E1,-1.115254402E0,-1.007898003E-1,1.258345395E-1
1.862029975E1,-1.077687263E0,4.275930673E-2,1.235438585E-1
1.862945115E1,-1.061499834E0,1.519482583E-1,1.443126649E-1
1.863860261E1,-1.065012217E0,2.414373755E-1,2.217375487E-1
1.864775407E1,-1.106397152E0,3.332171738E-1,3.167243004E-1
1.865690548E1,-1.156639338E0,4.088095427E-1,3.804051280E-1
1.866604417E1,-1.162595034E0,4.558447599E-1,3.991886973E-1
1.867520839E1,-1.144575000E0,4.544703662E-1,3.724641204E-1
1.868435985E1,-1.106397152E0,4.019374847E-1,3.281776905E-1
1.869351126E1,-1.079214454E0,3.403946459E-1,2.924431264E-1
1.870266272E1,-1.066844702E0,3.619270027E-1,2.498365343E-1
1.871181417E1,-1.046839476E0,3.503209054E-1,1.882936656E-1
1.872096558E1,-1.018893242E0,3.043546379E-1,1.133121699E-1
1.873011704E1,-9.797990322E-1,3.083251417E-1,3.665083647E-2
1.873926850E1,-9.349017143E-1,3.472666740E-1,-2.718270384E-2
1.874841996E1,-8.919897079E-1,4.025483429E-1,-7.941014320E-2
1.875757136E1,-8.751913905E-1,4.628695250E-1,-9.636115283E-2
1.876672282E1,-8.982508779E-1,5.447230339E-1,-8.444963396E-2
1.877587428E1,-9.400939345E-1,7.238540053E-1,-2.504473738E-2
1.878502574E1,-1.013090134E0,9.921686649E-1,4.871506989E-2
1.879417714E1,-1.080436110E0,1.259872437E0,1.067455560E-1
1.880332860E1,-1.079519868E0,1.302784443E0,1.269035190E-1
1.881248006E1,-1.092042208E0,1.299272060E0,1.652341783E-1
1.882163147E1,-1.117697716E0,1.312710762E0,2.365505993E-1
1.883078292E1,-1.113727212E0,1.267660737E0,2.695363462E-1
1.883993438E1,-1.091736794E0,1.214669824E0,2.593046725E-1
1.884908584E1,-1.074938416E0,1.198482275E0,2.527380586E-1
1.885823725E1,-1.039814711E0,1.075396657E0,2.316638231E-1
1.886738870E1,-1.030957460E0,8.559496999E-1,1.837123185E-1
1.887654016E1,-1.032789946E0,6.635328531E-1,1.429382563E-1
1.888569157E1,-1.017976999E0,5.451811552E-1,1.027750522E-1
1.889484303E1,-1.008508801E0,4.172086716E-1,3.023693897E-2
1.890399449E1,-1.001942158E0,2.735068500E-1,-5.314370990E-2
1.891314594E1,-1.030957460E0,2.298312783E-1,-1.107160673E-1
1.892229735E1,-1.018129706E0,1.985253543E-1,-1.394258887E-1
1.893144881E1,-9.885035753E-1,6.520794332E-2,-1.629435122E-1
1.894060027E1,-9.773555994E-1,-8.002099395E-2,-1.675248593E-1
1.894975167E1,-9.562813640E-1,-1.853921413E-1,-1.441599578E-1
1.895890313E1,-9.254335761E-1,-2.611372173E-1,-1.188097894E-1
1.896804183E1,-8.771766424E-1,-3.495573401E-1,-1.172826737E-1
1.897720605E1,-8.170081973E-1,-4.405735731E-1,-1.484358907E-1
1.898635746E1,-7.481352091E-1,-5.323534012E-1,-2.076880634E-1
1.899549615E1,-6.569662094E-1,-6.965186000E-1,-3.071034551E-1
1.900466037E1,-5.179984570E-1,-9.342908859E-1,-4.469874799E-1
1.901381183E1,-3.283303976E-1,-1.057376623E0,-5.854970813E-1
1.902295053E1,-1.055238619E-1,-9.712471366E-1,-6.994200945E-1
1.903211470E1,1.094943732E-1,-7.175928354E-1,-7.682931423E-1
1.904126615E1,3.063398898E-1,-3.822376728E-1,-7.879929543E-1
1.905040485E1,5.134171247E-1,-1.166718230E-1,-7.666133046E-1
1.905956902E1,6.768187881E-1,5.024218559E-2,-6.708629727E-1
1.906872048E1,8.031114340E-1,4.795150831E-2,-5.435013771E-1
1.907785917E1,9.533798695E-1,-1.714953631E-1,-4.677563012E-1
1.908702334E1,1.123958945E0,-4.416425824E-1,-4.572191834E-1
1.909617480E1,1.303089857E0,-6.520794630E-1,-5.364766121E-1
1.910531350E1,1.504364133E0,-7.589777112E-1,-6.760551929E-1
1.911447772E1,1.713579297E0,-7.333221436E-1,-8.235748410E-1
1.912362912E1,1.901872993E0,-6.345176101E-1,-9.431481957E-1
1.913278058E1,2.075353622E0,-4.876088202E-1,-1.025154471E0
1.914193204E1,2.245016336E0,-3.399364948E-1,-1.076618314E0
1.915108344E1,2.389023542E0,-2.270824611E-1,-1.112810969E0
1.916022214E1,2.466906548E0,-1.745496094E-1,-1.131289124E0
1.916938636E1,2.475764036E0,-2.112004459E-1,-1.092805743E0
1.917853782E1,2.467059374E0,-3.096995652E-1,-1.000567794E0
1.918768923E1,2.468433857E0,-2.250972092E-1,-9.388722181E-1
1.919684068E1,2.472251654E0,-4.657710344E-2,-9.005415440E-1
1.920599214E1,2.468433857E0,9.391776472E-2,-8.774821162E-1
1.921513084E1,2.452857256E0,1.586675793E-1,-8.336538076E-1
1.922429501E1,2.404905558E0,2.330382317E-1,-7.296570539E-1
1.923344646E1,2.329313278E0,3.092414141E-1,-6.331431866E-1
1.924258516E1,2.257233381E0,3.382566571E-1,-5.457920432E-1
1.925174933E1,2.174158096E0,3.403946459E-1,-4.552339315E-1
1.926090079E1,2.098412991E0,3.037438095E-1,-3.868190348E-1
1.927005225E1,2.027249336E0,1.922641695E-1,-3.785725832E-1
1.927920365E1,1.951046109E0,5.619794875E-2,-4.352286756E-1
1.928835511E1,1.886601806E0,-7.024743408E-2,-5.369347334E-1
1.929750657E1,1.839566469E0,-2.067717910E-1,-6.349757314E-1
1.930665803E1,1.806733489E0,-3.263451457E-1,-6.662816405E-1
1.931580949E1,1.758934736E0,-3.588727713E-1,-6.525375843E-1
1.932496089E1,1.704416513E0,-3.394783735E-1,-6.175665855E-1
1.933411235E1,1.641041160E0,-3.106158376E-1,-5.722111464E-1
1.934326381E1,1.563768983E0,-3.129065037E-1,-5.244123936E-1
1.935241522E1,1.480999231E0,-3.713951409E-1,-4.851654470E-1
1.936156667E1,1.395785928E0,-4.472928941E-1,-4.436278343E-1
1.937071813E1,1.304158926E0,-4.876088202E-1,-3.984251320E-1
1.937985683E1,1.207797766E0,-4.847072959E-1,-3.509317636E-1
1.938902100E1,1.098303318E0,-4.460712075E-1,-3.248180151E-1
1.939817246E1,9.648332596E-1,-4.184303582E-1,-3.069507480E-1
1.940731115E1,8.304468393E-1,-4.324798584E-1,-2.773246467E-1
1.941647532E1,6.905628443E-1,-4.711159468E-1,-2.305948436E-1
1.942562678E1,5.593833923E-1,-5.054761171E-1,-1.869192570E-1
1.943477824E1,4.497362971E-1,-5.349494815E-1,-1.198787764E-1
1.944392964E1,3.707842827E-1,-4.979932308E-1,-4.535540938E-2
1.945308110E1,3.054236174E-1,-3.880407214E-1,2.794626169E-2
1.946223256E1,2.304421216E-1,-2.958027720E-1,8.719844371E-2
1.947138402E1,1.669140160E-1,-2.451024652E-1,1.178935245E-1
1.948053542E1,1.409530044E-1,-2.403683960E-1,1.299577504E-1
1.948968688E1,1.574458778E-1,-3.029802442E-1,1.421747059E-1
1.949883834E1,1.852394342E-1,-3.805578351E-1,1.479777545E-1
1.950798975E1,1.870719790E-1,-4.396573007E-1,1.401894391E-1
1.951714120E1,1.524063945E-1,-4.874561131E-1,1.203369126E-1
1.952629266E1,6.612421572E-2,-4.647020400E-1,9.284878522E-2
1.953544412E1,-4.749337584E-2,-3.866663277E-1,8.826743066E-2
1.954459553E1,-1.676775664E-1,-2.565558553E-1,1.331647038E-1
1.955374699E1,-2.922904193E-1,-7.253811508E-2,2.225011140E-1
1.956289845E1,-3.860554695E-1,2.046338283E-2,3.049654961E-1
1.957204990E1,-4.578300118E-1,3.924693540E-2,3.642176688E-1
1.958120131E1,-5.593833923E-1,5.909947306E-2,4.165978432E-1
1.959035277E1,-7.055285573E-1,1.043021679E-1,4.955498278E-1
1.959950423E1,-8.649597168E-1,1.522536725E-1,6.305471063E-1
1.960865563E1,-8.649597168E-1,1.514901221E-1,7.568397522E-1
1.961780709E1,-6.255075932E-1,1.745496094E-1,8.275453448E-1
1.962694579E1,-4.127800465E-1,3.388675153E-1,8.680139780E-1
1.963610996E1,-4.822639227E-1,3.672719002E-1,9.164236188E-1
1.964526141E1,-6.125270724E-1,2.878617644E-1,9.955283403E-1
1.965440011E1,-6.306998134E-1,2.170034945E-1,1.059056401E0
1.966356433E1,-5.708367825E-1,2.493783981E-1,1.012326598E0
1.967271574E1,-4.544703662E-1,4.611896873E-1,8.835905790E-1
1.968185443E1,-5.700731874E-1,5.754181147E-1,6.939224601E-1
1.969101865E1,-8.218950033E-1,4.918847680E-1,5.309789777E-1
1.970017011E1,-9.243646264E-1,6.591041684E-1,4.996730685E-1
1.970930881E1,-8.551861644E-1,9.678874612E-1,5.421269536E-1
1.971847298E1,-8.571714163E-1,9.573503733E-1,6.172611713E-1
1.972762443E1,-9.892671108E-1,6.584933400E-1,6.922426820E-1
1.973676313E1,-1.070967913E0,4.340069890E-1,7.821899056E-1
1.974592730E1,-1.135565042E0,4.515688419E-1,8.634325862E-1
1.975507876E1,-1.245212078E0,6.522321701E-1,8.912261724E-1
1.976423022E1,-1.267202616E0,7.994463444E-1,8.171609044E-1
1.977338162E1,-1.248877168E0,8.648070097E-1,6.988092661E-1
1.978253308E1,-1.258803487E0,9.049702287E-1,6.522321701E-1
1.979167178E1,-1.240019917E0,9.129112363E-1,6.878139973E-1
1.980083595E1,-1.198634982E0,8.855758309E-1,7.484406233E-1
1.980998740E1,-1.160304427E0,7.073611021E-1,7.812736630E-1
1.981912610E1,-1.060583591E0,4.144598544E-1,7.310314775E-1
1.982829032E1,-9.300149679E-1,1.243074164E-1,6.117635369E-1
1.983744173E1,-7.838697433E-1,-8.139539510E-2,4.694361091E-1
1.984659318E1,-6.397097707E-1,-1.661504507E-1,3.397837877E-1
1.985574464E1,-5.589252710E-1,-1.120904684E-1,2.322746664E-1
1.986489605E1,-5.289937258E-1,-2.336490713E-2,1.139230132E-1
1.987403475E1,-5.216635466E-1,4.245388508E-2,4.581354442E-4
1.988319897E1,-5.436540842E-1,1.090362370E-1,-7.986827940E-2
1.989235042E1,-5.638120174E-1,1.843231618E-1,-9.223793447E-2
1.990150183E1,-5.864133835E-1,2.681619525E-1,-5.390727147E-2
1.991065329E1,-6.242858768E-1,3.370349705E-1,7.330167107E-3
1.991980475E1,-6.607840061E-1,3.920112252E-1,6.200099736E-2
1.992895615E1,-6.888830066E-1,4.940227270E-1,1.075091213E-1
1.993810761E1,-7.014053464E-1,5.700731874E-1,1.527118087E-1
1.994725907E1,-6.989619732E-1,5.497625470E-1,1.869192570E-1
1.995641053E1,-7.114843726E-1,4.793623984E-1,2.266243398E-1
1.996556193E1,-6.986565590E-1,4.048390090E-1,2.822114229E-1
1.997471339E1,-6.927008033E-1,3.906368315E-1,3.494046330E-1
1.998385209E1,-7.049177289E-1,4.282039404E-1,4.111002088E-1
1.999301626E1,-7.174401283E-1,3.536805511E-1,4.353813827E-1
2.000216772E1,-7.411104441E-1,1.792836636E-1,4.182776511E-1
2.001131917E1,-7.640172243E-1,7.864658535E-2,3.901786804E-1
2.002047063E1,-7.505785823E-1,-3.787253052E-2,3.365768492E-1
2.002962204E1,-7.171346545E-1,-1.568350345E-1,2.745758295E-1
2.003877350E1,-7.062921524E-1,-1.858502775E-1,2.344126403E-1
2.004792496E1,-7.072083950E-1,-1.991362125E-1,2.105895877E-1
2.005707636E1,-7.322531343E-1,-2.119639963E-1,1.976090819E-1
2.006622782E1,-7.669187188E-1,-1.945548505E-1,1.899735034E-1
2.007537928E1,-7.747070193E-1,-1.566823274E-1,1.789782494E-1
2.008453074E1,-7.637118101E-1,-1.325538605E-1,1.685938388E-1
2.009368214E1,-7.626428008E-1,-1.084253863E-1,1.679829955E-1
2.010283360E1,-7.765395641E-1,-7.956285775E-2,1.708845198E-1
2.011198506E1,-8.112051487E-1,-3.665083554E-3,1.748550236E-1
2.012113647E1,-8.532009125E-1,8.536590636E-2,1.757712960E-1
2.013028792E1,-8.826742768E-1,1.287360638E-1,1.681357026E-1
2.013943938E1,-9.011524320E-1,1.293469071E-1,1.630962193E-1
2.014859084E1,-9.089407325E-1,1.835595965E-1,1.679829955E-1
2.015774225E1,-9.051229358E-1,2.377723008E-1,1.637070626E-1
2.016689370E1,-8.864920735E-1,2.292204350E-1,1.392731816E-1
2.017604516E1,-8.444963098E-1,1.924168915E-1,8.842013776E-2
2.018519657E1,-8.171609044E-1,1.838650256E-1,3.359659761E-2
2.019434803E1,-8.035695553E-1,2.058555335E-1,-3.512371797E-3
2.020349949E1,-7.980719209E-1,2.812951505E-1,-1.878355257E-2
2.021265094E1,-8.293778896E-1,4.077405334E-1,-1.542389300E-2
2.022180235E1,-8.725953102E-1,5.409052372E-1,-6.719320081E-3
2.023095381E1,-8.835905790E-1,5.963396430E-1,4.886778072E-3
2.024010527E1,-8.881719112E-1,6.096255779E-1,3.161134571E-2
2.024925667E1,-8.922951221E-1,6.357392669E-1,7.498150319E-2
2.025840813E1,-8.837432861E-1,6.340594292E-1,1.043021679E-1
2.026755959E1,-8.713735938E-1,5.570927262E-1,1.093416587E-1
2.027671100E1,-8.602256775E-1,4.303418994E-1,9.239064902E-2
2.028586246E1,-8.406785131E-1,3.182514310E-1,5.589252338E-2
2.029501391E1,-7.994463444E-1,2.252499312E-1,-2.290677279E-3
2.030416537E1,-7.478297353E-1,1.293469071E-1,-7.452336699E-2
2.031331678E1,-7.151494026E-1,8.811471611E-2,-1.371352077E-1
2.032246824E1,-6.879667044E-1,9.345962852E-2,-1.675248593E-1
2.033161970E1,-6.797202826E-1,1.470614821E-1,-1.644706279E-1
2.034077110E1,-6.959077120E-1,2.122694254E-1,-1.334701329E-1
2.034992256E1,-7.137750387E-1,2.551814318E-1,-9.208522737E-2
2.035907402E1,-7.269082665E-1,2.600682080E-1,-6.154286116E-2
2.036822548E1,-7.272136807E-1,2.234173864E-1,-4.321744293E-2
2.037737688E1,-7.122479081E-1,2.000524700E-1,-2.305948362E-2
2.038652834E1,-6.959077120E-1,2.278460264E-1,-9.162708884E-4
2.039567980E1,-6.980457306E-1,2.447970361E-1,1.679829881E-2
2.040483120E1,-7.223268747E-1,2.611372173E-1,2.626643144E-2
2.041398266E1,-7.588250041E-1,2.706053257E-1,3.756710514E-2
2.042313412E1,-8.044858575E-1,2.779355049E-1,5.192201585E-2
2.043228558E1,-8.608365059E-1,2.916795611E-1,6.872031838E-2
2.044143699E1,-9.127585292E-1,2.935121059E-1,8.414421231E-2
2.045058844E1,-9.422318935E-1,2.826695740E-1,1.004843712E-1
2.045973990E1,-9.510892034E-1,2.399102598E-1,1.108687744E-1
2.046889131E1,-9.523108602E-1,1.615691036E-1,1.041494608E-1
2.047804277E1,-9.373451471E-1,8.918370306E-2,7.864658535E-2
2.048719423E1,-8.980981708E-1,5.176930502E-2,4.169032723E-2
2.049634563E1,-8.379297256E-1,4.199574888E-2,5.497625098E-3
2.050549709E1,-7.739434838E-1,5.772506446E-2,-1.847812906E-2
2.051464855E1,-7.148439884E-1,7.528692484E-2,-2.779355086E-2
2.052380001E1,-6.595623493E-1,9.941539168E-2,-3.115320951E-2
2.053295141E1,-6.137487888E-1,1.447708011E-1,-2.657185495E-2
2.054210287E1,-5.632011890E-1,2.057028115E-1,-2.137965336E-2
2.055125433E1,-5.210527182E-1,2.557922900E-1,-1.740914769E-2
2.056040574E1,-4.995203316E-1,3.179459870E-1,-6.261184346E-3
2.056955720E1,-4.819584787E-1,4.089622498E-1,1.634016447E-2
2.057870865E1,-4.524851143E-1,4.880669713E-1,5.070032179E-2
2.058786006E1,-4.231644273E-1,5.564818382E-1,9.849911928E-2
2.059701152E1,-4.141544402E-1,6.265766025E-1,1.461452097E-1
2.060616298E1,-4.198047817E-1,7.001836896E-1,1.850867122E-1
2.061531443E1,-4.246915579E-1,7.545490861E-1,2.052446753E-1
2.062446584E1,-4.282039404E-1,7.298097610E-1,2.009687424E-1
2.063361730E1,-4.304946065E-1,6.598677635E-1,1.777565479E-1
2.064276876E1,-4.384356141E-1,5.932853818E-1,1.386623234E-1
2.065192016E1,-4.349232614E-1,5.564818382E-1,9.590301663E-2
2.066107162E1,-4.004103839E-1,5.105155706E-1,5.650337040E-2
2.067022308E1,-3.367295563E-1,4.381301999E-1,2.718270384E-2
2.067937454E1,-2.599155009E-1,3.376458287E-1,5.192201585E-3
2.068852595E1,-1.934858710E-1,2.159345001E-1,-1.450762246E-2
2.069767740E1,-1.398840249E-1,9.116895497E-2,-2.993151546E-2
2.070682886E1,-1.172826737E-1,-2.275406010E-2,-4.367557913E-2
2.071598027E1,-1.301104724E-1,-9.620844573E-2,-5.344913527E-2
2.072513173E1,-1.514901221E-1,-1.192679256E-1,-5.299099907E-2
2.073428318E1,-1.534753740E-1,-1.143811494E-1,-4.260659590E-2
2.074343459E1,-1.502684206E-1,-1.250709742E-1,-2.305948362E-2
2.075258605E1,-1.550024897E-1,-1.690519750E-1,-5.955760833E-3
2.076173751E1,-1.484358907E-1,-2.136438340E-1,-4.123218823E-3
2.077088891E1,-1.291942000E-1,-2.226538211E-1,-3.970507067E-3
2.078004037E1,-9.743013978E-2,-1.876828223E-1,-3.817795310E-3
2.078919183E1,-6.597150117E-2,-1.308740228E-1,-4.123218823E-3
2.079834329E1,-4.871506989E-2,-5.558710173E-2,-3.512371797E-3
2.080749470E1,-3.955236077E-2,2.580829710E-2,1.985253533E-3
2.081664615E1,-3.603998944E-2,1.133121699E-1,1.359135192E-2
2.082579761E1,-3.680354729E-2,1.863084137E-1,2.764083818E-2
2.083494902E1,-3.420744836E-2,2.290677279E-1,3.680354729E-2
2.084410048E1,-2.214321308E-2,1.934858710E-1,3.069507517E-2
2.085325193E1,-3.970507067E-3,1.096470803E-1,2.748812549E-3
2.086240339E1,1.298050396E-2,3.054236248E-2,-3.237490356E-2
2.087155480E1,3.436015919E-2,-1.771457121E-2,-6.398624927E-2
2.088070626E1,4.871506989E-2,-1.954711229E-2,-7.727217674E-2
2.088985772E1,4.275930673E-2,1.542389300E-2,-6.459710002E-2
2.089900912E1,2.000524849E-2,5.238015205E-2,-3.603998944E-2
2.090816058E1,-2.290677279E-3,6.566607952E-2,-5.650337320E-3
2.091731204E1,-2.641914412E-2,4.947862774E-2,1.801999472E-2
2.092646344E1,-3.924693540E-2,3.497100621E-2,3.374931216E-2
2.093561490E1,-5.085303262E-2,3.313846514E-2,4.169032723E-2
2.094476636E1,-6.215370819E-2,4.169032723E-2,5.131116882E-2
2.095391777E1,-8.322793990E-2,4.581354558E-2,6.459710002E-2
2.096306923E1,-1.140757278E-1,4.581354558E-2,8.261708915E-2
2.097222068E1,-1.369825006E-1,4.840964451E-2,9.956810623E-2
2.098137214E1,-1.545443535E-1,7.605048269E-2,1.110214889E-1
2.099052355E1,-1.794363856E-1,1.091889441E-1,1.145338640E-1
2.099967501E1,-2.026485801E-1,1.464506239E-1,1.088835225E-1
2.100882647E1,-2.040229887E-1,1.681357026E-1,9.605573118E-2
2.101797787E1,-1.939440072E-1,1.554606259E-1,7.467607409E-2
2.102712933E1,-1.806580722E-1,1.307213157E-1,5.650337040E-2
2.103628079E1,-1.693574041E-1,1.156028435E-1,4.749337584E-2
2.104543220E1,-1.528645307E-1,1.209477559E-1,4.932591692E-2
2.105458365E1,-1.437018216E-1,1.233911440E-1,5.925218388E-2
2.106373511E1,-1.505738497E-1,1.301104724E-1,7.253811508E-2
2.107288652E1,-1.708845198E-1,1.391204596E-1,8.154810965E-2
2.108203798E1,-1.889045089E-1,1.391204596E-1,8.399149776E-2
2.109118943E1,-2.040229887E-1,1.078145429E-1,7.711946964E-2
2.110034089E1,-2.157817930E-1,5.589252338E-2,6.856760383E-2
2.110949230E1,-2.099787444E-1,2.397575416E-2,6.184828654E-2
2.111864376E1,-1.933331639E-1,2.947338112E-2,5.650337040E-2
2.112779522E1,-1.644706279E-1,4.749337584E-2,5.299099907E-2
2.113694662E1,-1.408002973E-1,7.956285775E-2,5.314370990E-2
2.114609808E1,-1.305686086E-1,1.114796251E-1,6.123743951E-2
2.115524954E1,-1.418692768E-1,1.313321590E-1,7.024743408E-2
2.116440094E1,-1.615691036E-1,1.235438585E-1,7.986827940E-2
2.117355240E1,-1.768402755E-1,9.590301663E-2,8.338065445E-2
2.118270386E1,-1.814216375E-1,6.566607952E-2,8.093725890E-2
2.119185532E1,-1.774511337E-1,4.581354558E-2,7.620319724E-2
2.120100673E1,-1.624853760E-1,3.008422814E-2,6.398624927E-2
2.121015818E1,-1.517955512E-1,1.435491070E-2,4.642439261E-2
2.121930964E1,-1.430909634E-1,2.901524538E-3,3.680354729E-2
2.122846105E1,-1.357607991E-1,1.068982761E-3,3.252761811E-2
2.123761251E1,-1.386623234E-1,-3.817795310E-3,3.374931216E-2
2.124676397E1,-1.516428292E-1,-1.466033421E-2,3.665083647E-2
2.125591537E1,-1.589729935E-1,-1.160609815E-2,3.909422457E-2
2.126506683E1,-1.629435122E-1,9.009997360E-3,4.337015375E-2
2.127421829E1,-1.643179059E-1,2.336490713E-2,4.642439261E-2
2.128336975E1,-1.667613089E-1,1.801999472E-2,4.382828996E-2
2.129252115E1,-1.640124917E-1,-4.275931045E-3,3.787253052E-2
2.130167261E1,-1.551551968E-1,-2.305948362E-2,3.115320951E-2
2.131082407E1,-1.470614821E-1,-2.916795574E-2,2.519745007E-2
2.131997548E1,-1.360662282E-1,-2.305948362E-2,2.397575416E-2
2.132912693E1,-1.354553849E-1,-2.840439789E-2,2.886253223E-2
2.133827839E1,-1.452289373E-1,-4.107947648E-2,3.558185324E-2
2.134742980E1,-1.617218107E-1,-6.215370819E-2,3.970507160E-2
2.135658126E1,-1.812689304E-1,-6.765133142E-2,3.894151375E-2
2.136573272E1,-2.011214644E-1,-5.497625470E-2,3.939964995E-2
2.137488412E1,-2.148655206E-1,-3.512371704E-2,3.863608837E-2
2.138403558E1,-2.186833173E-1,-2.015795931E-2,3.619270027E-2
2.139318704E1,-2.148655206E-1,-2.611372061E-2,2.825168520E-2
2.140233850E1,-1.980672181E-1,-3.771981969E-2,1.924168877E-2
2.141148990E1,-1.635543555E-1,-3.695625812E-2,1.649287529E-2
2.142064136E1,-1.342336833E-1,-2.428117767E-2,1.542389300E-2
2.142979282E1,-1.249182671E-1,-1.832541823E-2,1.740914769E-2
2.143894423E1,-1.397313178E-1,-3.145863488E-2,1.786728203E-2
2.144809568E1,-1.659977436E-1,-4.657710344E-2,1.710372418E-2
2.145724714E1,-1.991362125E-1,-6.001574174E-2,1.496575773E-2
2.146639855E1,-2.261662036E-1,-7.696675509E-2,9.926267900E-3
2.147555001E1,-2.353289127E-1,-7.941014320E-2,6.261184346E-3
2.148470146E1,-2.235700935E-1,-8.536590636E-2,3.817795310E-3
2.149385292E1,-1.988307834E-1,-9.376505762E-2,3.359660041E-3
2.150300433E1,-1.779092699E-1,-8.887827396E-2,6.566607859E-3
2.151215579E1,-1.719534993E-1,-6.887302548E-2,1.221694518E-2
2.152130725E1,-1.782146841E-1,-5.451811850E-2,1.328592747E-2
2.153045865E1,-1.855448484E-1,-5.940489471E-2,8.399149403E-3
2.153961011E1,-1.870719790E-1,-8.887827396E-2,-5.039489828E-3
2.154876157E1,-1.737860441E-1,-1.232384369E-1,-2.015795931E-2
2.155791298E1,-1.476723254E-1,-1.504211426E-1,-3.161134571E-2
2.156706443E1,-1.204896197E-1,-1.473668963E-1,-3.329117596E-2
2.157621589E1,-9.559759498E-2,-1.152974218E-1,-2.397575416E-2
2.158536730E1,-8.536590636E-2,-8.582404256E-2,-1.038440317E-2
2.159451876E1,-8.979454637E-2,-7.681404054E-2,-2.596100792E-3
2.160367022E1,-1.052184403E-1,-7.070557028E-2,-6.261184346E-3
2.161282162E1,-1.276670843E-1,-5.146388337E-2,-9.009997360E-3
2.162197308E1,-1.531699449E-1,-2.672456764E-2,-8.551862091E-3
2.163112454E1,-1.722589284E-1,-1.786728203E-2,-7.482878864E-3
2.164027600E1,-1.785201132E-1,-1.908897609E-2,-9.315420873E-3
2.164942740E1,-1.702736765E-1,-2.748812735E-2,-1.114796288E-2
2.165857886E1,-1.591257155E-1,-4.367557913E-2,-9.162709117E-3
2.166773032E1,-1.498102844E-1,-6.169557199E-2,-2.901524538E-3
2.167688173E1,-1.423274130E-1,-7.437065244E-2,5.650337320E-3
2.168603318E1,-1.404948682E-1,-6.887302548E-2,1.175880991E-2
2.169518464E1,-1.528645307E-1,-5.680879578E-2,1.221694518E-2
2.170433605E1,-1.727170646E-1,-4.963133857E-2,1.084253844E-2
2.171348751E1,-2.005106062E-1,-5.161659420E-2,8.246437646E-3
2.172263896E1,-2.269297540E-1,-6.184828654E-2,3.817795310E-3
2.173179037E1,-2.548760176E-1,-8.842013776E-2,-9.162709117E-3
2.174094183E1,-2.712161839E-1,-1.240019947E-1,-1.908897609E-2
2.175009329E1,-2.788517773E-1,-1.566823274E-1,-2.458660305E-2
2.175924475E1,-2.773246467E-1,-1.831014603E-1,-2.641914412E-2
2.176839615E1,-2.680092454E-1,-1.994416267E-1,-2.199050039E-2
2.177754761E1,-2.551814318E-1,-1.951656938E-1,-1.404948719E-2
2.178669907E1,-2.411319613E-1,-1.788255423E-1,-6.566607859E-3
2.179585048E1,-2.321219593E-1,-1.612636745E-1,-3.512371797E-3
2.180500193E1,-2.309002578E-1,-1.583621502E-1,1.527118147E-4
2.181415339E1,-2.307475507E-1,-1.739387512E-1,-4.123218823E-3
2.182330480E1,-2.231119573E-1,-1.944021434E-1,-1.374406368E-2
2.183245626E1,-2.002051920E-1,-1.998997629E-1,-2.641914412E-2
2.184160772E1,-1.666085869E-1,-1.733279079E-1,-3.237490356E-2
2.185075912E1,-1.336228400E-1,-1.316375881E-1,-2.657185495E-2
2.185991058E1,-1.123958975E-1,-9.788827598E-2,-1.359135192E-2
2.186906204E1,-1.064401343E-1,-7.253811508E-2,-2.596100792E-3
2.187821344E1,-1.152974218E-1,-5.741964281E-2,3.359660041E-3
2.188736490E1,-1.351499557E-1,-4.840964451E-2,3.817795310E-3
2.189651636E1,-1.566823274E-1,-4.184303805E-2,4.275931045E-3
2.190566777E1,-1.740914732E-1,-3.771981969E-2,7.177455351E-3
2.191481923E1,-1.840177327E-1,-3.894151375E-2,1.267508045E-2
2.192397068E1,-1.827960461E-1,-3.771981969E-2,1.695101149E-2
2.193312214E1,-1.698155403E-1,-3.527642787E-2,1.756185852E-2
2.194227355E1,-1.531699449E-1,-3.344388679E-2,1.832541823E-2
2.195142501E1,-1.389677525E-1,-3.390202299E-2,1.725643501E-2
2.196057647E1,-1.304158866E-1,-3.390202299E-2,1.420219894E-2
2.196972787E1,-1.272089481E-1,-3.878879920E-2,1.007897966E-2
2.197887933E1,-1.201841980E-1,-5.497625470E-2,3.359660041E-3
2.198803079E1,-1.003316641E-1,-6.230641901E-2,-8.093725890E-3
2.199718220E1,-6.887302548E-2,-6.704048812E-2,-1.710372418E-2
2.200633365E1,-3.741439432E-2,-7.314895838E-2,-2.107422985E-2
2.201548511E1,-2.336490713E-2,-6.887302548E-2,-1.542389300E-2
2.202463652E1,-3.206948191E-2,-4.703523964E-2,-6.413896102E-3
2.203378798E1,-5.146388337E-2,-2.229592577E-2,5.039489828E-3
2.204293943E1,-7.635590434E-2,-7.941014133E-3,1.145338640E-2
2.205209084E1,-1.015533581E-1,-4.428642802E-3,1.313321572E-2
2.206124230E1,-1.236965731E-1,-1.160609815E-2,1.175880991E-2
2.207039376E1,-1.415638477E-1,-1.954711229E-2,1.114796288E-2
2.207954522E1,-1.440072358E-1,-2.367033064E-2,1.175880991E-2
2.208869662E1,-1.365243644E-1,-2.611372061E-2,9.315420873E-3
2.209784808E1,-1.168245375E-1,-2.611372061E-2,8.857285604E-3
2.210699954E1,-9.712471068E-2,-2.183778957E-2,9.009997360E-3
2.211615094E1,-7.864658535E-2,-2.305948362E-2,6.719320081E-3
2.212530240E1,-6.306997687E-2,-3.558185324E-2,-1.221694518E-3
2.213445386E1,-4.367557913E-2,-5.680879578E-2,-1.023169141E-2
2.214360527E1,-2.076880634E-2,-7.421794534E-2,-1.786728203E-2
2.215275673E1,-1.527118147E-3,-8.383878320E-2,-1.649287529E-2
2.216190818E1,7.024743594E-3,-7.895200700E-2,-1.282779220E-2
2.217105959E1,5.497625098E-3,-5.360184610E-2,-7.330167107E-3
2.218021105E1,-4.123218823E-3,-2.107422985E-2,-1.527118147E-4
2.218936251E1,-1.603474095E-2,1.328592747E-2,8.246437646E-3
2.219851391E1,-2.183778957E-2,4.031591862E-2,1.435491070E-2
2.220766537E1,-1.954711229E-2,5.848862603E-2,1.435491070E-2
2.221681683E1,-4.123218823E-3,5.543438718E-2,8.399149403E-3
2.222596824E1,1.145338640E-2,3.863608837E-2,6.108472589E-4
2.223511970E1,2.275406010E-2,1.634016447E-2,-4.886778072E-3
2.224427115E1,2.596100792E-2,-3.054236295E-3,-5.344913341E-3
2.225342256E1,2.550287358E-2,-2.290677279E-2,-4.581354442E-4
2.226257402E1,2.565558441E-2,-3.130592033E-2,4.428642802E-3
2.227172548E1,2.367033064E-2,-2.886253223E-2,6.872031838E-3
2.228087688E1,2.244863659E-2,-1.740914769E-2,6.108472589E-3
2.229002834E1,2.168507688E-2,-5.497625098E-3,1.832541777E-3
2.229917980E1,1.603474095E-2,2.443389036E-3,-0.000000000E0
2.230833126E1,7.941014133E-3,1.206423342E-2,-0.000000000E0
2.231748266E1,-2.596100792E-3,1.863084175E-2,1.068982761E-3
2.232663412E1,-1.786728203E-2,8.399149403E-3,3.970507067E-3
2.233578558E1,-3.191677108E-2,-1.145338640E-2,7.635590620E-3
2.234493699E1,-4.275930673E-2,-3.436015919E-2,1.053711493E-2
2.235408845E1,-5.070032179E-2,-5.314370990E-2,1.114796288E-2
2.236323990E1,-5.436540768E-2,-5.971032009E-2,7.482878864E-3
2.237239131E1,-4.947862774E-2,-5.070032179E-2,5.650337320E-3
2.238154277E1,-3.665083647E-2,-2.657185495E-2,3.359660041E-3
2.239069423E1,-2.336490713E-2,-6.108472589E-4,-9.162708884E-4
2.239984563E1,-1.801999472E-2,1.863084175E-2,-2.137965523E-3
2.240899709E1,-1.863084175E-2,2.046338283E-2,-2.748812549E-3
2.241814855E1,-2.657185495E-2,1.557660475E-2,-2.748812549E-3
2.242729996E1,-3.451287001E-2,1.007897966E-2,-5.192201585E-3
2.243645141E1,-3.695625812E-2,6.413896102E-3,-8.857285604E-3
2.244560287E1,-3.817795217E-2,5.344913341E-3,-7.024743594E-3
2.245475428E1,-3.817795217E-2,5.955760833E-3,-2.748812549E-3
2.246390574E1,-3.268032894E-2,2.901524538E-3,-9.162708884E-4
2.247305720E1,-2.443389036E-2,-1.206423342E-2,-2.748812549E-3
2.248220860E1,-1.007897966E-2,-2.901524492E-2,-6.261184346E-3
2.249136006E1,7.177455351E-3,-3.619270027E-2,-1.099525020E-2
2.250051152E1,2.504473738E-2,-2.779355086E-2,-1.634016447E-2
2.250966292E1,3.665083647E-2,-1.511846948E-2,-1.756185852E-2
2.251881438E1,4.031591862E-2,-4.886778072E-3,-2.061609551E-2
2.252796584E1,3.894151375E-2,3.512371797E-3,-1.878355257E-2
2.253711725E1,3.649812192E-2,-0.000000000E0,-1.572931744E-2
2.254626871E1,2.977880463E-2,-1.084253844E-2,-1.634016447E-2
2.255542016E1,1.939439960E-2,-2.122694254E-2,-1.771457121E-2
2.256457162E1,3.512371797E-3,-3.451287001E-2,-1.710372418E-2
2.257372303E1,-1.313321572E-2,-3.985778242E-2,-1.298050396E-2
2.258287449E1,-2.290677279E-2,-3.924693540E-2,-8.246437646E-3
2.259202595E1,-2.550287358E-2,-3.634541109E-2,-5.803049076E-3
2.260117735E1,-1.939439960E-2,-2.779355086E-2,-5.803049076E-3
2.261032881E1,-4.734066315E-3,-1.695101149E-2,-9.926267900E-3
2.261948022E1,8.857285604E-3,-1.038440317E-2,-1.404948719E-2
2.262863167E1,1.252236869E-2,-1.328592747E-2,-1.771457121E-2
2.263778313E1,1.267508045E-2,-1.695101149E-2,-2.137965336E-2
2.264693454E1,1.328592747E-2,-2.244863659E-2,-2.687728032E-2
2.265608600E1,1.267508045E-2,-2.061609551E-2,-2.809897438E-2
2.266523746E1,1.068982668E-2,-1.527118124E-2,-2.137965336E-2
2.267438891E1,2.748812549E-3,-7.330167107E-3,-1.542389300E-2
2.268354032E1,-7.330167107E-3,-7.635590737E-4,-9.926267900E-3
2.269269178E1,-1.832541823E-2,-3.206948051E-3,-8.857285604E-3
2.270184324E1,-2.519745007E-2,-4.428642802E-3,-8.246437646E-3
2.271099464E1,-2.458660305E-2,-4.428642802E-3,-8.857285604E-3
2.272014610E1,-1.771457121E-2,4.581354442E-4,-1.130067464E-2
2.272929756E1,-8.551862091E-3,1.068982761E-3,-1.542389300E-2
2.273844896E1,3.817795310E-3,-1.985253533E-3,-1.908897609E-2
2.274760042E1,1.313321572E-2,-5.497625098E-3,-2.321219631E-2
2.275675188E1,2.290677279E-2,-1.374406274E-3,-2.443389036E-2
2.276590329E1,2.367033064E-2,-6.108472589E-3,-2.260134928E-2
2.277505475E1,1.756185852E-2,-1.572931744E-2,-2.137965336E-2
2.278420620E1,7.788302377E-3,-2.779355086E-2,-2.321219631E-2
2.279335761E1,-1.374406274E-3,-3.145863488E-2,-2.397575416E-2
2.280250907E1,-8.246437646E-3,-3.084778599E-2,-2.092151903E-2
2.281166053E1,-9.468132630E-3,-2.901524492E-2,-1.786728203E-2
2.282081193E1,-7.635590620E-3,-2.489202656E-2,-1.725643501E-2
2.282996339E1,-5.803049076E-3,-2.061609551E-2,-1.725643501E-2
2.283911485E1,-2.901524538E-3,-1.099525020E-2,-1.725643501E-2
2.284826626E1,1.527118147E-4,2.290677279E-3,-1.847812906E-2
2.285741772E1,1.832541777E-3,1.130067464E-2,-1.603474095E-2
2.286656917E1,7.330167107E-3,1.313321572E-2,-1.404948719E-2
2.287572058E1,1.236965694E-2,6.566607859E-3,-1.527118124E-2
2.288487204E1,1.252236869E-2,-6.108472589E-4,-1.649287529E-2
2.289402350E1,8.857285604E-3,-7.330167107E-3,-1.893626526E-2
2.290317496E1,6.413896102E-3,-1.221694518E-2,-1.954711229E-2
2.291232636E1,3.359660041E-3,-1.221694518E-2,-1.710372418E-2
2.292147782E1,1.985253533E-3,-7.330167107E-3,-1.542389300E-2
2.293062923E1,4.428642802E-3,4.581354442E-4,-1.099525020E-2
2.293978068E1,4.275931045E-3,1.374406368E-2,-8.551862091E-3
2.294893214E1,6.108472589E-3,2.107422985E-2,-8.551862091E-3
2.295808355E1,1.160609815E-2,2.519745007E-2,-1.099525020E-2
2.296723501E1,1.710372418E-2,2.886253223E-2,-1.221694518E-2
2.297638646E1,2.092151903E-2,2.580829710E-2,-1.466033421E-2
2.298553787E1,2.214321308E-2,1.863084175E-2,-1.771457121E-2
2.299468933E1,2.351761982E-2,9.009997360E-3,-2.260134928E-2
2.300384079E1,2.351761982E-2,-1.527118147E-4,-2.382304333E-2
2.301299225E1,2.473931387E-2,4.734066315E-3,-2.183778957E-2
2.302214365E1,2.397575416E-2,1.618745178E-2,-1.832541823E-2
2.303129511E1,2.336490713E-2,2.825168520E-2,-1.221694518E-2
2.304044657E1,2.015795931E-2,3.558185324E-2,-6.719320081E-3
2.304959798E1,1.267508045E-2,4.092676565E-2,-6.108472589E-3
2.305874943E1,2.748812549E-3,4.092676565E-2,-6.261184346E-3
2.306790084E1,-5.192201585E-3,3.298575059E-2,-8.704573847E-3
2.307705230E1,-7.482878864E-3,2.275406010E-2,-1.114796288E-2
2.308620376E1,-2.443389036E-3,1.435491070E-2,-1.542389300E-2
2.309535516E1,6.872031838E-3,1.191152167E-2,-1.710372418E-2
2.310450662E1,1.725643501E-2,1.679829881E-2,-1.527118124E-2
2.311365808E1,2.214321308E-2,2.397575416E-2,-1.221694518E-2
2.312280949E1,2.199050039E-2,3.130592033E-2,-9.773556143E-3
2.313196095E1,2.565558441E-2,3.436015919E-2,-5.497625098E-3
2.314111240E1,3.420744836E-2,3.787253052E-2,-3.512371797E-3
2.315026381E1,4.413371533E-2,3.619270027E-2,-3.512371797E-3
2.315941527E1,4.840964451E-2,3.313846514E-2,-5.344913341E-3
2.316856673E1,4.718795046E-2,3.802524135E-2,-8.399149403E-3
2.317771813E1,4.352286831E-2,4.886778072E-2,-7.177455351E-3
2.318686959E1,3.649812192E-2,5.971032009E-2,-2.901524538E-3
2.319602105E1,3.145863488E-2,6.872031838E-2,-1.221694518E-3
2.320517251E1,2.535016090E-2,6.505523622E-2,-1.832541777E-3
2.321432391E1,2.412846684E-2,6.016845629E-2,-6.108472589E-4
2.322347537E1,2.855710872E-2,5.421269313E-2,-6.108472589E-4
2.323262678E1,2.993151546E-2,4.703523964E-2,0.000000000E0
2.324177824E1,3.298575059E-2,3.970507160E-2,-1.679830020E-3
2.325092970E1,3.252761811E-2,3.130592033E-2,-2.901524538E-3
2.326008110E1,3.191677108E-2,2.168507688E-2,-2.901524538E-3
2.326923256E1,3.130592033E-2,1.740914769E-2,-4.734066315E-3
2.327838402E1,2.580829710E-2,1.328592747E-2,-3.665083554E-3
2.328753542E1,2.031067200E-2,1.023169141E-2,-4.275931045E-3
2.329668688E1,1.420219894E-2,2.443389036E-3,-5.497625098E-3
2.330583834E1,4.428642802E-3,-7.330167107E-3,-5.497625098E-3
2.331498975E1,-4.123218823E-3,-1.511846948E-2,-3.206948051E-3
2.332414120E1,-1.267508045E-2,-1.511846948E-2,-1.527118147E-4
2.333329266E1,-1.649287529E-2,-1.038440317E-2,1.068982761E-3
2.334244407E1,-1.649287529E-2,-1.206423342E-2,1.068982761E-3
2.335159553E1,-1.389677543E-2,-1.756185852E-2,4.581354442E-4
2.336074699E1,-1.023169141E-2,-1.695101149E-2,4.581354442E-4
2.336989839E1,-1.084253844E-2,-1.695101149E-2,-1.527118147E-4
2.337904985E1,-9.620844387E-3,-1.695101149E-2,-7.635590737E-4
2.338820131E1,-1.160609815E-2,-1.023169141E-2,4.581354442E-4
2.339735272E1,-1.588202827E-2,-2.443389036E-3,4.581354442E-4
2.340650417E1,-2.092151903E-2,6.566607859E-3,2.137965523E-3
2.341565563E1,-2.290677279E-2,1.435491070E-2,2.748812549E-3
2.342480704E1,-2.168507688E-2,1.557660475E-2,3.970507067E-3
2.343395850E1,-2.168507688E-2,1.252236869E-2,2.748812549E-3
2.344310996E1,-1.985253580E-2,1.313321572E-2,2.748812549E-3
2.345226136E1,-1.542389300E-2,1.313321572E-2,4.734066315E-3
2.346141282E1,-1.221694518E-2,3.054236295E-3,2.901524538E-3
2.347056428E1,-1.267508045E-2,-1.756185852E-2,4.581354442E-4
2.347971568E1,-1.236965694E-2,-4.398100078E-2,-2.596100792E-3
2.348886714E1,-1.114796288E-2,-5.558710173E-2,-5.650337320E-3
2.349801860E1,-7.482878864E-3,-4.947862774E-2,-6.261184346E-3
2.350717001E1,-2.596100792E-3,-3.497100621E-2,-6.261184346E-3
2.351632146E1,-1.679830020E-3,-1.572931744E-2,-4.428642802E-3
2.352547292E1,-1.679830020E-3,-6.719320081E-3,-1.374406274E-3