"Time (s)","Gyroscope x (rad/s)","Gyroscope y (rad/s)","Gyroscope z (rad/s)"
1.129322696E1,-2.000524849E-2,-3.283303976E-2,-7.330167107E-3
1.130237826E1,-2.489202656E-2,-2.611372061E-2,-7.941014133E-3
1.131152956E1,-3.054236248E-2,-1.588202827E-2,-7.482878864E-3
1.132068092E1,-3.191677108E-2,-1.175880991E-2,-9.315420873E-3
1.132983222E1,-3.069507517E-2,-1.053711493E-2,-1.114796288E-2
1.133898357E1,-2.504473738E-2,-1.236965694E-2,-1.160609815E-2
1.134813488E1,-2.076880634E-2,-1.359135192E-2,-9.773556143E-3
1.135728623E1,-1.878355257E-2,-2.015795931E-2,-9.773556143E-3
1.136643753E1,-2.000524849E-2,-2.443389036E-2,-8.551862091E-3
1.137558889E1,-1.756185852E-2,-2.550287358E-2,-7.330167107E-3
1.138474019E1,-1.878355257E-2,-1.832541823E-2,-5.497625098E-3
1.139389154E1,-1.588202827E-2,4.581354442E-4,-4.886778072E-3
1.140304284E1,-1.175880991E-2,1.420219894E-2,-3.665083554E-3
1.141219415E1,-7.635590620E-3,2.748812735E-2,-2.443389036E-3
1.142134550E1,-4.581354558E-3,3.237490356E-2,-4.886778072E-3
1.143049680E1,-3.206948051E-3,3.054236248E-2,-9.162709117E-3
1.143964816E1,-1.374406274E-3,2.214321308E-2,-9.620844387E-3
1.144879946E1,-2.443389036E-3,9.468132630E-3,-7.177455351E-3
1.145795081E1,-3.054236295E-3,2.137965523E-3,-4.734066315E-3
1.146710212E1,-2.443389036E-3,5.803049076E-3,-4.581354442E-4
1.147625342E1,-3.206948051E-3,1.496575773E-2,1.221694518E-3
1.148540477E1,4.581354442E-4,3.237490356E-2,3.206948051E-3
1.149455607E1,8.857285604E-3,4.749337584E-2,5.039489828E-3
1.150370743E1,1.252236869E-2,4.978405312E-2,7.482878864E-3
1.151285873E1,7.024743594E-3,4.382828996E-2,6.872031838E-3
1.152201008E1,2.137965523E-3,3.665083647E-2,4.428642802E-3
1.153116139E1,-1.527118147E-4,2.565558441E-2,-2.290677279E-3
1.154031274E1,-3.206948051E-3,1.725643501E-2,-5.344913341E-3
1.154946404E1,-2.596100792E-3,1.786728203E-2,-7.177455351E-3
1.155861540E1,1.068982761E-3,2.504473738E-2,-2.901524538E-3
1.156776670E1,1.527118147E-3,3.481829539E-2,3.206948051E-3
1.157691805E1,1.527118147E-3,4.077405483E-2,9.315420873E-3
1.158606936E1,7.788302377E-3,3.481829539E-2,1.236965694E-2
1.159522066E1,9.009997360E-3,3.054236248E-2,1.298050396E-2
1.160437201E1,-2.137965523E-3,3.665083647E-2,9.315420873E-3
1.161352331E1,-1.145338640E-2,3.649812192E-2,3.054236295E-3
1.162267467E1,-1.695101149E-2,3.894151375E-2,-3.665083554E-3
1.163182597E1,-2.061609551E-2,4.367557913E-2,-7.941014133E-3
1.164097732E1,-2.321219631E-2,5.161659420E-2,-9.315420873E-3
1.165012862E1,-2.382304333E-2,4.795150831E-2,-5.650337320E-3
1.165927998E1,-2.428117767E-2,3.771981969E-2,-1.527118147E-4
1.166843128E1,-2.473931387E-2,2.397575416E-2,2.290677279E-3
1.167758258E1,-2.473931387E-2,9.468132630E-3,4.275931045E-3
1.168673394E1,-2.458660305E-2,3.970507067E-3,3.665083554E-3
1.169588524E1,-2.535016090E-2,1.007897966E-2,3.665083554E-3
1.170503659E1,-2.535016090E-2,1.298050396E-2,-1.527118147E-4
1.171418790E1,-2.229592577E-2,2.321219631E-2,-3.054236295E-3
1.172333925E1,-1.801999472E-2,2.993151546E-2,-6.108472589E-3
1.173249055E1,-1.496575773E-2,2.748812735E-2,-7.941014133E-3
1.174164191E1,-1.252236869E-2,2.565558441E-2,-9.162709117E-3
1.175079321E1,-1.007897966E-2,2.626643144E-2,-4.886778072E-3
1.175994456E1,-1.007897966E-2,2.260134928E-2,-1.832541777E-3
1.176909586E1,-1.374406368E-2,1.847812906E-2,1.832541777E-3
1.177824722E1,-1.557660475E-2,1.420219894E-2,5.497625098E-3
1.178739852E1,-1.801999472E-2,1.481304597E-2,5.497625098E-3
1.179654982E1,-2.168507688E-2,1.786728203E-2,6.108472589E-4
1.180570118E1,-2.412846684E-2,2.199050039E-2,-1.985253533E-3
1.181485248E1,-2.229592577E-2,2.199050039E-2,-2.443389036E-3
1.182400383E1,-2.336490713E-2,5.192201585E-3,-1.221694518E-3
1.183315514E1,-2.626643144E-2,-1.588202827E-2,-4.275931045E-3
1.184230649E1,-2.183778957E-2,-3.283303976E-2,-7.941014133E-3
1.185145779E1,-1.679829881E-2,-3.344388679E-2,-8.551862091E-3
1.186060915E1,-1.634016447E-2,-1.649287529E-2,-5.497625098E-3
1.186976045E1,-2.153236605E-2,9.162708884E-4,-2.443389036E-3
1.187891180E1,-2.718270384E-2,1.420219894E-2,-3.206948051E-3
1.188806310E1,-2.733541466E-2,2.687728032E-2,-3.206948051E-3
1.189721446E1,-2.428117767E-2,3.405473381E-2,-1.985253533E-3
1.190636576E1,-2.489202656E-2,2.626643144E-2,-7.635590737E-4
1.191551712E1,-3.069507517E-2,2.748812549E-3,-1.985253533E-3
1.192466842E1,-3.237490356E-2,-2.015795931E-2,-8.093725890E-3
1.193381972E1,-2.748812735E-2,-1.710372418E-2,-1.160609815E-2
1.194297107E1,-2.519745007E-2,3.359660041E-3,-1.160609815E-2
1.195212238E1,-2.535016090E-2,2.382304333E-2,-9.926267900E-3
1.196127373E1,-2.672456764E-2,4.138490185E-2,-7.482878864E-3
1.197042503E1,-2.993151546E-2,4.489727318E-2,-6.872031838E-3
1.197957639E1,-3.222219273E-2,3.344388679E-2,-5.650337320E-3
1.198872769E1,-3.268032894E-2,1.298050396E-2,-3.206948051E-3
1.199787904E1,-2.886253223E-2,-1.374406274E-3,-1.527118147E-4
1.200703034E1,-2.947338112E-2,-6.872031838E-3,1.679830020E-3
1.201618170E1,-2.260134928E-2,-9.926267900E-3,-2.443389036E-3
1.202533300E1,-9.773556143E-3,-5.039489828E-3,-4.275931045E-3
1.203448436E1,-1.832541777E-3,1.191152167E-2,-5.344913341E-3
1.204363566E1,-5.039489828E-3,2.993151546E-2,-6.719320081E-3
1.205278701E1,-1.130067464E-2,3.894151375E-2,-6.719320081E-3
1.206193831E1,-1.756185852E-2,3.710897267E-2,-7.330167107E-3
1.207108967E1,-2.168507688E-2,2.626643144E-2,-7.330167107E-3
1.208024097E1,-2.214321308E-2,8.246437646E-3,-8.551862091E-3
1.208939232E1,-2.199050039E-2,-7.482878864E-3,-1.038440317E-2
1.209854363E1,-2.504473738E-2,-8.093725890E-3,-1.099525020E-2
1.210769493E1,-2.641914412E-2,9.162708884E-4,-1.099525020E-2
1.211684628E1,-2.458660305E-2,3.970507067E-3,-1.160609815E-2
1.212599758E1,-1.725643501E-2,7.482878864E-3,-1.038440317E-2
1.213514894E1,-1.420219894E-2,8.093725890E-3,-1.038440317E-2
1.214430024E1,-1.282779220E-2,5.192201585E-3,-1.038440317E-2
1.215345159E1,-1.221694518E-2,-3.054236295E-4,-1.038440317E-2
1.216260290E1,-1.282779220E-2,-1.527118147E-3,-1.099525020E-2
1.217175425E1,-1.603474095E-2,5.803049076E-3,-9.773556143E-3
1.218090555E1,-1.298050396E-2,8.246437646E-3,-9.773556143E-3
1.219005691E1,-9.162709117E-3,3.970507067E-3,-1.038440317E-2
1.219920821E1,-4.275931045E-3,3.054236295E-4,-1.084253844E-2
1.220835956E1,3.206948051E-3,3.359660041E-3,-1.084253844E-2
1.221751087E1,6.719320081E-3,1.114796288E-2,-1.023169141E-2
1.222666222E1,1.160609815E-2,1.847812906E-2,-1.084253844E-2
1.223581352E1,1.588202827E-2,2.092151903E-2,-9.009997360E-3
1.224496482E1,1.588202827E-2,2.626643144E-2,-7.177455351E-3
1.225411618E1,1.023169141E-2,3.542914242E-2,-4.123218823E-3
1.226326748E1,9.162708884E-4,3.588727489E-2,-3.512371797E-3
1.227241883E1,-5.039489828E-3,2.687728032E-2,-6.108472589E-3
1.228157014E1,-6.719320081E-3,1.236965694E-2,-9.773556143E-3
1.229072149E1,-3.665083554E-3,5.803049076E-3,-1.267508045E-2
1.229987279E1,-6.108472589E-4,5.192201585E-3,-1.511846948E-2
1.230902415E1,4.275931045E-3,1.053711493E-2,-1.634016447E-2
1.231817545E1,4.275931045E-3,2.199050039E-2,-1.634016447E-2
1.232732680E1,4.734066315E-3,4.016320780E-2,-1.267508045E-2
1.233647811E1,5.803049076E-3,5.818320066E-2,-5.344913341E-3
1.234562946E1,3.817795310E-3,5.528167635E-2,1.374406274E-3
1.235478076E1,2.137965523E-3,3.787253052E-2,5.039489828E-3
1.236393212E1,1.832541777E-3,1.557660475E-2,3.206948051E-3
1.237308342E1,1.221694518E-3,1.130067464E-2,1.985253533E-3
1.238223477E1,-1.527118147E-4,1.847812906E-2,-2.901524538E-3
1.239138607E1,-1.527118147E-4,3.054236248E-2,-1.023169141E-2
1.240053743E1,3.054236295E-4,4.672981426E-2,-1.328592747E-2
1.240968873E1,5.803049076E-3,6.306997687E-2,-1.389677543E-2
1.241884008E1,1.053711493E-2,7.391251624E-2,-9.620844387E-3
1.242799139E1,1.236965694E-2,7.330167294E-2,-4.734066315E-3
1.243714269E1,1.236965694E-2,6.551336497E-2,1.985253533E-3
1.244629404E1,1.130067464E-2,5.115845799E-2,6.261184346E-3
1.245544534E1,9.620844387E-3,3.787253052E-2,5.650337320E-3
1.246459670E1,1.023169141E-2,3.481829539E-2,1.374406274E-3
1.247374800E1,1.511846948E-2,3.542914242E-2,-1.679830020E-3
1.248289936E1,1.817270555E-2,4.016320780E-2,-5.955760833E-3
1.249205066E1,2.244863659E-2,4.688252881E-2,-8.857285604E-3
1.250120201E1,2.305948362E-2,5.222744122E-2,-8.246437646E-3
1.251035331E1,2.244863659E-2,5.528167635E-2,-7.177455351E-3
1.251950467E1,1.939439960E-2,4.321744293E-2,-7.788302377E-3
1.252865597E1,1.160609815E-2,2.275406010E-2,-1.023169141E-2
1.253780732E1,8.093725890E-3,3.359660041E-3,-1.267508045E-2
1.254695862E1,9.468132630E-3,-7.482878864E-3,-1.572931744E-2
1.255610998E1,1.252236869E-2,-3.206948051E-3,-1.389677543E-2
1.256526128E1,1.298050396E-2,1.603474095E-2,-1.695101149E-2
1.257441264E1,1.160609815E-2,3.466558084E-2,-1.817270555E-2
1.258356394E1,1.511846948E-2,4.306473210E-2,-1.817270555E-2
1.259271529E1,2.076880634E-2,4.138490185E-2,-1.557660475E-2
1.260186659E1,3.084778599E-2,2.153236605E-2,-1.191152167E-2
1.261101795E1,3.466558084E-2,-7.941014133E-3,-8.857285604E-3
1.262016925E1,3.619270027E-2,-3.268032894E-2,-4.428642802E-3
1.262932060E1,3.374931216E-2,-3.878879920E-2,3.054236295E-4
1.263847191E1,2.565558441E-2,-2.657185495E-2,4.581354558E-3
1.264762326E1,1.252236869E-2,-6.719320081E-3,8.093725890E-3
1.265677456E1,1.221694518E-3,1.191152167E-2,9.926267900E-3
1.266592592E1,-9.468132630E-3,2.580829710E-2,9.162709117E-3
1.267507722E1,-1.557660475E-2,1.908897609E-2,4.886778072E-3
1.268422857E1,-1.832541823E-2,-3.817795310E-3,-3.054236295E-3
1.269337988E1,-2.428117767E-2,-2.489202656E-2,-6.719320081E-3
1.270253123E1,-3.161134571E-2,-4.245388508E-2,-9.315420873E-3
1.271168253E1,-3.344388679E-2,-3.939964995E-2,-1.114796288E-2
1.272083389E1,-3.237490356E-2,-2.443389036E-2,-8.093725890E-3
1.272998519E1,-2.702999115E-2,-5.039489828E-3,-6.261184346E-3
1.273913654E1,-2.214321308E-2,7.024743594E-3,-1.832541777E-3
1.274828784E1,-1.786728203E-2,8.246437646E-3,0.000000000E0
1.275743920E1,-1.588202827E-2,-1.374406274E-3,-1.832541777E-3
1.276659050E1,-1.527118124E-2,-6.872031838E-3,-9.773556143E-3
1.277574186E1,-1.466033421E-2,-6.261184346E-3,-1.710372418E-2
1.278489316E1,-1.527118124E-2,-3.359660041E-3,-2.260134928E-2
1.279404451E1,-1.893626526E-2,5.039489828E-3,-2.321219631E-2
1.280319581E1,-2.153236605E-2,1.542389300E-2,-2.199050039E-2
1.281234717E1,-1.985253580E-2,2.321219631E-2,-1.832541823E-2
1.282149847E1,-1.557660475E-2,2.870982140E-2,-1.099525020E-2
1.283064982E1,-1.557660475E-2,2.870982140E-2,-1.832541777E-3
1.283980113E1,-1.313321572E-2,3.176405653E-2,4.275931045E-3
1.284895248E1,-1.191152167E-2,2.748812735E-2,7.330167107E-3
1.285810378E1,-9.315420873E-3,1.847812906E-2,6.719320081E-3
1.286725514E1,-6.108472589E-3,7.635590620E-3,4.886778072E-3
1.287640644E1,-6.108472589E-3,1.679830020E-3,3.054236295E-3
1.288555779E1,-7.941014133E-3,-1.374406274E-3,1.221694518E-3
1.289470909E1,-1.099525020E-2,1.527118147E-3,1.221694518E-3
1.290386045E1,-1.298050396E-2,8.246437646E-3,1.832541777E-3
1.291301175E1,-1.298050396E-2,1.298050396E-2,1.221694518E-3
1.292216311E1,-1.420219894E-2,1.420219894E-2,1.221694518E-3
1.293131441E1,-1.603474095E-2,6.413896102E-3,0.000000000E0
1.294046576E1,-1.725643501E-2,3.054236295E-4,-1.832541777E-3
1.294961706E1,-2.031067200E-2,3.970507067E-3,-2.443389036E-3
1.295876842E1,-2.275406010E-2,1.053711493E-2,-4.275931045E-3
1.296791972E1,-2.168507688E-2,1.725643501E-2,-7.941014133E-3
1.297707107E1,-1.908897609E-2,1.664558798E-2,-1.038440317E-2
1.298622238E1,-1.298050396E-2,1.603474095E-2,-1.282779220E-2
1.299537373E1,-8.704573847E-3,1.175880991E-2,-1.221694518E-2
1.300452503E1,-1.053711493E-2,1.053711493E-2,-1.282779220E-2
1.301367639E1,-1.298050396E-2,1.053711493E-2,-1.160609815E-2
1.302282769E1,-1.038440317E-2,8.704573847E-3,-1.343864016E-2
1.303197904E1,1.832541777E-3,1.542389300E-2,-1.389677543E-2
1.304113034E1,1.404948719E-2,2.993151546E-2,-1.450762246E-2
1.305028170E1,2.199050039E-2,3.955236077E-2,-1.313321572E-2
1.305943300E1,2.748812735E-2,4.077405483E-2,-1.435491070E-2
1.306858436E1,2.947338112E-2,3.298575059E-2,-1.435491070E-2
1.307773566E1,2.825168520E-2,2.214321308E-2,-1.496575773E-2
1.308688701E1,2.825168520E-2,1.786728203E-2,-1.313321572E-2
1.309603831E1,2.275406010E-2,1.969982497E-2,-7.635590620E-3
1.310518967E1,1.282779220E-2,2.336490713E-2,1.527118147E-4
1.311434097E1,7.330167107E-3,1.557660475E-2,4.428642802E-3
1.312349232E1,1.114796288E-2,4.123218823E-3,4.428642802E-3
1.313264362E1,1.679829881E-2,-4.428642802E-3,3.359660041E-3
1.314179498E1,2.412846684E-2,-8.551862091E-3,-9.162708884E-4
1.315094628E1,2.977880463E-2,-1.160609815E-2,-3.970507067E-3
1.316009764E1,3.100049868E-2,-1.832541823E-2,-6.413896102E-3
1.316924894E1,2.916795574E-2,-2.305948362E-2,-4.581354558E-3
1.317840029E1,2.626643144E-2,-2.962609194E-2,2.137965523E-3
1.318755165E1,1.939439960E-2,-2.962609194E-2,1.007897966E-2
1.319670295E1,1.450762246E-2,-3.390202299E-2,1.252236869E-2
1.320585425E1,9.468132630E-3,-3.084778599E-2,8.704573847E-3
1.321500560E1,9.162708884E-4,-3.038965166E-2,3.817795310E-3
1.322415696E1,-8.857285604E-3,-2.916795574E-2,-3.512371797E-3
1.323330826E1,-1.572931744E-2,-2.305948362E-2,-7.330167107E-3
1.324245962E1,-1.893626526E-2,-5.650337320E-3,-9.162709117E-3
1.325161092E1,-2.153236605E-2,1.664558798E-2,-1.160609815E-2
1.326076227E1,-2.351761982E-2,2.993151546E-2,-1.221694518E-2
1.326991357E1,-2.794626169E-2,3.283303976E-2,-1.236965694E-2
1.327906493E1,-2.718270384E-2,2.382304333E-2,-1.298050396E-2
1.328821623E1,-2.397575416E-2,5.803049076E-3,-1.160609815E-2
1.329736758E1,-1.954711229E-2,-1.053711493E-2,-1.160609815E-2
1.330651889E1,-2.015795931E-2,-1.298050396E-2,-1.099525020E-2
1.331567024E1,-2.199050039E-2,-6.872031838E-3,-9.162709117E-3
1.332482154E1,-1.771457121E-2,-5.650337320E-3,-6.719320081E-3
1.333397290E1,-9.162709117E-3,-7.482878864E-3,-4.886778072E-3
1.334312420E1,-3.512371797E-3,-6.261184346E-3,-2.290677279E-3
1.335227555E1,-4.275931045E-3,-2.596100792E-3,7.635590737E-4
1.336142691E1,-4.734066315E-3,-8.093725890E-3,7.635590737E-4
1.337057821E1,-3.359660041E-3,-2.244863659E-2,-2.901524538E-3
1.337972956E1,-3.970507067E-3,-2.977880463E-2,-9.009997360E-3
1.338888086E1,-9.620844387E-3,-1.771457121E-2,-1.160609815E-2
1.339803222E1,-1.343864016E-2,4.581354558E-3,-1.282779220E-2
1.340718352E1,-7.482878864E-3,3.237490356E-2,-1.527118124E-2
1.341633488E1,-3.054236295E-4,4.611896724E-2,-1.328592747E-2
1.342548618E1,6.413896102E-3,4.672981426E-2,-1.267508045E-2
1.343463753E1,9.162709117E-3,3.115320951E-2,-1.206423342E-2
1.344378883E1,6.872031838E-3,8.246437646E-3,-1.328592747E-2
1.345294019E1,7.024743594E-3,-1.588202827E-2,-1.511846948E-2
1.346209149E1,5.955760833E-3,-2.733541466E-2,-1.695101149E-2
1.347124284E1,-3.359660041E-3,-2.199050039E-2,-2.000524849E-2
1.348039415E1,-1.099525020E-2,3.359660041E-3,-1.710372418E-2
1.348954550E1,-1.298050396E-2,2.870982140E-2,-1.221694518E-2
1.349869680E1,-1.389677543E-2,4.428642616E-2,-7.941014133E-3
1.350784816E1,-1.267508045E-2,4.321744293E-2,-3.665083554E-3
1.351699946E1,-8.857285604E-3,2.870982140E-2,-1.221694518E-3
1.352615081E1,-6.719320081E-3,5.192201585E-3,-1.221694518E-3
1.353530217E1,-4.123218823E-3,-1.038440317E-2,-1.679830020E-3
1.354445347E1,-3.512371797E-3,-1.649287529E-2,-2.901524538E-3
1.355360482E1,-5.955760833E-3,-6.719320081E-3,-1.221694518E-3
1.356275613E1,-1.175880991E-2,1.435491070E-2,1.832541777E-3
1.357190748E1,-1.435491070E-2,3.054236248E-2,3.054236295E-3
1.358105878E1,-1.007897966E-2,3.115320951E-2,3.054236295E-3
1.359021014E1,-1.374406274E-3,2.214321308E-2,3.817795310E-3
1.359936144E1,-1.527118147E-4,1.542389300E-2,5.039489828E-3
1.360851279E1,0.000000000E0,2.901524538E-3,3.206948051E-3
1.361766409E1,1.527118147E-4,-3.206948051E-3,-1.679830020E-3
1.362681545E1,3.817795310E-3,-1.374406274E-3,-7.788302377E-3
1.363596675E1,9.926267900E-3,7.024743594E-3,-1.267508045E-2
1.364511811E1,1.038440317E-2,1.847812906E-2,-2.122694254E-2
1.365426941E1,8.551862091E-3,2.932066843E-2,-2.977880463E-2
1.366342076E1,9.773556143E-3,2.916795574E-2,-3.771981969E-2
1.367257212E1,1.618745178E-2,1.175880991E-2,-4.428642616E-2
1.368172342E1,2.305948362E-2,-5.803049076E-3,-4.428642616E-2
1.369087477E1,2.443389036E-2,-1.664558798E-2,-4.184303805E-2
1.370002607E1,2.825168520E-2,-2.565558441E-2,-4.428642616E-2
1.370917743E1,2.764083818E-2,-2.993151546E-2,-4.734066129E-2
1.371832873E1,2.397575416E-2,-3.115320951E-2,-4.978405312E-2
1.372748008E1,2.214321308E-2,-3.466558084E-2,-4.917320609E-2
1.373663139E1,2.473931387E-2,-4.734066129E-2,-4.672981426E-2
1.374578274E1,3.848337755E-2,-6.719319522E-2,-4.474456236E-2
1.375493404E1,5.589252338E-2,-8.276980370E-2,-4.092676565E-2
1.376408540E1,7.314895838E-2,-8.826743066E-2,-3.405473381E-2
1.377323675E1,8.353336155E-2,-8.643488586E-2,-2.733541466E-2
1.378238805E1,8.964183182E-2,-8.383878320E-2,-2.733541466E-2
1.379153941E1,8.842013776E-2,-7.727217674E-2,-3.466558084E-2
1.380069071E1,8.093725890E-2,-6.047387794E-2,-4.566083103E-2
1.380984206E1,7.040014863E-2,-4.245388508E-2,-6.291726977E-2
1.381899336E1,6.169557199E-2,-2.809897438E-2,-8.185353130E-2
1.382814472E1,5.986303091E-2,-2.641914412E-2,-9.468132257E-2
1.383729602E1,5.436540768E-2,-3.176405653E-2,-9.834641218E-2
1.384644738E1,3.665083647E-2,-4.749337584E-2,-9.666658193E-2
1.385559868E1,2.015795931E-2,-7.223268598E-2,-9.009996802E-2
1.386475003E1,1.160609815E-2,-7.818844914E-2,-7.727217674E-2
1.387390139E1,9.009997360E-3,-7.207997888E-2,-5.894676223E-2
1.388305269E1,1.313321572E-2,-5.940489471E-2,-4.184303805E-2
1.389220404E1,2.153236605E-2,-4.840964451E-2,-2.840439789E-2
1.390135534E1,3.329117596E-2,-5.085303262E-2,-2.397575416E-2
1.391050670E1,5.253286287E-2,-6.704048812E-2,-3.237490356E-2
1.391965800E1,7.864658535E-2,-7.253811508E-2,-4.871506989E-2
1.392880936E1,1.064401343E-1,-7.085828483E-2,-6.627693027E-2
1.393796071E1,1.290414780E-1,-4.611896724E-2,-7.406523079E-2
1.394711201E1,1.253764033E-1,1.725643501E-2,-6.734590977E-2
1.395626337E1,8.689302206E-2,1.142284349E-1,-5.604523420E-2
1.396541467E1,3.619270027E-2,1.858502775E-1,-4.856235534E-2
1.397456602E1,-1.374406274E-3,1.821851879E-1,-4.703523964E-2
1.398371732E1,-3.649812192E-2,1.189625040E-1,-4.840964451E-2
1.399286868E1,-8.017370105E-2,4.581354558E-2,-5.360184610E-2
1.400201998E1,-1.186570823E-1,1.145338640E-2,-6.536065787E-2
1.401117133E1,-1.456870735E-1,8.857285604E-3,-8.032641560E-2
1.402032269E1,-1.525591016E-1,1.969982497E-2,-9.437590092E-2
1.402947399E1,-1.447708011E-1,3.894151375E-2,-1.023169160E-1
1.403862534E1,-1.256818175E-1,5.696150661E-2,-1.039967462E-1
1.404777665E1,-1.078145429E-1,5.467082933E-2,-9.956810623E-2
1.405692800E1,-9.239064902E-2,4.337015375E-2,-8.658760041E-2
1.406607930E1,-7.207997888E-2,3.497100621E-2,-6.810946763E-2
1.407523066E1,-4.932591692E-2,2.855710872E-2,-4.963133857E-2
1.408438196E1,-2.275406010E-2,1.954711229E-2,-3.298575059E-2
1.409353331E1,9.926267900E-3,1.664558798E-2,-1.572931744E-2
1.410268467E1,3.848337755E-2,4.504998401E-2,-3.970507067E-3
1.411183597E1,5.207473040E-2,1.023169160E-1,5.955760833E-3
1.412098732E1,5.711421743E-2,1.663031727E-1,1.023169141E-2
1.413013862E1,5.192201585E-2,2.000524700E-1,4.581354558E-3
1.413928998E1,4.214845970E-2,1.902789176E-1,-8.246437646E-3
1.414844133E1,3.329117596E-2,1.588202864E-1,-2.412846684E-2
1.415759264E1,2.993151546E-2,1.232384369E-1,-3.756710514E-2
1.416674399E1,2.107422985E-2,8.948912472E-2,-4.504998401E-2
1.417589529E1,1.130067464E-2,7.620319724E-2,-4.688252881E-2
1.418504665E1,1.252236869E-2,7.253811508E-2,-4.199574888E-2
1.419419795E1,2.183778957E-2,6.536065787E-2,-3.573456407E-2
1.420334930E1,3.359659761E-2,5.161659420E-2,-2.779355086E-2
1.421250060E1,4.306473210E-2,3.298575059E-2,-2.580829710E-2
1.422165196E1,5.375456065E-2,1.786728203E-2,-2.886253223E-2
1.423080331E1,6.429167092E-2,7.024743594E-3,-3.176405653E-2
1.423995462E1,6.749862432E-2,-5.039489828E-3,-3.359659761E-2
1.424910597E1,6.872031838E-2,-1.710372418E-2,-3.298575059E-2
1.425825727E1,7.879929990E-2,-3.145863488E-2,-3.222219273E-2
1.426740863E1,9.193251282E-2,-4.535540938E-2,-3.344388679E-2
1.427655998E1,1.075091213E-1,-7.070557028E-2,-3.206948191E-2
1.428571128E1,1.232384369E-1,-9.834641218E-2,-3.558185324E-2
1.429486264E1,1.343863904E-1,-1.134648770E-1,-4.214845970E-2
1.430401394E1,1.467560530E-1,-1.146865711E-1,-4.703523964E-2
1.431316529E1,1.763821393E-1,-1.151447073E-1,-4.734066129E-2
1.432231659E1,2.218902707E-1,-1.145338640E-1,-4.275930673E-2
1.433146795E1,2.779355049E-1,-1.131594554E-1,-4.001049697E-2
1.434061930E1,3.403946459E-1,-1.311794519E-1,-3.833066672E-2
1.434986217E1,4.091149569E-1,-1.713426560E-1,-3.283303976E-2
1.435892196E1,4.879142344E-1,-2.321219593E-1,-2.199050039E-2
1.436807326E1,5.810684562E-1,-3.126010895E-1,1.374406274E-3
1.437722462E1,7.029324770E-1,-3.881934285E-1,3.466558084E-2
1.438645404E1,8.518264890E-1,-4.498890042E-1,8.093725890E-2
1.439580081E1,1.065164924E0,-4.859289825E-1,1.575985998E-1
1.440512217E1,1.292094707E0,-4.804313779E-1,2.489202619E-1
1.441446946E1,1.483137131E0,-4.479037523E-1,3.388675153E-1
1.442380378E1,1.679524541E0,-3.804051280E-1,4.085040987E-1
1.443313811E1,1.882631302E0,-2.997733057E-1,4.320217371E-1
1.444247248E1,2.115516663E0,-2.090624720E-1,4.451549351E-1
1.445180680E1,2.326869965E0,-1.226275861E-1,4.190412164E-1
1.446114118E1,2.500503302E0,4.581354558E-3,3.439069986E-1
1.447047555E1,2.603583813E0,1.527118087E-1,2.846548259E-1
1.447980988E1,2.627559423E0,2.467822880E-1,2.732014358E-1
1.448913123E1,2.596406221E0,2.678565085E-1,2.918322682E-1
1.449847852E1,2.554257870E0,2.082989216E-1,3.153499067E-1
1.450781284E1,2.522493839E0,8.246438205E-2,3.610107303E-1
1.451713420E1,2.537612200E0,-1.108687744E-1,4.132381678E-1
1.452648149E1,2.612746477E0,-4.069769979E-1,4.695888162E-1
1.453581587E1,2.735832214E0,-7.524111271E-1,5.183038712E-1
1.454515019E1,2.853114843E0,-1.060278177E0,5.236487985E-1
1.455448456E1,2.909618139E0,-1.306754947E0,4.924955964E-1
1.456381889E1,2.925042152E0,-1.490009189E0,4.627167881E-1
1.457314024E1,2.913588762E0,-1.579956412E0,4.217900336E-1
1.458248758E1,2.885947943E0,-1.614163876E0,3.330644667E-1
1.459182186E1,2.860597610E0,-1.687007427E0,2.144073844E-1
1.460114321E1,2.840592384E0,-1.811620235E0,8.750387281E-2
1.461049050E1,2.800276518E0,-1.947686434E0,-1.343864016E-2
1.461973493E1,2.752172232E0,-1.988765955E0,-5.039490014E-2
1.462887352E1,2.680550575E0,-1.982199311E0,-2.168507688E-2
1.463803758E1,2.562656879E0,-1.996096134E0,1.542389300E-2
1.464718894E1,2.413151979E0,-2.028318405E0,1.924168877E-2
1.465632753E1,2.302588701E0,-2.061609507E0,2.596100792E-3
1.466549159E1,2.260440350E0,-2.011061907E0,-1.603474095E-2
1.467464295E1,2.260898352E0,-1.798487067E0,-2.535016090E-2
1.468379425E1,2.278613091E0,-1.486496806E0,-5.467082933E-2
1.469294560E1,2.232952118E0,-1.167939901E0,-1.072036922E-1
1.470209691E1,2.142852068E0,-8.651124239E-1,-1.415638477E-1
1.471124826E1,2.068328857E0,-5.873296261E-1,-1.461452097E-1
1.472039962E1,2.022820711E0,-3.884988427E-1,-1.342336833E-1
1.472955092E1,1.975021958E0,-2.976353168E-1,-1.285833418E-1
1.473870227E1,1.909508586E0,-2.790044844E-1,-1.388150454E-1
1.474785357E1,1.828571320E0,-3.239017725E-1,-1.437018216E-1
1.475700493E1,1.740914702E0,-3.781144619E-1,-1.485885978E-1
1.476615628E1,1.643790007E0,-4.019374847E-1,-1.632489264E-1
1.477530758E1,1.564532518E0,-4.274403751E-1,-1.692046970E-1
1.478445894E1,1.503905892E0,-4.636330605E-1,-1.727170646E-1
1.479361024E1,1.442515850E0,-4.914266169E-1,-1.792836636E-1
1.480276159E1,1.365243673E0,-5.277720094E-1,-1.852394342E-1
1.481191295E1,1.289498568E0,-5.543438792E-1,-1.675248593E-1
1.482106425E1,1.221694469E0,-5.664080977E-1,-1.313321590E-1
1.483021561E1,1.146713018E0,-5.422796607E-1,-1.012479365E-1
1.483936691E1,1.057071209E0,-5.109737515E-1,-7.696675509E-2
1.484851826E1,9.501729012E-1,-4.953971207E-1,-4.535540938E-2
1.485766962E1,8.223531246E-1,-4.773771465E-1,-2.122694254E-2
1.486682092E1,6.978929639E-1,-4.407263100E-1,1.206423342E-2
1.487597227E1,5.845808387E-1,-3.926220834E-1,3.451287001E-2
1.488512357E1,4.816530645E-1,-3.318427801E-1,5.192201585E-2
1.489427493E1,4.068242610E-1,-2.974826097E-1,6.856760383E-2
1.490342628E1,3.497100472E-1,-2.788517773E-1,8.887827396E-2
1.491257758E1,2.948864996E-1,-2.878617644E-1,1.136175916E-1
1.492172894E1,2.235700935E-1,-3.180987239E-1,1.411057115E-1
1.493088029E1,1.331647038E-1,-3.596363366E-1,1.740914732E-1
1.494003159E1,3.466558084E-2,-3.903313875E-1,2.162399292E-1
1.494918295E1,-4.871506989E-2,-3.964398801E-1,2.614426315E-1
1.495833425E1,-1.265980899E-1,-3.729222417E-1,2.840439677E-1
1.496748560E1,-2.133384049E-1,-3.211529553E-1,2.779355049E-1
1.497663696E1,-2.629697323E-1,-2.834331393E-1,2.593046725E-1
1.498578826E1,-2.359397560E-1,-3.245126009E-1,2.307475507E-1
1.499493962E1,-1.502684206E-1,-4.443913698E-1,1.953184158E-1
1.500409097E1,-1.435490996E-1,-5.523586273E-1,1.559187621E-1
1.501322951E1,-2.328855246E-1,-4.851654470E-1,1.441599578E-1
1.502239363E1,-3.507790267E-1,-2.104368806E-1,1.675248593E-1
1.503154493E1,-4.333961308E-1,2.901524538E-3,2.041756958E-1
1.504069628E1,-4.292729199E-1,7.711946964E-2,2.174616307E-1
1.504984758E1,-3.622324169E-1,1.627907902E-1,2.234173864E-1
1.505899894E1,-3.042019308E-1,2.954973578E-1,2.304421216E-1
1.506815029E1,-2.583884001E-1,3.938437700E-1,2.331909388E-1
1.507730159E1,-1.278197914E-1,4.175141156E-1,2.345653474E-1
1.508645295E1,6.551336497E-2,4.359922409E-1,2.622061968E-1
1.509559154E1,1.681357026E-1,5.015056133E-1,3.161134422E-1
1.510475561E1,1.311794519E-1,5.479300022E-1,3.596363366E-1
1.511390696E1,2.260134928E-2,5.526640415E-1,3.717005551E-1
1.512304555E1,-8.032641560E-2,5.012001991E-1,3.503209054E-1
1.513220962E1,-2.131856978E-1,4.810422063E-1,3.286358118E-1
1.514136097E1,-3.833066523E-1,5.470137000E-1,3.359659910E-1
1.515049951E1,-5.213581324E-1,7.327113152E-1,3.898732662E-1
1.515966362E1,-6.158867478E-1,9.715525508E-1,4.903576374E-1
1.516881498E1,-8.012788892E-1,1.043327093E0,5.896202922E-1
1.517795352E1,-1.060889006E0,1.128998399E0,6.030589342E-1
1.518711764E1,-1.265828252E0,1.207339644E0,4.995203316E-1
1.519626894E1,-1.431215167E0,1.256971002E0,3.017585576E-1
1.520540753E1,-1.568503022E0,1.531241417E0,1.131594554E-1
1.521457165E1,-1.646538734E0,1.550788522E0,3.145863488E-2
1.522372295E1,-1.651883721E0,1.561325550E0,-4.627167806E-2
1.523286154E1,-1.642873645E0,1.744427085E0,-2.338017821E-1
1.524202566E1,-1.691741467E0,1.674026966E0,-3.257342875E-1
1.525117696E1,-1.631267548E0,1.485885978E0,-2.426590770E-1
1.526031555E1,-1.526659966E0,1.405406833E0,-5.497625470E-2
1.526947967E1,-1.414874911E0,1.322484374E0,9.483403713E-2
1.527863097E1,-1.316375852E0,1.048977494E0,2.319692522E-1
1.528776956E1,-1.221083641E0,6.771242023E-1,3.617742956E-1
1.529693363E1,-1.119072199E0,3.364241421E-1,3.999522328E-1
1.530608498E1,-1.017518878E0,3.680354729E-2,3.330644667E-1
1.531522357E1,-9.642223716E-1,-1.598892659E-1,2.602209449E-1
1.532438764E1,-9.709417224E-1,-1.580567211E-1,2.321219593E-1
1.533353899E1,-1.011715770E0,-8.643488586E-2,2.305948436E-1
1.534267758E1,-1.069898963E0,9.300149232E-2,2.116585821E-1
1.535184165E1,-1.098456025E0,3.362714052E-1,2.021904439E-1
1.536099300E1,-1.119683027E0,4.990622103E-1,2.128802687E-1
1.537014436E1,-1.143658757E0,6.117635369E-1,2.622061968E-1
1.537929566E1,-1.147629261E0,6.920899153E-1,2.999260128E-1
1.538844701E1,-1.091889501E0,6.549809575E-1,3.191677034E-1
1.539758561E1,-1.020267606E0,4.966188073E-1,3.246653080E-1
1.540674967E1,-9.637642503E-1,3.231382072E-1,3.063398898E-1
1.541590102E1,-9.110786915E-1,1.517955512E-1,2.695363462E-1
1.542505232E1,-8.985562921E-1,4.016320780E-2,2.073826492E-1
1.543420368E1,-9.220739603E-1,1.374406274E-3,1.481304616E-1
1.544335503E1,-9.252808690E-1,3.252761811E-2,1.078145429E-1
1.545250633E1,-9.281824231E-1,1.386623234E-1,1.314848661E-1
1.546165769E1,-9.309312105E-1,2.684673667E-1,2.009687424E-1
1.547080904E1,-9.257390499E-1,4.201101959E-1,2.918322682E-1
1.547996034E1,-9.165763259E-1,5.126535892E-1,3.828485310E-1
1.548911170E1,-8.886300325E-1,4.755446017E-1,4.411844313E-1
1.549826305E1,-8.889354467E-1,3.497100472E-1,4.662291706E-1
1.550741436E1,-8.817580342E-1,2.490729690E-1,4.529432356E-1
1.551656571E1,-8.475505710E-1,2.212794125E-1,4.233171642E-1
1.552571701E1,-8.067765236E-1,2.225011140E-1,4.040754735E-1
1.553486837E1,-7.876875401E-1,2.319692522E-1,3.857500553E-1
1.554401972E1,-7.777612805E-1,3.006895781E-1,3.790307343E-1
1.555317102E1,-7.563816309E-1,3.924693763E-1,3.944546282E-1
1.556232238E1,-7.111788988E-1,4.286620617E-1,4.130854607E-1
1.557147373E1,-6.664343476E-1,4.492781460E-1,4.213318825E-1
1.558062503E1,-6.178719997E-1,4.662291706E-1,4.051444530E-1
1.558977639E1,-5.825955868E-1,4.112529159E-1,3.651339412E-1
1.559892774E1,-6.090146899E-1,2.855710983E-1,2.991624475E-1
1.560807904E1,-6.293253899E-1,1.863084137E-1,2.055501044E-1
1.561723040E1,-6.383354068E-1,1.401894391E-1,1.004843712E-1
1.562638175E1,-6.462764144E-1,1.705790907E-1,1.374406368E-2
1.563553305E1,-6.696413159E-1,2.721324563E-1,-5.421269313E-2
1.564468441E1,-6.977402568E-1,4.231644273E-1,-1.113269106E-1
1.565383576E1,-7.296570539E-1,5.548020005E-1,-1.550024897E-1
1.566298706E1,-7.516475320E-1,6.274928451E-1,-2.015796006E-1
1.567213842E1,-7.504258752E-1,7.015580535E-1,-2.286095917E-1
1.568128977E1,-7.571451664E-1,7.792884111E-1,-2.377723008E-1
1.569044107E1,-7.747070193E-1,8.003626466E-1,-2.367033064E-1
1.569959243E1,-7.864658237E-1,8.105943203E-1,-2.423536479E-1
1.570874378E1,-8.156337738E-1,8.273926377E-1,-2.278460264E-1
1.571789508E1,-8.522846103E-1,7.936432958E-1,-2.269297540E-1
1.572704644E1,-8.867974877E-1,7.886037827E-1,-2.466295809E-1
1.573619779E1,-9.159654379E-1,8.330429196E-1,-2.786990702E-1
1.574534909E1,-9.649859667E-1,8.942803741E-1,-3.278722763E-1
1.575450045E1,-1.015380859E0,9.060391784E-1,-3.898732662E-1
1.576365180E1,-1.050351858E0,9.261971712E-1,-4.537068009E-1
1.577280311E1,-1.077229142E0,9.115368128E-1,-5.149442554E-1
1.578194170E1,-1.091889501E0,8.492304087E-1,-5.558710098E-1
1.579110581E1,-1.110520363E0,7.406523228E-1,-5.780141950E-1
1.580025712E1,-1.110673070E0,6.271874309E-1,-6.022953987E-1
1.580940847E1,-1.073411345E0,5.242596865E-1,-6.135960817E-1
1.581855982E1,-9.869764447E-1,4.362976551E-1,-6.140542030E-1
1.582771112E1,-8.441908956E-1,4.040754735E-1,-6.198572516E-1
1.583684972E1,-6.158867478E-1,3.881934285E-1,-6.065713167E-1
1.584601383E1,-2.608317733E-1,2.985515893E-1,-5.661026835E-1
1.585516514E1,2.964136302E-1,7.513421029E-2,-5.865660906E-1
1.586430373E1,8.988617659E-1,1.557660475E-2,-6.511631608E-1
1.587346784E1,1.232384324E0,5.592306852E-1,-6.155813336E-1
1.588261915E1,1.683953166E0,9.352071285E-1,-4.929537475E-1
1.589175774E1,2.237075329E0,4.992149174E-1,-4.851654470E-1
1.590092186E1,2.599155188E0,-3.260397315E-1,-5.711421967E-1
1.591007316E1,2.809744596E0,-6.390989423E-1,-7.429429889E-1
1.591921175E1,2.979102135E0,-2.383831441E-1,-8.403730989E-1
1.592837587E1,3.123872995E0,2.959555089E-1,-7.669187188E-1
1.593752717E1,3.259786367E0,4.654656053E-1,-6.336013079E-1
1.594666576E1,3.370807886E0,2.712161839E-1,-5.325061083E-1
1.595582988E1,3.467779875E0,-6.215370819E-2,-4.564556181E-1
1.596498118E1,3.564599276E0,-3.875826001E-1,-3.616215885E-1
1.597411977E1,3.682034492E0,-6.995728016E-1,-2.151709497E-1
1.598328389E1,3.905299187E0,-7.931851745E-1,-4.627167806E-2
1.599243524E1,4.152387142E0,-6.171084642E-1,1.751604527E-1
1.600157378E1,4.333045006E0,-3.808632791E-1,4.211791754E-1
1.601073790E1,4.367863178E0,-6.459710002E-2,5.561764240E-1
1.601988925E1,4.201713085E0,1.977618039E-1,5.328115225E-1
1.602902779E1,4.002729416E0,2.069245130E-1,4.807367921E-1
1.603819191E1,3.893693209E0,1.840177327E-1,5.099047422E-1
1.604734321E1,3.876436710E0,1.493521482E-1,5.757235289E-1
1.605649456E1,3.927289724E0,-1.145338640E-1,6.142069101E-1
1.606564592E1,3.920570374E0,-4.879142344E-1,6.644490957E-1
1.607479727E1,3.855362415E0,-9.756757617E-1,7.913526297E-1
1.608393581E1,3.731513262E0,-1.564990640E0,8.538117409E-1
1.609309993E1,3.509622812E0,-2.098871231E0,7.841751575E-1
1.610225128E1,3.306210756E0,-2.446290493E0,6.181774139E-1
1.611138982E1,3.163119793E0,-2.635805845E0,4.585935771E-1
1.612055394E1,2.983225346E0,-2.591825008E0,3.472666740E-1
1.612970529E1,2.743162394E0,-2.332062006E0,3.136700690E-1
1.613884389E1,2.492409468E0,-1.989682198E0,2.964136302E-1
1.614800795E1,2.279376507E0,-1.716022611E0,2.611372173E-1
1.615715930E1,2.074742794E0,-1.470767498E0,1.831014603E-1
1.616629790E1,1.840177417E0,-1.259261608E0,1.087308154E-1
1.617546196E1,1.551704764E0,-1.098456025E0,6.749862432E-2
1.618461331E1,1.241394401E0,-9.301676750E-1,6.581879407E-2
1.619375191E1,9.764393568E-1,-6.833853722E-1,1.137702987E-1
1.620291597E1,8.060129285E-1,-3.828485310E-1,1.293469071E-1
1.621206732E1,6.737645268E-1,-1.353026628E-1,1.374406368E-1
1.622121868E1,5.396835804E-1,-4.138490185E-2,1.737860441E-1
1.623036998E1,3.738385141E-1,-5.772506446E-2,2.195995897E-1
1.623952133E1,1.704263836E-1,-1.924168877E-2,3.005368412E-1
1.624867269E1,-3.817795217E-2,1.562241912E-1,4.265241027E-1
1.625782399E1,-2.554868758E-1,3.527642787E-1,5.262449384E-1
1.626697534E1,-4.705050886E-1,3.994941115E-1,5.448757410E-1
1.627612670E1,-6.940752268E-1,2.579302490E-1,5.066977739E-1
1.628527800E1,-9.228374958E-1,8.796200156E-2,4.393518865E-1
1.629442936E1,-1.264453769E0,6.658235192E-2,3.611634374E-1
1.630358071E1,-1.813147426E0,2.325800955E-1,3.339807391E-1
1.631273201E1,-2.493783951E0,3.229855001E-1,3.272614181E-1
1.632188336E1,-2.995442152E0,2.295258641E-1,3.581092060E-1
1.633102196E1,-3.077601194E0,2.141019702E-1,4.503471553E-1
1.634018607E1,-2.761335135E0,4.828747511E-1,6.042806506E-1
1.634933738E1,-2.350998402E0,1.164122105E0,8.327375054E-1
1.635847597E1,-2.147433519E0,1.962346792E0,9.965972900E-1
1.636764008E1,-2.477901936E0,1.232537031E0,9.721634388E-1
1.637679139E1,-2.984905243E0,1.094485521E0,8.800781965E-1
1.638592998E1,-2.450413704E0,2.861514091E0,6.665870547E-1
1.639509409E1,-2.050919771E0,2.506458998E0,4.912739098E-1
1.640424540E1,-2.312973261E0,8.805363178E-1,2.829749882E-1
1.641338399E1,-2.343362808E0,5.998520255E-1,1.718007922E-1
1.642254810E1,-1.991972923E0,3.771981969E-2,1.985253543E-1
1.643169941E1,-1.749771953E0,-1.082726792E-1,3.567348123E-1
1.644083800E1,-1.845674992E0,5.483881235E-1,5.155550838E-1
1.645000212E1,-1.900651217E0,7.718055248E-1,5.088357925E-1
1.645915347E1,-1.711746693E0,3.100049794E-1,5.251759291E-1
1.646829206E1,-1.613858461E0,-1.107160673E-1,5.934380889E-1
1.647745612E1,-1.609735250E0,-3.692571819E-1,5.874823332E-1
1.648660748E1,-1.578123927E0,-6.352811456E-1,5.060869455E-1
1.649574607E1,-1.540251374E0,-7.566870451E-1,4.149180055E-1
1.650491014E1,-1.523300409E0,-7.635591030E-1,3.446705639E-1
1.651406149E1,-1.555369854E0,-6.716265678E-1,2.962609231E-1
1.652320008E1,-1.562852740E0,-4.492781460E-1,2.965663373E-1
1.653236415E1,-1.520398855E0,-1.372879148E-1,3.875826001E-1
1.654151550E1,-1.443279386E0,1.470614821E-1,5.118899941E-1
1.655066686E1,-1.394106150E0,3.533751369E-1,5.627430081E-1
1.655981816E1,-1.361425877E0,5.667135715E-1,5.354076028E-1
1.656896951E1,-1.278197885E0,6.421532035E-1,5.024218559E-1
1.657810811E1,-1.138772011E0,4.443913698E-1,4.643966258E-1
1.658727217E1,-1.022711039E0,1.308740228E-1,3.695625961E-1
1.659642352E1,-1.030346632E0,-1.001789495E-1,2.878617644E-1
1.660557488E1,-1.040272832E0,-1.783674061E-1,1.834068894E-1
1.661472623E1,-1.025765300E0,-6.917845458E-2,2.962609194E-2
1.662387753E1,-1.010188699E0,1.714953631E-1,-8.276980370E-2
1.663302889E1,-9.471186996E-1,3.787252903E-1,-1.172826737E-1
1.664218024E1,-8.912261724E-1,5.813738704E-1,-7.620319724E-2
1.665133154E1,-8.632798791E-1,7.598940134E-1,-6.032116711E-2
1.666048290E1,-8.425110579E-1,9.333745837E-1,-7.482878864E-2
1.666963425E1,-7.959339619E-1,1.050809979E0,-1.015533581E-1
1.667878560E1,-7.487460375E-1,1.094332814E0,-9.941539168E-2
1.668792420E1,-7.414158583E-1,1.084101200E0,-7.742489129E-2
1.669708826E1,-7.275190949E-1,1.103037477E0,-6.688777357E-2
1.670623962E1,-7.073611021E-1,1.074633002E0,-8.506047726E-2
1.671537821E1,-6.969767213E-1,9.562813640E-1,-1.282779276E-1
1.672454227E1,-7.105680704E-1,8.405258060E-1,-1.398840249E-1
1.673369362E1,-7.530219555E-1,6.754443645E-1,-1.296523362E-1
1.674284498E1,-8.083036542E-1,5.807630420E-1,-1.244601309E-1
1.675199628E1,-8.622109294E-1,6.059604883E-1,-1.072036922E-1
1.676114764E1,-9.353598356E-1,5.102101564E-1,-1.033858955E-1
1.677029899E1,-1.024543524E0,3.520007432E-1,-1.197260618E-1
1.677945034E1,-1.136633992E0,2.776300907E-1,-1.417165697E-1
1.678860165E1,-1.257581830E0,2.519744933E-1,-1.798945218E-1
1.679775300E1,-1.334395885E0,1.667613089E-1,-2.279987335E-1
1.680690436E1,-1.387539506E0,1.357607991E-1,-2.820587158E-1
1.681605566E1,-1.456412554E0,1.534753740E-1,-3.466558158E-1
1.682519425E1,-1.467255116E0,1.521009654E-1,-3.926220834E-1
1.683435836E1,-1.416707516E0,2.165453583E-1,-3.947600424E-1
1.684350972E1,-1.367839694E0,3.384093940E-1,-3.889569938E-1
1.685264831E1,-1.304769754E0,4.547757804E-1,-3.923166394E-1
1.686181238E1,-1.205659747E0,5.453338623E-1,-3.941491842E-1
1.687096373E1,-1.079519868E0,5.671716928E-1,-4.017847776E-1
1.688010232E1,-9.460496902E-1,6.094728708E-1,-4.228590131E-1
1.688926639E1,-8.470924497E-1,7.186617851E-1,-4.454603493E-1
1.689841774E1,-7.954758406E-1,7.440119386E-1,-4.755446017E-1
1.690756909E1,-7.443174124E-1,7.620319724E-1,-4.795151055E-1
1.691672040E1,-7.043069005E-1,8.327375054E-1,-4.700469673E-1
1.692587175E1,-6.510104537E-1,8.122741580E-1,-4.734066129E-1
1.693502311E1,-5.969504714E-1,8.280034661E-1,-4.686725736E-1
1.694417446E1,-5.486935377E-1,8.762603998E-1,-4.714213610E-1
1.695332576E1,-4.697415531E-1,8.764131069E-1,-4.862344265E-1
1.696247712E1,-3.408527672E-1,8.759549856E-1,-4.920374751E-1
1.697162847E1,-1.319430023E-1,8.040276766E-1,-4.801259339E-1
1.698077982E1,1.716480851E-1,5.418215394E-1,-4.717268050E-1
1.698991836E1,5.497625470E-1,1.550024897E-1,-4.472928941E-1
1.699908248E1,9.119949341E-1,-5.818320066E-2,-4.074351192E-1
1.700823383E1,1.230704546E0,-6.062658876E-2,-4.106420577E-1
1.701737243E1,1.502989650E0,-9.941539168E-2,-4.153761268E-1
1.702653649E1,1.742441773E0,-7.666133344E-2,-3.917058110E-1
1.703568784E1,1.982199311E0,-2.321219631E-2,-3.724641204E-1
1.704482644E1,2.263952732E0,-8.002099395E-2,-3.898732662E-1
1.705399055E1,2.613509893E0,-4.894413650E-1,-4.402681589E-1
1.706314186E1,2.967801332E0,-1.418387294E0,-5.152496696E-1
1.707229321E1,3.211376667E0,-2.281361818E0,-6.282563806E-1
1.708144456E1,3.320107460E0,-2.447970390E0,-7.678350210E-1
1.709059592E1,3.312624693E0,-2.032136202E0,-8.915315866E-1
1.709973446E1,3.231534719E0,-1.402199864E0,-9.634588361E-1
1.710889857E1,3.223288298E0,-8.266290426E-1,-9.498674870E-1
1.711804993E1,3.387148142E0,-5.103628635E-1,-8.719844818E-1
1.712718852E1,3.600181103E0,-6.351284385E-1,-6.847597957E-1
1.713635258E1,3.839174986E0,-8.443436027E-1,-4.795151055E-1
1.714550394E1,3.933398247E0,-4.278984964E-1,-3.362714052E-1
1.715464253E1,3.821155071E0,3.810159862E-1,-2.345653474E-1
1.716380665E1,3.759917498E0,1.088987947E0,-8.704573661E-2
1.717295795E1,3.802371502E0,1.511541486E0,8.444963396E-2
1.718209654E1,3.795193911E0,1.670819998E0,1.563768983E-1
1.719126066E1,3.665541649E0,1.725338101E0,2.476985604E-1
1.720041201E1,3.504277945E0,1.456412554E0,4.463766217E-1
1.720955055E1,3.325605154E0,8.215895891E-1,6.201626658E-1
1.721871467E1,3.176253080E0,5.665608495E-2,7.650861740E-1
1.722786602E1,3.007048368E0,-7.182036638E-1,8.565605879E-1
1.723700462E1,2.872051001E0,-1.355317354E0,8.750386834E-1
1.724616868E1,2.739344597E0,-1.858350039E0,8.275453448E-1
1.725532003E1,2.550134659E0,-2.229592562E0,7.330167294E-1
1.726445862E1,2.360466480E0,-2.538223028E0,5.981721878E-1
1.727362269E1,2.198286533E0,-2.765000105E0,4.946335554E-1
1.728277404E1,2.017628431E0,-2.732930660E0,4.309527278E-1
1.729191264E1,1.854379535E0,-2.439876556E0,3.953709006E-1
1.730107675E1,1.728239655E0,-1.973036647E0,3.904841244E-1
1.731022805E1,1.583316088E0,-1.413500547E0,3.958290219E-1
1.731936665E1,1.411668062E0,-9.086353183E-1,4.034646153E-1
1.732853076E1,1.214822531E0,-5.216635466E-1,3.846810758E-1
1.733768212E1,1.009730577E0,-2.944283783E-1,3.219164908E-1
1.734682071E1,7.948650122E-1,-1.473668963E-1,2.652604282E-1
1.735598477E1,5.428904891E-1,-9.315420873E-3,2.218902707E-1
1.736513612E1,3.277195692E-1,7.528692484E-2,2.215848416E-1
1.737428748E1,2.053973973E-1,1.548497826E-1,2.603736520E-1
1.738343878E1,1.212531775E-1,3.072561622E-1,3.121429384E-1
1.739259014E1,4.031591862E-2,4.996730685E-1,3.732276857E-1
1.740172873E1,-6.429167092E-2,6.762079000E-1,4.065188468E-1
1.741089284E1,-2.058555335E-1,7.988355160E-1,3.816268146E-1
1.742004415E1,-3.863608837E-1,8.241856694E-1,3.167243004E-1
1.742918274E1,-6.105418205E-1,6.934643388E-1,2.548760176E-1
1.743834686E1,-8.530482054E-1,4.537068009E-1,2.374668717E-1
1.744749821E1,-1.070662498E0,2.382304370E-1,2.568612695E-1
1.745663680E1,-1.257581830E0,1.701209545E-1,2.854183912E-1
1.746580087E1,-1.428008199E0,2.626643181E-1,2.976353168E-1
1.747495222E1,-1.683495045E0,5.164713860E-1,2.962609231E-1
1.748410357E1,-2.214015961E0,8.368607163E-1,3.038965166E-1
1.749325493E1,-2.802719831E0,1.128692985E0,2.756448388E-1
1.750240623E1,-2.856168985E0,1.532921195E0,2.866400778E-1
1.751154482E1,-2.512872934E0,1.492910743E0,5.326588154E-1
1.752070894E1,-2.363520861E0,1.528034449E0,9.898779988E-1
1.752986029E1,-2.056722641E0,2.487980843E0,1.340656996E0
1.753899889E1,-1.997623205E0,1.804900885E0,1.356844425E0
1.754816295E1,-2.564031363E0,1.713732004E0,9.376505613E-1
1.755731430E1,-2.708496809E0,1.762294292E0,2.861819267E-1
1.756645290E1,-2.086043358E0,1.443126649E-1,-9.529217333E-2
1.757561696E1,-1.530783176E0,-9.200887084E-1,-5.512896553E-2
1.758476831E1,-1.619966984E0,-7.566870451E-1,1.473668963E-1
1.759390691E1,-1.759240150E0,2.910687327E-1,1.566823274E-1
1.760307102E1,-1.763974190E0,4.767662883E-1,1.669140160E-1
1.761222232E1,-1.699682474E0,1.710372418E-2,3.452814221E-1
1.762136092E1,-1.644553542E0,-3.878879920E-2,5.314370990E-1
1.763052503E1,-1.581789017E0,-1.837123185E-1,5.697677732E-1
1.763967639E1,-1.441599488E0,-4.472928941E-1,4.732539058E-1
1.764881498E1,-1.318971992E0,-7.169819474E-1,3.284831047E-1
1.765797904E1,-1.212379098E0,-7.812736630E-1,1.753131598E-1
1.766713040E1,-1.144575000E0,-6.526902914E-1,5.238015205E-2
1.767626899E1,-1.106397152E0,-4.039227366E-1,-1.847812906E-2
1.768543310E1,-1.089140654E0,-5.558710173E-2,-1.847812906E-2
1.769458441E1,-1.067913771E0,3.043546379E-1,3.573456407E-2
1.770372300E1,-1.026986957E0,6.812474132E-1,6.016845629E-2
1.771288712E1,-1.062110662E0,8.950439692E-1,7.009471953E-2
1.772203847E1,-1.108840466E0,1.016755223E0,6.856760383E-2
1.773117706E1,-1.071884274E0,1.010188699E0,7.788302749E-2
1.774034112E1,-1.016449809E0,5.862606764E-1,1.195733473E-1
1.774949248E1,-9.877400398E-1,1.754658818E-1,1.548497826E-1
1.775863107E1,-9.602518678E-1,-9.025268257E-2,1.797417998E-1
1.776779514E1,-9.379559755E-1,-4.367557764E-1,1.678302884E-1
1.777694649E1,-9.454388618E-1,-6.129852533E-1,1.007898003E-1
1.778608508E1,-9.662076235E-1,-5.228852630E-1,2.977880463E-2
1.779524920E1,-9.628480077E-1,-4.025483429E-1,-3.970507067E-3
1.780440055E1,-9.804098606E-1,-3.228327632E-1,2.214321308E-2
1.781353909E1,-9.799517393E-1,-1.302631795E-1,9.834641218E-2
1.782270321E1,-9.510892034E-1,1.298050433E-1,1.863084137E-1
1.783185456E1,-9.891144037E-1,2.710634768E-1,2.597627938E-1
1.784100592E1,-1.036455035E0,3.281776905E-1,2.594573796E-1
1.785015722E1,-1.011257648E0,2.983988822E-1,2.058555335E-1
1.785930857E1,-9.446752667E-1,1.875301152E-1,1.478250325E-1
1.786845993E1,-9.063445926E-1,1.246128380E-1,8.704573661E-2
1.787761128E1,-9.161182046E-1,1.424801201E-1,3.634541109E-2
1.788676264E1,-9.052756429E-1,1.911951900E-1,3.054236295E-4
1.789591394E1,-9.229902029E-1,2.429644912E-1,-8.399149403E-3
1.790506529E1,-9.779664874E-1,2.686200738E-1,-3.863608837E-2
1.791421665E1,-9.814788103E-1,3.300102353E-1,-5.589252338E-2
1.792336800E1,-9.756757617E-1,3.596363366E-1,-4.306473210E-2
1.793251936E1,-9.758284688E-1,3.723114133E-1,-2.107422985E-2
1.794167066E1,-9.643751383E-1,3.833066523E-1,-7.635590737E-4
1.795082201E1,-9.329164624E-1,3.086305857E-1,5.497625098E-3
1.795997336E1,-9.089407325E-1,2.574721277E-1,-1.679830020E-3
1.796912472E1,-9.397885203E-1,2.061609477E-1,-1.572931744E-2
1.797827607E1,-9.834640622E-1,1.945548505E-1,-4.902049154E-2
1.798742738E1,-1.001331329E0,2.147128135E-1,-9.559759498E-2
1.799657873E1,-1.010341406E0,1.519482583E-1,-1.383569092E-1
1.800573008E1,-1.019962192E0,1.368297935E-1,-1.609582454E-1
1.801488144E1,-1.059514523E0,2.029540092E-1,-1.594311297E-1
1.802403274E1,-1.052184463E0,2.223484069E-1,-1.575985998E-1
1.803318409E1,-9.984298348E-1,2.783936262E-1,-1.591257155E-1
1.804233545E1,-9.790354371E-1,3.110739589E-1,-1.456870735E-1
1.805148680E1,-9.677347541E-1,3.497100472E-1,-1.400367320E-1
1.806063816E1,-9.462023973E-1,4.219427407E-1,-1.491994411E-1
1.806978946E1,-9.492566586E-1,5.001311898E-1,-1.669140160E-1
1.807894081E1,-9.620844126E-1,5.686988235E-1,-1.957765520E-1
1.808809217E1,-9.862129092E-1,6.752916574E-1,-2.392994165E-1
1.809724352E1,-1.030652046E0,7.768449783E-1,-2.971771955E-1
1.810639482E1,-1.033095479E0,8.651124239E-1,-3.600944579E-1
1.811553347E1,-9.904888272E-1,9.373451471E-1,-3.843756318E-1
1.812469753E1,-8.906152844E-1,9.405520558E-1,-3.823903799E-1
1.813384889E1,-7.003363967E-1,8.258655071E-1,-3.565820754E-1
1.814298748E1,-4.248442650E-1,6.636855602E-1,-3.153499067E-1
1.815215159E1,-1.676775664E-1,4.782933891E-1,-2.339545041E-1
1.816130290E1,-4.046862945E-2,4.040754735E-1,-1.623326540E-1
1.817044149E1,9.315420873E-3,4.353813827E-1,-1.795890927E-1
1.817960561E1,5.314370990E-2,4.599680007E-1,-2.305948436E-1
1.818875696E1,7.834116369E-2,4.911212027E-1,-3.055763543E-1
1.819790831E1,1.217113137E-1,5.709894896E-1,-3.756710589E-1
1.820705962E1,2.948864996E-1,5.893148780E-1,-4.007157981E-1
1.821621097E1,6.496360302E-1,3.959817290E-1,-3.643703759E-1
1.822534956E1,1.170841455E0,1.099525020E-2,-2.310529798E-1
1.823451368E1,1.737707734E0,-4.161396921E-1,-1.485885978E-1
1.824366503E1,2.219055414E0,-7.589777112E-1,-1.650814712E-1
1.825280363E1,2.538223028E0,-7.177455425E-1,-9.132166207E-2
1.826196769E1,2.772941113E0,-9.168817401E-1,-7.360709459E-2
1.827111904E1,2.781187534E0,-1.624395609E0,-2.562504113E-1
1.828025764E1,2.683910131E0,-2.858154297E0,-6.035171151E-1
1.828942175E1,2.697654247E0,-3.369738817E0,-1.064095974E0
1.829857311E1,2.807301283E0,-2.699181318E0,-1.287971497E0
1.830771165E1,2.978338480E0,-1.646996975E0,-1.202605486E0
1.831687576E1,3.353245974E0,-9.842276573E-1,-1.055085897E0
1.832602712E1,3.782671690E0,-5.386145711E-1,-1.026070714E0
1.833516571E1,4.219121933E0,2.351761982E-2,-9.098569751E-1
1.834432982E1,4.402376175E0,5.015056133E-1,-6.517740488E-1
1.835348113E1,4.287842274E0,8.729007244E-1,-4.013266563E-1
1.836261972E1,4.105046272E0,8.603783846E-1,-1.510319859E-1
1.837178383E1,4.061676025E0,7.211052179E-1,3.497100621E-2
1.838093519E1,4.040907383E0,6.545228362E-1,1.270562261E-1
1.839008654E1,4.052207947E0,6.902574301E-1,1.569877416E-1
1.839923784E1,4.205530643E0,7.383615971E-1,2.260134816E-1
1.840838920E1,4.358242512E0,5.835118294E-1,3.089359999E-1
1.841752779E1,4.242334366E0,2.218902707E-1,3.504736125E-1
1.842669191E1,4.013724804E0,-2.637332976E-1,4.500417113E-1
1.843584326E1,3.804967642E0,-9.405520558E-1,5.247178078E-1
1.844498186E1,3.604151487E0,-1.723658204E0,5.477772951E-1
1.845414592E1,3.413261652E0,-2.422009468E0,4.937172830E-1
1.846329727E1,3.256426811E0,-2.889765739E0,3.555130959E-1
1.847243586E1,3.075768709E0,-3.012851477E0,2.102841735E-1
1.848159998E1,2.833415031E0,-2.669097185E0,6.062658876E-2
1.849075128E1,2.577775478E0,-2.061456680E0,-5.833591148E-2
1.849989606E1,2.335268974E0,-1.457634330E0,-9.529217333E-2
1.850906018E1,2.088181257E0,-9.746068120E-1,-8.765657991E-2
1.851821153E1,1.851478100E0,-7.192726731E-1,-6.810946763E-2
1.852735012E1,1.623479247E0,-6.647545099E-1,-5.085303262E-2
1.853651424E1,1.381278396E0,-6.646018028E-1,-5.803048983E-2
1.854566554E1,1.120446563E0,-5.144860744E-1,-5.635065958E-2
1.855480419E1,8.573241234E-1,-1.928750277E-1,-4.734066315E-3
1.856396825E1,6.743753552E-1,1.059819981E-1,7.314895838E-2
1.857311960E1,5.917583108E-1,4.249969721E-1,1.438545287E-1
1.858225820E1,5.199837089E-1,7.679877281E-1,2.011214644E-1
1.859142231E1,3.703261614E-1,9.552124143E-1,2.206685692E-1
1.860057361E1,1.412584335E-1,9.324583411E-1,2.134911120E-1
1.860972497E1,-1.220167428E-1,7.577560544E-1,1.721062213E-1
1.861887632E1,-3.785725832E-1,4.605788291E-1,1.101052165E-1
1.862802768E1,-6.281036735E-1,1.279724985E-1,6.093201414E-2
1.863717903E1,-8.608365059E-1,-1.194206402E-1,4.001049697E-2
1.864633039E1,-1.036760569E0,-2.246390730E-1,3.084778599E-2
1.865548169E1,-1.182447553E0,-1.942494214E-1,1.206423342E-2
1.866462028E1,-1.338213682E0,-5.070032179E-2,-2.702999115E-2
1.867378440E1,-1.530019641E0,1.152974218E-1,-6.627693027E-2
1.868293575E1,-1.807955146E0,2.779355049E-1,-1.020114943E-1
1.869207434E1,-1.989224076E0,4.515688419E-1,-1.583621502E-1
1.870123846E1,-1.898666024E0,6.519267559E-1,-1.255291104E-1
1.871038976E1,-1.763516068E0,1.004843712E0,1.012479365E-1
1.871952835E1,-1.603626728E0,1.351499557E0,3.681881726E-1
1.872869247E1,-1.454274654E0,1.519177079E0,6.781931520E-1
1.873784382E1,-1.587286592E0,1.305533290E0,9.527690411E-1
1.874698242E1,-1.939134598E0,6.734591126E-1,9.587247968E-1
1.875614653E1,-2.304879427E0,4.300364852E-1,7.809682488E-1
1.876529783E1,-2.285332203E0,1.178782463E0,4.129327536E-1
1.877443643E1,-1.919434786E0,1.841704488E0,9.697200358E-2
1.878360054E1,-1.754047871E0,1.154654026E0,2.657185495E-2
1.879275190E1,-1.967844486E0,5.693096519E-1,2.087570578E-1
1.880189049E1,-2.186069727E0,1.411362648E0,3.805578351E-1
1.881105460E1,-2.152014971E0,1.641957402E0,4.489727318E-1
1.882020591E1,-1.918518543E0,1.078450799E0,4.731011987E-1
1.882934450E1,-1.898207903E0,5.694623590E-1,5.230379701E-1
1.883850861E1,-1.896375299E0,8.506047726E-2,5.331169367E-1
1.884765997E1,-1.679524541E0,-2.360924631E-1,4.769189954E-1
1.885679856E1,-1.515206575E0,-3.999522328E-1,4.263713956E-1
1.886596262E1,-1.473974466E0,-3.961344361E-1,4.437805414E-1
1.887511398E1,-1.388761282E0,-2.205158621E-1,5.039489865E-1
1.888425257E1,-1.283695459E0,7.696675509E-2,5.485408306E-1
1.889341669E1,-1.280488610E0,3.342861533E-1,5.318952799E-1
1.890256804E1,-1.316833973E0,4.333961308E-1,4.753918648E-1
1.891171940E1,-1.346460104E0,4.573718905E-1,4.329380095E-1
1.892087070E1,-1.353332043E0,4.740174711E-1,4.030064642E-1
1.893002205E1,-1.308129430E0,3.269560039E-1,3.943018913E-1
1.893916065E1,-1.259719729E0,2.150182426E-1,4.008685052E-1
1.894832476E1,-1.246739268E0,6.978929788E-2,3.863608837E-1
1.895747611E1,-1.164733052E0,-1.056765765E-1,3.077143133E-1
1.896661471E1,-1.071731567E0,-1.866138428E-1,2.363978922E-1
1.897577877E1,-1.048672080E0,-1.313321590E-1,1.991362125E-1
1.898493012E1,-1.042258143E0,-7.788302377E-3,1.643179059E-1
1.899408148E1,-1.018893242E0,1.433963925E-1,1.345391124E-1
1.900323283E1,-1.007134438E0,2.843494117E-1,1.343863904E-1
1.901238419E1,-9.888089895E-1,3.162661791E-1,1.125486046E-1
1.902153554E1,-9.794935584E-1,4.010212123E-1,4.596625641E-2
1.903068684E1,-9.807152748E-1,4.422534108E-1,-1.389677543E-2
1.903983820E1,-9.794935584E-1,5.302154422E-1,-5.299099907E-2
1.904898955E1,-9.975135922E-1,6.830799580E-1,-7.574506104E-2
1.905814091E1,-1.038134933E0,8.251019120E-1,-1.018587798E-1
1.906729226E1,-1.076465607E0,8.761076927E-1,-1.491994411E-1
1.907643085E1,-1.089140654E0,8.583931327E-1,-1.907370538E-1
1.908559492E1,-1.089598775E0,7.698202729E-1,-2.066190839E-1
1.909474627E1,-1.130525589E0,6.769714952E-1,-2.189887464E-1
1.910388486E1,-1.148240089E0,6.091674566E-1,-2.550287247E-1
1.911304898E1,-1.144422293E0,4.446968138E-1,-2.580829561E-1
1.912220033E1,-1.182600260E0,2.444916219E-1,-2.745758295E-1
1.913135169E1,-1.219556570E0,1.696628332E-1,-2.779355049E-1
1.914050304E1,-1.261857748E0,4.169032723E-2,-2.060082406E-1
1.914965434E1,-1.296676040E0,5.085303262E-2,-1.427855492E-1
1.915880570E1,-1.347376347E0,1.075091213E-1,-1.029277667E-1
1.916795705E1,-1.418234587E0,1.020114943E-1,-9.177979827E-2
1.917710841E1,-1.484664321E0,9.529217333E-2,-1.105633527E-1
1.918625976E1,-1.509556293E0,7.513421029E-2,-1.430909634E-1
1.919541111E1,-1.516275644E0,7.330167294E-2,-1.675248593E-1
1.920456247E1,-1.519329786E0,3.634541109E-2,-2.170034945E-1
1.921370106E1,-1.430146098E0,1.756185852E-2,-2.854183912E-1
1.922286513E1,-1.392426372E0,1.267508045E-2,-3.162661791E-1
1.923201648E1,-1.407086611E0,1.475196183E-1,-3.286358118E-1
1.924116783E1,-1.415333152E0,3.981196880E-1,-3.562766612E-1
1.925031919E1,-1.458397865E0,6.201626658E-1,-4.002576768E-1
1.925947054E1,-1.498102903E0,8.092198968E-1,-4.341596961E-1
1.926860914E1,-1.462979198E0,9.585720897E-1,-4.676035643E-1
1.927777320E1,-1.375017166E0,9.749122262E-1,-4.871506989E-1
1.928692455E1,-1.283237338E0,9.093988538E-1,-4.865398407E-1
1.929606315E1,-1.251015186E0,8.985562921E-1,-4.898995161E-1
1.930522726E1,-1.240478039E0,8.962656260E-1,-4.892886579E-1
1.931437861E1,-1.230551839E0,8.058602214E-1,-4.842491746E-1
1.932352997E1,-1.234216928E0,6.751389503E-1,-4.840964675E-1
1.933268132E1,-1.204285383E0,7.117897868E-1,-4.949389994E-1
1.934183268E1,-1.117697716E0,6.794148684E-1,-5.224271417E-1
1.935097127E1,-8.988617659E-1,5.668662786E-1,-5.561764240E-1
1.936013533E1,-4.853181541E-1,4.291202128E-1,-5.251759291E-1
1.936928669E1,1.194206402E-1,1.412584335E-1,-3.819322586E-1
1.937842528E1,8.877137899E-1,-3.559712470E-1,-2.974826097E-1
1.938758940E1,1.657228589E0,-6.281036735E-1,-3.724641204E-1
1.939674075E1,2.247307062E0,-4.808894992E-1,-4.361449480E-1
1.940587934E1,2.718423128E0,-4.624113739E-1,-5.128062963E-1
1.941504346E1,2.993609667E0,-4.472928941E-1,-6.232169271E-1
1.942419476E1,3.048891306E0,-7.988355160E-1,-7.148439884E-1
1.943333341E1,3.034994602E0,-1.356691718E0,-7.774558663E-1
1.944249747E1,3.137922287E0,-1.529103398E0,-8.657232523E-1
1.945164882E1,3.355536699E0,-1.271325827E0,-8.173136115E-1
1.946078742E1,3.659738541E0,-1.034622550E0,-6.577298045E-1
1.946995153E1,4.168726921E0,-8.101361990E-1,-5.212054253E-1
1.947910288E1,4.637705326E0,-5.004366040E-1,-3.990359604E-1
1.948824148E1,5.014903069E0,-3.834593594E-1,-3.581092060E-1
1.949740554E1,5.210221767E0,-2.820587158E-1,-2.547233105E-1
1.950655690E1,5.149442196E0,-1.462979168E-1,-1.588202827E-2
1.951569549E1,4.892275810E0,-3.694098890E-1,2.156290859E-1
1.952485960E1,4.658015728E0,-6.380299330E-1,3.461976945E-1
1.953401096E1,4.584713936E0,-5.825955868E-1,3.364241421E-1
1.954314955E1,4.603344917E0,-2.754921019E-1,2.996205688E-1
1.955231367E1,4.709937572E0,-8.948912472E-2,3.454341292E-1
1.956146502E1,4.760027409E0,-4.416425824E-1,4.254551232E-1
1.957060361E1,4.630680561E0,-9.162709117E-1,5.708367825E-1
1.957976768E1,4.333045006E0,-1.290414810E0,7.003363967E-1
1.958891903E1,4.016320705E0,-1.756338596E0,7.911999226E-1
1.959805763E1,3.850322962E0,-2.239824295E0,8.240329623E-1
1.960722174E1,3.787558317E0,-2.436517000E0,7.711946368E-1
1.961637309E1,3.638206244E0,-2.288997412E0,6.441384554E-1
1.962551169E1,3.391423941E0,-2.070466757E0,5.378510356E-1
1.963467580E1,3.085695028E0,-2.000219345E0,4.239279926E-1
1.964382710E1,2.701166630E0,-1.898971438E0,2.892361879E-1
1.965296570E1,2.272351742E0,-1.630351305E0,1.383569092E-1
1.966212981E1,1.833610773E0,-1.265064716E0,3.848337755E-2
1.967128117E1,1.434422135E0,-8.999307156E-1,-1.298050396E-2
1.968041976E1,1.088835239E0,-5.738909841E-1,-2.107422985E-2
1.968958388E1,8.005153537E-1,-3.356605768E-1,1.588202827E-2
1.969873523E1,5.456393361E-1,-1.212531775E-1,8.948912472E-2
1.970787382E1,3.555130959E-1,-2.764083818E-2,2.426590770E-1
1.971703794E1,1.977618039E-1,-3.619270027E-2,4.167505503E-1
1.972618924E1,3.481829539E-2,-8.536590636E-2,5.696150661E-1
1.973534059E1,-8.979454637E-2,-1.727170646E-1,6.236750484E-1
1.974449195E1,-1.995943487E-1,-2.067717910E-1,5.661026835E-1
1.975364330E1,-3.665083647E-1,-3.924693540E-2,4.793623984E-1
1.976278190E1,-6.100836992E-1,2.191414535E-1,4.286620617E-1
1.977194601E1,-9.194778204E-1,3.411581814E-1,4.404208660E-1
1.978109736E1,-1.219709277E0,3.210002482E-1,4.969242513E-1
1.979023596E1,-1.527729034E0,2.628170252E-1,5.528167486E-1
1.979940007E1,-1.812383771E0,2.568612695E-1,5.465555787E-1
1.980855138E1,-1.867512822E0,3.527642787E-1,4.037700295E-1
1.981769002E1,-1.830709219E0,7.211052179E-1,4.172086716E-1
1.982685408E1,-1.886449099E0,1.270714998E0,6.264238358E-1
1.983600544E1,-1.883242130E0,1.306907654E0,8.206732869E-1
1.984514403E1,-1.686396599E0,1.241547108E0,9.436063170E-1
1.985430815E1,-1.398382068E0,1.122737288E0,9.854493141E-1
1.986345950E1,-1.441141367E0,1.259719729E0,8.823688626E-1
1.987259809E1,-1.740151167E0,1.524063945E0,6.358919740E-1
1.988176221E1,-1.944021344E0,9.298622608E-1,4.010212123E-1
1.989091356E1,-1.982657433E0,4.133908749E-1,2.429644912E-1
1.990005216E1,-1.707470775E0,7.737907767E-1,1.640124917E-1
1.990921622E1,-1.669750929E0,6.238277555E-1,1.527118087E-1
1.991836757E1,-1.966928124E0,4.639385045E-1,2.270824611E-1
1.992750617E1,-2.127428293E0,1.091889501E0,2.909159958E-1
1.993667028E1,-2.108033895E0,1.502684236E0,2.431172132E-1
1.994582164E1,-2.057791710E0,1.377002478E0,1.330119967E-1
1.995496023E1,-2.009076595E0,1.197718740E0,4.123219103E-2
1.996412434E1,-1.955474734E0,1.303089857E0,-1.893626526E-2
1.997327570E1,-1.916991353E0,1.500546336E0,-6.459710002E-2
1.998241429E1,-1.849034667E0,1.726407051E0,6.566607859E-3
1.999157835E1,-1.664100647E0,2.009229422E0,1.469087601E-1
2.000072971E1,-1.434116602E0,2.002357244E0,3.005368412E-1
2.000986830E1,-1.308892965E0,1.784437537E0,2.918322682E-1
2.001903242E1,-1.227955699E0,1.608055353E0,1.661504507E-1
2.002818377E1,-1.128082156E0,1.328134656E0,3.023693897E-2
2.003732236E1,-1.122431874E0,9.515473247E-1,-8.307522535E-2
2.004648648E1,-1.173284888E0,6.584933400E-1,-1.374406368E-1
2.005563783E1,-1.177560806E0,3.770454824E-1,-1.250709742E-1
2.006478919E1,-1.182600260E0,1.101052165E-1,-1.426328421E-1
2.007394049E1,-1.162595034E0,2.199050039E-2,-1.655396074E-1
2.008309184E1,-1.124264359E0,-6.047387794E-2,-1.597365588E-1
2.009223044E1,-1.098456025E0,-8.368607610E-2,-9.681928903E-2
2.010139455E1,-1.074022174E0,4.199574888E-2,-2.702999115E-2
2.011054591E1,-1.044396043E0,1.488940120E-1,3.481829539E-2
2.011968450E1,-1.025612593E0,3.756710589E-1,7.498150319E-2
2.012884861E1,-1.011715770E0,7.046123147E-1,3.955236077E-2
2.013799997E1,-1.029277682E0,8.374716043E-1,-1.206423342E-2
2.014715132E1,-1.064248681E0,8.510629535E-1,-6.841489673E-2
2.015630268E1,-1.074633002E0,8.522846103E-1,-9.788827598E-2
2.016545403E1,-1.050809979E0,8.793146014E-1,-1.117850468E-1
2.017460533E1,-1.041036487E0,8.895463347E-1,-1.146865711E-1
2.018375669E1,-1.068524599E0,7.942541242E-1,-1.185043678E-1
2.019290804E1,-1.102273822E0,7.073611021E-1,-1.180462316E-1
2.020205940E1,-1.087766290E0,7.412631512E-1,-1.180462316E-1
2.021121075E1,-1.086391807E0,6.717792749E-1,-1.459924877E-1
2.022036210E1,-1.093263865E0,5.535803437E-1,-1.942494214E-1
2.022951346E1,-1.058598280E0,4.888305068E-1,-2.385358512E-1
2.023866481E1,-1.064095974E0,3.753656447E-1,-3.098522723E-1
2.024781617E1,-1.108687758E0,2.770192325E-1,-3.217637837E-1
2.025696752E1,-1.161373377E0,1.565296054E-1,-2.964136302E-1
2.026611882E1,-1.258192658E0,-6.169557199E-2,-2.687727809E-1
2.027527018E1,-1.289651275E0,-1.991362125E-1,-2.750339806E-1
2.028440877E1,-1.285986185E0,-2.701472044E-1,-2.615953386E-1
2.029357288E1,-1.356080890E0,-2.341072112E-1,-2.461714447E-1
2.030272424E1,-1.417165637E0,-1.354553849E-1,-2.747285664E-1
2.031187559E1,-1.448318839E0,-8.139539510E-2,-2.976353168E-1
2.032102695E1,-1.459619522E0,8.399149403E-3,-3.032856584E-1
2.033017830E1,-1.448776960E0,4.993676394E-2,-3.136700690E-1
2.033932966E1,-1.457634330E0,1.786728203E-2,-3.509317636E-1
2.034848101E1,-1.483289838E0,1.556133330E-1,-4.042281806E-1
2.035763236E1,-1.483595252E0,1.565296054E-1,-4.793623984E-1
2.036678372E1,-1.452136636E0,1.881409585E-1,-5.635066032E-1
2.037593507E1,-1.468171358E0,3.549022675E-1,-6.253548861E-1
2.038508638E1,-1.516122937E0,5.673243999E-1,-6.485670805E-1
2.039423773E1,-1.570641041E0,7.143858671E-1,-6.148177385E-1
2.040338908E1,-1.602252364E0,8.538117409E-1,-5.583143830E-1
2.041254044E1,-1.603626728E0,9.327637553E-1,-5.297572613E-1
2.042167903E1,-1.567434072E0,8.643488884E-1,-5.013529062E-1
2.043084315E1,-1.487565756E0,7.409577370E-1,-4.773771465E-1
2.043999450E1,-1.431825995E0,5.059342384E-1,-4.873034060E-1
2.044913309E1,-1.379751205E0,3.284831047E-1,-4.813476503E-1
2.045829721E1,-1.287818789E0,1.169772521E-1,-4.792096615E-1
2.046744856E1,-1.193442822E0,-3.283303976E-2,-4.802786708E-1
2.047658716E1,-1.070815206E0,-1.795890927E-1,-4.622586668E-1
2.048575127E1,-8.252546191E-1,-3.115321100E-1,-3.822376728E-1
2.049490262E1,-4.402681589E-1,-4.181249440E-1,-2.225011140E-1
2.050404122E1,1.343864016E-2,-6.374191046E-1,-8.658760041E-2
2.051320528E1,4.695888162E-1,-9.097042680E-1,-8.689302206E-2
2.052235664E1,1.016449809E0,-7.644753456E-1,-1.600419879E-1
2.053149528E1,1.574000716E0,-3.408527672E-1,-2.296785712E-1
2.054065934E1,2.070161343E0,-3.996468186E-1,-3.770454824E-1
2.054981070E1,2.386580229E0,-1.114032745E0,-5.647283196E-1
2.055894929E1,2.549829245E0,-2.028318405E0,-8.163973689E-1
2.056811341E1,2.618855000E0,-2.445068836E0,-1.122126460E0
2.057726476E1,2.731861591E0,-2.387649298E0,-1.276976228E0
2.058640335E1,3.104784012E0,-1.817117929E0,-1.171604991E0
2.059556747E1,3.701428890E0,-7.832589149E-1,-9.972081780E-1
2.060471882E1,4.205836296E0,2.240282297E-1,-9.546015263E-1
2.061385742E1,4.554171562E0,8.793146014E-1,-8.843541145E-1
2.062302153E1,4.850738049E0,1.260788798E0,-6.827745438E-1
2.063217289E1,4.977488995E0,1.575527787E0,-3.860554695E-1
2.064131148E1,4.719406128E0,1.632642031E0,1.389677543E-2
2.065047559E1,4.430933475E0,1.284306407E0,2.973299026E-1
2.065962695E1,4.402834415E0,6.978929639E-1,4.446968138E-1
2.066876554E1,4.504540443E0,3.054236295E-4,4.440859556E-1
2.067792960E1,4.572802544E0,-5.847335458E-1,4.107947946E-1
2.068708096E1,4.410317421E0,-1.031262875E0,3.794888556E-1
2.069621955E1,4.237600327E0,-1.295912504E0,4.144598544E-1
2.070538367E1,4.187357903E0,-1.504211426E0,4.894413650E-1
2.071453502E1,4.188732147E0,-1.677539229E0,5.163186193E-1
2.072367361E1,4.076031208E0,-1.825517058E0,5.010474920E-1
2.073283773E1,3.864372492E0,-2.010145664E0,5.008947253E-1
2.074198908E1,3.620338917E0,-2.225163937E0,4.993676245E-1
2.075112768E1,3.383941174E0,-2.342293739E0,3.915531039E-1
2.076029179E1,3.138838530E0,-2.232341290E0,2.535016239E-1
2.076944315E1,2.842883110E0,-1.899887681E0,1.595838517E-1
2.077858174E1,2.504779100E0,-1.411820769E0,1.097997949E-1
2.078774585E1,2.108186483E0,-9.576557875E-1,9.513945878E-2
2.079689721E1,1.704722047E0,-6.377245188E-1,5.833591148E-2
2.080603580E1,1.282321095E0,-3.023693860E-1,3.359660041E-3
2.081519986E1,8.706100583E-1,9.284878522E-2,3.420744836E-2
2.082435122E1,5.651864409E-1,4.297310412E-1,1.649287641E-1
2.083348986E1,3.946073353E-1,6.662816405E-1,3.290939629E-1
2.084265393E1,3.067980409E-1,7.101099491E-1,4.659237564E-1
2.085180528E1,2.428117841E-1,5.355603099E-1,5.344913602E-1
2.086094388E1,1.659977436E-1,3.684936166E-1,5.352548957E-1
2.087010799E1,4.260659590E-2,4.043808877E-1,4.935645759E-1
2.087925934E1,-8.521319181E-2,5.812211633E-1,4.643966258E-1
2.088839794E1,-2.148655206E-1,6.809419990E-1,4.366030693E-1
2.089756205E1,-3.846810758E-1,5.453338623E-1,3.645231128E-1
2.090671341E1,-6.195518374E-1,3.054236174E-1,2.776300907E-1
2.091585200E1,-8.970292211E-1,1.933331639E-1,2.403683960E-1
2.092501611E1,-1.170230627E0,2.061609477E-1,2.530434728E-1
2.093416747E1,-1.444501042E0,1.835595965E-1,2.864873707E-1
2.094330606E1,-1.672041655E0,1.243074164E-1,2.990097404E-1
2.095247018E1,-1.708692551E0,1.511846930E-1,2.823641598E-1
2.096162153E1,-1.649134874E0,2.782409191E-1,3.747547865E-1
2.097076012E1,-1.725948930E0,4.582881629E-1,5.328115225E-1
2.097992424E1,-1.871177912E0,5.499152541E-1,6.009209752E-1
2.098907559E1,-1.950587988E0,7.217160463E-1,6.453601122E-1
2.099821419E1,-1.912257314E0,1.019198656E0,7.357655168E-1
2.100737830E1,-1.850714445E0,1.049741030E0,8.417475224E-1
2.101652966E1,-2.033052444E0,6.174138784E-1,8.475505710E-1
2.102566825E1,-2.222262383E0,3.452814221E-1,6.571189165E-1
2.103483236E1,-2.204242229E0,8.218950033E-1,3.417690396E-1
2.104398372E1,-2.021904469E0,1.027903199E0,8.399149776E-2
2.105312231E1,-1.896069884E0,9.778137207E-1,9.162709117E-3
2.106228638E1,-1.904010892E0,9.126058221E-1,1.380514801E-1
2.107143778E1,-1.965859175E0,1.290262103E0,2.845021188E-1
2.108057638E1,-1.919434786E0,1.632031202E0,2.651077211E-1
2.108974044E1,-1.745343328E0,1.116476059E0,2.641914487E-1
2.109889179E1,-1.654937983E0,7.551599145E-1,3.066453338E-1
2.110803039E1,-1.669445515E0,7.076665759E-1,3.382566571E-1
2.111719450E1,-1.637070656E0,5.384618640E-1,3.258870244E-1
2.112634585E1,-1.478555799E0,4.172086716E-1,2.568612695E-1
2.113548445E1,-1.300035715E0,4.912739098E-1,1.762294322E-1
2.114464856E1,-1.244295835E0,6.058077812E-1,1.398840249E-1
2.115379992E1,-1.284459114E0,8.472451568E-1,1.101052165E-1
2.116293851E1,-1.300188422E0,1.069898963E0,2.932066843E-2
2.117210262E1,-1.255138397E0,1.082268596E0,-4.550812021E-2
2.118125398E1,-1.245670319E0,9.544488192E-1,-8.078455180E-2
2.119039257E1,-1.258039951E0,8.367080092E-1,-1.192679256E-1
2.119955669E1,-1.239714503E0,6.594096422E-1,-1.641651988E-1
2.120870804E1,-1.215433359E0,4.953971207E-1,-2.011214644E-1
2.121785940E1,-1.210393786E0,5.050179958E-1,-2.286095917E-1
2.122701075E1,-1.217571259E0,5.471664071E-1,-2.141019702E-1
2.123616210E1,-1.216044188E0,5.544965863E-1,-1.774511337E-1
2.124531346E1,-1.166870952E0,4.347705245E-1,-1.519482583E-1
2.125446481E1,-1.130831003E0,4.023956358E-1,-1.485885978E-1
2.126361617E1,-1.133121610E0,3.573456407E-1,-1.174353883E-1
2.127276752E1,-1.153432369E0,3.417690396E-1,-8.399149776E-2
2.128191888E1,-1.179698825E0,3.689517379E-1,-5.726693198E-2
2.129107023E1,-1.212226391E0,3.429907262E-1,-2.092151903E-2
2.130022158E1,-1.248724461E0,3.425326049E-1,5.650337320E-3
2.130937294E1,-1.255901933E0,3.842229247E-1,2.764083818E-2
2.131852424E1,-1.288276911E0,4.005630910E-1,5.192201585E-2
2.132767565E1,-1.299272060E0,3.220692277E-1,4.810422286E-2
2.133682695E1,-1.260788798E0,2.425063550E-1,1.725643501E-2
2.134597830E1,-1.262773991E0,1.253764033E-1,-1.863084175E-2
2.135512966E1,-1.252084136E0,5.894676223E-2,-6.001574174E-2
2.136428101E1,-1.281862974E0,2.031067200E-2,-9.926267713E-2
2.137343236E1,-1.353026628E0,8.628217876E-2,-1.597365588E-1
2.138258372E1,-1.346918225E0,1.299577504E-1,-2.469350100E-1
2.139173507E1,-1.309656501E0,5.436540768E-2,-3.126010895E-1
2.140088643E1,-1.338671803E0,2.336490713E-2,-3.579564989E-1
2.141003778E1,-1.393648028E0,1.835595965E-1,-3.842229247E-1
2.141918914E1,-1.488634825E0,3.141281903E-1,-3.597890437E-1
2.142834049E1,-1.573848009E0,2.557922900E-1,-3.402419090E-1
2.143749184E1,-1.580719948E0,1.893626451E-1,-3.365768492E-1
2.144664320E1,-1.562700033E0,1.858502775E-1,-3.341334462E-1
2.145579455E1,-1.553842664E0,9.590301663E-2,-3.614688516E-1
2.146494591E1,-1.580567241E0,-1.221694518E-3,-3.956763148E-1
2.147409726E1,-1.641957402E0,-1.588202827E-2,-4.285093546E-1
2.148324861E1,-1.683647752E0,4.840964451E-2,-4.556920528E-1
2.149239997E1,-1.684563994E0,1.554606259E-1,-4.882196784E-1
2.150155132E1,-1.706707239E0,3.115321100E-1,-5.103628635E-1
2.151070268E1,-1.777412772E0,5.041016936E-1,-5.337277651E-1
2.151984127E1,-1.827654958E0,6.311579347E-1,-5.511369109E-1
2.152900538E1,-1.852699757E0,7.400414348E-1,-5.581616759E-1
2.153815674E1,-1.890266895E0,8.261709213E-1,-5.786250830E-1
2.154729533E1,-1.935927629E0,8.295305967E-1,-6.064186096E-1
2.155645945E1,-1.937760234E0,7.734853625E-1,-6.174138784E-1
2.156561080E1,-1.915464282E0,6.814001203E-1,-5.940489769E-1
2.157474940E1,-1.888586998E0,6.074876189E-1,-5.473191738E-1
2.158391351E1,-1.818797708E0,5.005893111E-1,-4.929537475E-1
2.159306486E1,-1.639666796E0,2.823641598E-1,-4.237752855E-1
2.160220346E1,-1.316223145E0,-7.650861889E-2,-3.602471650E-1
2.161136757E1,-8.554915786E-1,-5.193728805E-1,-2.229592502E-1
2.162051893E1,-2.796153426E-1,-9.542961121E-1,-6.826218218E-2
2.162965752E1,3.437542915E-1,-1.072495103E0,-4.306473210E-2
2.163882164E1,7.976137996E-1,-7.725690603E-1,1.053711493E-2
2.164797299E1,1.275296330E0,-4.002576768E-1,1.180462316E-1
2.165711158E1,1.710983157E0,-3.020639718E-1,6.856760383E-2
2.166627570E1,2.032747030E0,-8.941276670E-1,-1.388150454E-1
2.167542705E1,2.204089642E0,-1.732057452E0,-4.337015450E-1
2.168456565E1,2.351762056E0,-2.137049198E0,-6.784985662E-1
2.169372976E1,2.488897085E0,-1.894695520E0,-6.960604787E-1
2.170288111E1,2.621450901E0,-1.393800735E0,-5.567872524E-1
2.171201971E1,2.875868797E0,-1.241547108E0,-4.135435820E-1
2.172118382E1,3.265284061E0,-1.249182701E0,-3.636068404E-1
2.173033518E1,3.702039719E0,-8.593093753E-1,-3.883461356E-1
2.173947382E1,4.000438690E0,-3.223746419E-1,-3.487937748E-1
2.174863788E1,4.062745094E0,2.825168520E-2,-2.411319613E-1
2.175778924E1,4.000896931E0,2.612899244E-1,-9.452861547E-2
2.176692788E1,3.969132662E0,5.292991400E-1,1.496575773E-2
2.177609195E1,4.002729416E0,7.099572420E-1,1.438545287E-1
2.178524330E1,4.025941372E0,6.726955175E-1,2.863346636E-1
2.179438195E1,3.994482994E0,5.842754245E-1,3.332171738E-1
2.180354601E1,3.918432474E0,5.621321797E-1,4.224008918E-1
2.181269736E1,3.843909025E0,4.497362971E-1,5.190674663E-1
2.182183601E1,3.811228752E0,3.258870244E-1,6.197045445E-1
2.183100007E1,3.800080776E0,1.557660550E-1,7.162184119E-1
2.184015143E1,3.757321596E0,-1.913478971E-1,7.583668828E-1
2.184929007E1,3.638206244E0,-6.500942111E-1,7.432484031E-1
2.185845414E1,3.449759960E0,-1.120293856E0,6.554391384E-1
2.186760549E1,3.270018101E0,-1.590951681E0,5.531222224E-1
2.187674414E1,3.124636412E0,-2.037481070E0,4.395045936E-1
2.188590820E1,2.980323792E0,-2.332214832E0,3.318427801E-1
2.189505955E1,2.834789515E0,-2.470877171E0,2.325800955E-1
2.190419820E1,2.697501421E0,-2.610608578E0,1.676775664E-1
2.191336231E1,2.517454147E0,-2.699792147E0,8.704573661E-2
2.192251367E1,2.247307062E0,-2.563725948E0,-2.901524538E-3
2.193165226E1,1.941272616E0,-2.207143784E0,-8.047912270E-2
2.194081638E1,1.693268657E0,-1.695406556E0,-9.590301663E-2
2.194996773E1,1.464048147E0,-1.112352848E0,-4.489727318E-2
2.195910632E1,1.235133171E0,-6.284091473E-1,3.558185324E-2
2.196827044E1,1.039509296E0,-3.483356535E-1,9.437590092E-2
2.197742179E1,8.780929446E-1,-2.948864996E-1,9.880454093E-2
2.198656038E1,7.111788988E-1,-4.277457893E-1,7.146912813E-2
2.199572450E1,5.123481154E-1,-5.173876286E-1,5.971032009E-2
2.200487585E1,2.635805905E-1,-3.561239541E-1,8.353336155E-2
2.201401445E1,5.512896553E-2,-3.206948051E-3,1.256818175E-1
2.202317856E1,-8.108997345E-2,3.335226178E-1,1.550024897E-1
2.203232992E1,-1.910424829E-1,5.491516590E-1,1.510319859E-1
2.204148127E1,-3.190149665E-1,6.873558760E-1,1.127013192E-1
2.205063263E1,-4.944808483E-1,6.946860552E-1,5.405998230E-2
2.205978398E1,-7.099572420E-1,5.662553906E-1,-1.572931744E-2
2.206893533E1,-1.043632507E0,4.607315361E-1,-5.955760926E-2
2.207808669E1,-1.527270913E0,5.117372870E-1,-5.436540768E-2
2.208723804E1,-1.983573794E0,6.491779089E-1,-1.679829881E-2
2.209637664E1,-2.392077923E0,8.663341403E-1,6.688777357E-2
2.210554075E1,-2.712314606E0,1.008966923E0,1.475196183E-1
2.211469210E1,-2.563420534E0,1.347681761E0,2.447970361E-1
2.212383070E1,-2.304726601E0,2.087265015E0,4.885250926E-1
2.213299481E1,-1.962346792E0,2.983683348E0,7.583668828E-1
2.214214617E1,-1.764737725E0,2.835858345E0,1.085475564E0
2.215128476E1,-2.744231224E0,2.516690731E0,1.069593549E0
2.216044888E1,-3.087374687E0,1.927070379E0,5.131117105E-1
2.216960023E1,-2.054126501E0,1.302937150E0,-1.832541777E-3
2.217873882E1,-1.344322085E0,-6.678087711E-1,-3.678827584E-1
2.218790294E1,-1.435491085E0,-1.777412772E0,-3.701734245E-1
2.219705429E1,-1.375933409E0,-1.149920002E-1,-2.867927849E-1
2.220619288E1,-1.556133389E0,9.512419105E-1,-3.009949923E-1
2.221535700E1,-1.781535983E0,1.303242683E0,-2.008160353E-1
2.222450835E1,-1.779703498E0,1.658603072E0,8.658760041E-2
2.223364700E1,-1.685938478E0,1.528339863E0,3.437542915E-1
2.224281106E1,-1.546207070E0,1.237271070E0,4.059080184E-1
2.225196242E1,-1.444806457E0,8.327375054E-1,3.307738006E-1
2.226110106E1,-1.371810198E0,3.707842827E-1,1.831014603E-1
2.227026512E1,-1.264759302E0,1.322484314E-1,1.740914769E-2
2.227941648E1,-1.191152096E0,8.857285231E-2,-1.029277667E-1
2.228855513E1,-1.170688748E0,2.150182426E-1,-1.206423342E-1
2.229771924E1,-1.155570269E0,6.377245188E-1,-5.008947477E-2
2.230687054E1,-1.198176861E0,1.175422788E0,1.160609815E-2
2.231600919E1,-1.237729311E0,1.327676535E0,5.039489828E-3
2.232517330E1,-1.235438585E0,1.316681266E0,-6.933116168E-2
2.233432466E1,-1.211768270E0,1.299119353E0,-1.027750522E-1
2.234346325E1,-1.188403368E0,1.100899458E0,-9.147437662E-2
2.235262736E1,-1.125944257E0,9.179506898E-1,-5.497625470E-2
2.236177872E1,-1.108382344E0,4.378247857E-1,-1.954711229E-2
2.237091731E1,-1.079977989E0,1.653869003E-1,-3.817795217E-2
2.238008143E1,-1.025612593E0,-1.117850468E-1,-6.261184067E-2
2.238923278E1,-9.724688530E-1,-3.842229247E-1,-9.865183383E-2
2.239837138E1,-9.608627558E-1,-4.384356141E-1,-1.131594554E-1
2.240753549E1,-9.828532338E-1,-3.993414044E-1,-9.987352788E-2
2.241668684E1,-1.003163934E0,-2.666348219E-1,-1.007898003E-1
2.242582544E1,-1.019809484E0,-8.215895295E-2,-4.672981426E-2
2.243498955E1,-1.052642584E0,1.233911440E-1,-1.221694518E-3
2.244414091E1,-1.080894232E0,2.397575527E-1,1.252236869E-2
2.245329226E1,-1.117086887E0,3.651339412E-1,2.550287358E-2
2.246244361E1,-1.189930439E0,5.048652887E-1,5.604523420E-2
2.247159497E1,-1.240478039E0,5.741963983E-1,6.612421572E-2
2.248074632E1,-1.244601250E0,4.770717025E-1,5.757235363E-2
2.248989768E1,-1.258192658E0,3.474193811E-1,3.863608837E-2
2.249904908E1,-1.266286373E0,2.991624475E-1,2.214321308E-2
2.250820044E1,-1.293621778E0,1.928750277E-1,-9.773556143E-3
2.251735179E1,-1.350583315E0,1.082726792E-1,-5.100574717E-2
2.252650315E1,-1.404185176E0,4.550812021E-2,-7.024743408E-2
2.253565450E1,-1.396091461E0,-2.153236605E-2,-1.055238619E-1
2.254480585E1,-1.405101418E0,-9.330692142E-2,-1.360662282E-1
2.255395721E1,-1.471072912E0,-1.699682474E-1,-1.493521482E-1
2.256310856E1,-1.493674278E0,-1.911951900E-1,-1.580567211E-1
2.257225992E1,-1.471072912E0,-2.028012872E-1,-2.134911120E-1
2.258141127E1,-1.449998736E0,-2.608317733E-1,-2.785463631E-1
2.259054986E1,-1.423274159E0,-2.483094037E-1,-3.327590525E-1
2.259971398E1,-1.410140872E0,-1.762294322E-1,-3.865135908E-1
2.260886533E1,-1.403268814E0,-2.993151546E-2,-4.341596961E-1
2.261801669E1,-1.414111376E0,9.147437662E-2,-4.691306949E-1
2.262716804E1,-1.397007704E0,2.782409191E-1,-5.070032477E-1
2.263631940E1,-1.377155185E0,5.373928547E-1,-5.070032477E-1
2.264545804E1,-1.374864459E0,7.591304183E-1,-5.047125220E-1
2.265462210E1,-1.354401112E0,8.845068216E-1,-4.949389994E-1
2.266377351E1,-1.276976228E0,9.083298445E-1,-4.662291706E-1
2.267291210E1,-1.152057886E0,7.855495811E-1,-4.585935771E-1
2.268207622E1,-1.012021184E0,4.749337435E-1,-4.543176591E-1
2.269122757E1,-8.490777016E-1,1.070509851E-1,-4.431696832E-1
2.270036617E1,-6.200099587E-1,-2.226538211E-1,-4.126273096E-1
2.270953028E1,-3.151971996E-1,-4.908157587E-1,-3.687990308E-1
2.271868164E1,5.436540768E-2,-6.925480962E-1,-3.196258247E-1
2.272782023E1,5.112791657E-1,-7.850914598E-1,-3.083251417E-1
2.273698434E1,9.744541049E-1,-8.502993584E-1,-3.794888556E-1
2.274613570E1,1.277739763E0,-8.247964978E-1,-4.512633979E-1
2.275527429E1,1.581789017E0,-3.393256664E-1,-4.708105326E-1
2.276443841E1,1.864153147E0,1.252236813E-1,-5.925218463E-1
2.277358981E1,2.200119019E0,-3.347443044E-1,-7.840224504E-1
2.278272841E1,2.515316248E0,-1.480540991E0,-9.654440880E-1
2.279189252E1,2.709718466E0,-2.354357958E0,-1.084864736E0
2.280104388E1,2.702999115E0,-2.220735312E0,-1.093569279E0
2.281018247E1,2.738580942E0,-1.449082375E0,-1.030957460E0
2.281934658E1,2.996052980E0,-7.076665759E-1,-9.448279738E-1
2.282849794E1,3.468543530E0,-3.487937748E-1,-8.996253014E-1
2.283763653E1,4.008532524E0,-1.649287529E-2,-8.814526200E-1
2.284680065E1,4.387257576E0,5.138752460E-1,-7.350019813E-1
2.285595200E1,4.484076977E0,9.578084946E-1,-4.891359508E-1
2.286509059E1,4.446357250E0,1.052642584E0,-2.403683960E-1
2.287425471E1,4.447120667E0,1.064401388E0,-7.788302377E-3
2.288340606E1,4.453229427E0,1.056154966E0,1.688992679E-1
2.289255742E1,4.389853954E0,1.012784719E0,2.301367074E-1
2.290170877E1,4.362670898E0,8.916842937E-1,3.800997138E-1
2.291086018E1,4.353508472E0,6.830799580E-1,4.883723855E-1
2.291999877E1,4.362823963E0,4.989095032E-1,5.844281316E-1
2.292916288E1,4.298837662E0,4.107947648E-2,7.742488980E-1
2.293831424E1,4.152844906E0,-5.160132051E-1,9.237537384E-1
2.294745283E1,3.869717360E0,-1.062416077E0,9.454388618E-1
2.295661695E1,3.622935057E0,-1.636765242E0,8.860339522E-1
2.296576830E1,3.487021685E0,-2.116433144E0,7.571451664E-1
2.297490690E1,3.361950636E0,-2.402309656E0,6.221479177E-1
2.298407101E1,3.186026573E0,-2.537306786E0,5.343386531E-1
2.299322236E1,2.933135748E0,-2.556548595E0,4.642439187E-1
2.300236096E1,2.667569876E0,-2.466753960E0,4.103366435E-1
2.301152507E1,2.370087385E0,-2.193857908E0,3.561239541E-1
2.302067643E1,2.025416851E0,-1.687770963E0,3.399364948E-1
2.302981507E1,1.668681979E0,-1.083795786E0,3.521534503E-1
2.303897919E1,1.297897696E0,-6.192464232E-1,3.547495604E-1
2.304813054E1,9.269607067E-1,-3.648285270E-1,3.697153032E-1
2.305726914E1,5.996993184E-1,-1.869192570E-1,4.130854607E-1
2.306643325E1,3.642176688E-1,-7.070557028E-2,4.637857676E-1
2.307558460E1,2.163926363E-1,-8.047912270E-2,4.847072959E-1
2.308472320E1,1.125486046E-1,-1.969982386E-1,4.908157587E-1
2.309388731E1,1.420219894E-2,-2.344126403E-1,4.967715442E-1
2.310303867E1,-8.903098851E-2,-6.108472496E-2,5.216635466E-1
2.311217726E1,-2.304421216E-1,3.124483824E-1,5.467082858E-1
2.312134138E1,-4.443913698E-1,6.562026739E-1,5.491516590E-1
2.313049273E1,-6.986565590E-1,7.815790772E-1,5.178457499E-1
2.313963138E1,-9.385668039E-1,6.636855602E-1,4.869979918E-1
2.314879549E1,-1.105633497E0,3.837648034E-1,4.842491746E-1
2.315794684E1,-1.260025144E0,1.267508119E-1,4.857762754E-1
2.316708544E1,-1.583621502E0,1.299577504E-1,5.012001991E-1
2.317624955E1,-2.028165579E0,4.132381678E-1,5.253286362E-1
2.318540091E1,-2.135827541E0,6.972821355E-1,4.712686539E-1
2.319453950E1,-1.920198321E0,9.808679819E-1,4.926483035E-1
2.320370361E1,-2.056875467E0,1.260025144E0,7.412631512E-1
2.321285497E1,-2.418649673E0,1.200773001E0,1.019045949E0
2.322199361E1,-2.458965540E0,5.343386531E-1,1.019351363E0
2.323115768E1,-2.374974251E0,3.269560039E-1,9.735378027E-1
2.324030903E1,-2.035953999E0,1.574306130E0,6.899519563E-1
2.324944768E1,-2.045116663E0,1.411209822E0,2.680092454E-1
2.325861179E1,-2.103299856E0,2.058555335E-1,7.543963939E-2
2.326776315E1,-1.735417008E0,8.906152844E-1,1.215586066E-1
2.327690174E1,-1.814674497E0,8.423583508E-1,2.987042964E-1
2.328606585E1,-1.961125135E0,8.238802552E-1,4.204156399E-1
2.329521721E1,-1.938371062E0,9.643751383E-1,4.405735731E-1
2.330435580E1,-1.856822968E0,4.781406820E-1,4.074351192E-1
2.331351992E1,-1.745496035E0,4.535540938E-2,3.431434333E-1
2.332267127E1,-1.613858461E0,4.764608666E-2,2.562504113E-1
2.333180992E1,-1.464964390E0,9.407047927E-2,2.150182426E-1
2.334097398E1,-1.336228371E0,2.431172132E-1,2.047865391E-1
2.335012533E1,-1.231468081E0,5.288410187E-1,1.950129867E-1
2.335926398E1,-1.198024154E0,8.006680608E-1,1.852394342E-1
2.336842809E1,-1.167939901E0,1.027903199E0,1.670667231E-1
2.337757945E1,-1.136175871E0,1.276059866E0,1.646233350E-1
2.338671804E1,-1.160457134E0,1.432742238E0,1.759240031E-1
2.339588216E1,-1.214517117E0,1.497644782E0,1.583621502E-1
2.340503351E1,-1.240325332E0,1.369214177E0,1.223221645E-1
2.341418486E1,-1.189014196E0,1.087002754E0,5.925218388E-2
2.342333622E1,-1.134343386E0,9.391776323E-1,-2.382304333E-2
2.343248757E1,-1.094485521E0,9.739959836E-1,-5.283828825E-2
2.344162622E1,-1.061652541E0,9.452861547E-1,-1.175880991E-2
2.345079033E1,-1.038134933E0,6.985038519E-1,5.573981255E-2
2.345994169E1,-9.865183234E-1,2.535016090E-2,7.788302377E-3
2.346909304E1,-8.944330812E-1,-5.164713860E-1,-8.276980370E-2
2.347824440E1,-8.426637650E-1,-7.010999322E-1,-1.250709742E-1
2.348739575E1,-8.698465228E-1,-6.843016148E-1,-1.490467340E-1
2.349653434E1,-8.460234404E-1,-5.943543911E-1,-1.091889441E-1
2.350569846E1,-7.765395641E-1,-4.095730782E-1,-3.985778242E-2
2.351484981E1,-8.044858575E-1,-1.733279079E-1,-2.199050039E-2
2.352400117E1,-8.438854814E-1,2.122694254E-2,-2.718270384E-2
2.353315252E1,-8.415948153E-1,1.834068894E-1,-2.061609551E-2
2.354230393E1,-8.696937561E-1,4.088095427E-1,2.137965523E-3
2.355145528E1,-9.365815520E-1,6.503996253E-1,1.374406368E-2
2.356060664E1,-9.382613897E-1,8.664868474E-1,-3.451287001E-2
2.356975799E1,-8.921424150E-1,9.000834227E-1,-8.124268800E-2
2.357890934E1,-8.696937561E-1,7.351546884E-1,-7.681404054E-2
2.358806070E1,-9.025267959E-1,5.743491650E-1,-1.267508045E-2
2.359721205E1,-9.559759498E-1,4.853181541E-1,1.435491070E-2
2.360636341E1,-9.859074950E-1,4.430169761E-1,2.825168520E-2
2.361551476E1,-1.003927469E0,3.321481943E-1,2.275406010E-2
2.362466611E1,-1.061652541E0,1.698155403E-1,2.901524538E-3
2.363381752E1,-1.115559816E0,6.368082762E-2,-8.399149403E-3
2.364296888E1,-1.143353343E0,1.114796288E-2,-1.893626526E-2
2.365212023E1,-1.164733052E0,-7.513421029E-2,-4.230117425E-2
2.366125882E1,-1.180004239E0,-1.608055383E-1,-5.940489471E-2
2.367042294E1,-1.156333804E0,-2.434226274E-1,-7.742489129E-2
2.367957429E1,-1.099219680E0,-2.974826097E-1,-7.757759839E-2
2.368871288E1,-1.114796281E0,-2.739650011E-1,-5.635065958E-2
2.369787700E1,-1.150683522E0,-1.782146841E-1,-6.520794332E-2
2.370702835E1,-1.145796776E0,-2.702999115E-2,-1.038440317E-1
2.371617976E1,-1.107924223E0,1.047603041E-1,-1.415638477E-1
2.372533111E1,-1.109604001E0,3.058817685E-1,-1.714953631E-1
2.373448247E1,-1.177713513E0,4.937172830E-1,-1.997470558E-1
2.374363382E1,-1.227344871E0,6.981984377E-1,-2.643441558E-1
2.375278518E1,-1.211157441E0,9.234483242E-1,-3.376458287E-1
2.376193653E1,-1.202147365E0,9.014578462E-1,-3.686463237E-1
2.377107513E1,-1.243074179E0,8.616000414E-1,-3.787252903E-1
2.378023924E1,-1.317902923E0,8.869501948E-1,-3.775036037E-1
2.378939065E1,-1.359898686E0,8.145648241E-1,-3.507790267E-1
2.379854200E1,-1.363411069E0,7.050704360E-1,-3.067980409E-1
2.380769335E1,-1.364938259E0,5.913001299E-1,-2.964136302E-1
2.381684471E1,-1.360967636E0,4.923428893E-1,-3.243598938E-1
2.382598330E1,-1.358829737E0,4.330907166E-1,-3.816268146E-1
2.383514742E1,-1.324011445E0,4.417952895E-1,-4.553866386E-1
2.384429877E1,-1.205048919E0,4.472928941E-1,-4.953971207E-1
2.385343742E1,-9.797990322E-1,4.217900336E-1,-4.937172830E-1
2.386260153E1,-5.882459283E-1,3.804051280E-1,-4.451549351E-1
2.387175289E1,-5.253286287E-2,2.038702667E-1,-3.570402265E-1
2.388089148E1,6.426113248E-1,-1.679829955E-1,-3.206948042E-1
2.389005559E1,1.401130915E0,-5.121954083E-1,-4.036173224E-1
2.389920695E1,1.947228312E0,-3.518480062E-1,-4.463766217E-1
2.390834554E1,2.275253296E0,-2.211267054E-1,-5.722111464E-1
2.391750966E1,2.472862482E0,-3.495573401E-1,-8.657232523E-1
2.392666101E1,2.460645437E0,-1.472294569E0,-1.018893242E0
2.393579966E1,2.257538795E0,-3.002925158E0,-9.501729012E-1
2.394496377E1,2.430255890E0,-3.128912449E0,-1.305533290E0
2.395411512E1,3.184804916E0,-1.646691442E0,-1.668987393E0
2.396325372E1,3.825583696E0,-1.015533581E-1,-1.629435062E0
2.397241783E1,4.014640808E0,9.616262913E-1,-1.627755284E0
2.398156919E1,4.088706017E0,1.653716207E0,-1.486649513E0
2.399070783E1,4.222634315E0,1.956543803E0,-1.130525589E0
2.399987195E1,4.353202820E0,2.088181257E0,-6.355865598E-1
2.400902330E1,4.512786865E0,2.055500984E0,-1.240019947E-1
2.401816190E1,4.745825291E0,1.396244168E0,2.628170252E-1
2.402732601E1,4.806298733E0,3.118375242E-1,4.807367921E-1
2.403647736E1,4.728721142E0,-5.685460567E-1,6.690304875E-1
2.404561596E1,4.724140167E0,-1.181836724E0,7.220214605E-1
2.405478007E1,4.728721142E0,-1.346307397E0,5.700731874E-1
2.406393148E1,4.779421806E0,-1.254374862E0,4.928010404E-1
2.407307007E1,4.837605000E0,-1.449235082E0,5.561764240E-1
2.408223419E1,4.823402882E0,-1.799403310E0,5.526640415E-1
2.409138554E1,4.752086163E0,-1.975938201E0,4.301891923E-1
2.410052414E1,4.642439365E0,-2.271282911E0,2.896943092E-1
2.410968825E1,4.517368317E0,-2.661614180E0,2.049392611E-1
2.411883960E1,4.398711205E0,-2.958638668E0,1.560714692E-1
2.412797825E1,4.217595100E0,-3.021555901E0,1.432436854E-1
2.413714236E1,3.974324942E0,-2.785616159E0,1.805053651E-1
2.414629372E1,3.702039719E0,-2.397881031E0,1.910424829E-1
2.415543231E1,3.354620457E0,-1.967080832E0,1.528645307E-1
2.416459643E1,2.911756277E0,-1.640124917E0,1.262926757E-1
2.417374778E1,2.418344259E0,-1.342642307E0,1.452289373E-1
2.418288638E1,1.911493778E0,-1.061957955E0,1.652341783E-1
2.419205049E1,1.400214672E0,-8.939749599E-1,1.797417998E-1
2.420120190E1,8.703046441E-1,-7.061394453E-1,1.893626451E-1
2.421034049E1,3.639122546E-1,-5.369347334E-1,2.101314515E-1
2.421950460E1,-4.428642616E-2,-4.208737612E-1,3.151971996E-1
2.422865596E1,-2.186833173E-1,-2.331909388E-1,4.634803534E-1
2.423779455E1,-3.145863488E-2,3.329117596E-2,5.690042377E-1
2.424695867E1,4.618005157E-1,1.443126649E-1,5.528167486E-1
2.425611002E1,6.203153729E-1,1.276670843E-1,5.650337338E-1
2.426524867E1,2.800734639E-1,8.414421231E-2,6.658235192E-1
2.427441278E1,-5.818320066E-2,2.376195788E-1,7.379034758E-1
2.428356414E1,-2.695363462E-1,3.668137789E-1,7.569924593E-1
2.429270273E1,-7.186617851E-1,3.970507160E-2,6.675033569E-1
2.430186684E1,-1.305380583E0,-4.355340898E-1,6.287145615E-1
2.431101820E1,-1.628213406E0,-5.456393361E-1,7.982246280E-1
2.432015684E1,-1.708845258E0,-6.581879258E-1,8.814526200E-1
2.432932091E1,-1.667765737E0,-1.055696726E0,7.379034758E-1
2.433847231E1,-1.419914484E0,-1.098456025E0,6.540647149E-1
2.434761091E1,-1.038593054E0,-6.143596172E-1,7.101099491E-1
2.435677502E1,-7.272136807E-1,2.481566966E-1,8.021951914E-1
2.436592638E1,-6.071822047E-1,1.265980899E-1,7.805100679E-1
2.437506497E1,-6.041279435E-1,-2.441861928E-1,7.099572420E-1
2.438422908E1,-8.654178381E-1,6.978929639E-1,7.311841846E-1
2.439338044E1,-1.166565537E0,1.420525312E0,9.118422270E-1
2.440251908E1,-1.374711752E0,1.159693480E0,1.000873208E0
2.441168320E1,-1.561783671E0,9.350544214E-1,9.564340711E-1
2.442083455E1,-1.704874754E0,1.010799527E0,8.350282311E-1
2.442997315E1,-1.796501756E0,8.360971808E-1,7.001836896E-1
2.443913726E1,-1.903858185E0,5.241069198E-1,6.452074051E-1
2.444828861E1,-1.974563718E0,2.232646793E-1,6.223006248E-1
2.445742726E1,-1.998997688E0,1.644706279E-1,5.714476109E-1
2.446659138E1,-1.947075605E0,3.258870244E-1,5.021164417E-1
2.447574273E1,-2.029845476E0,4.863871336E-1,4.616478086E-1
2.448488132E1,-2.163010120E0,6.322268844E-1,4.819584787E-1
2.449404544E1,-2.170951128E0,7.258392572E-1,5.473191738E-1
2.450319679E1,-2.158886909E0,8.509102464E-1,6.529957056E-1
2.451234815E1,-2.203325987E0,1.026070714E0,7.576032877E-1
2.452149955E1,-2.249903202E0,1.222610831E0,8.292251825E-1
2.453065091E1,-2.292815208E0,1.463131905E0,8.707627654E-1
2.453978950E1,-2.348860502E0,1.656006932E0,8.953493834E-1
2.454895361E1,-2.393146753E0,1.780161619E0,9.113841057E-1
2.455810497E1,-2.368102074E0,1.876675487E0,8.999307156E-1
2.456724361E1,-2.339850426E0,1.912562728E0,8.353336453E-1
2.457640773E1,-2.321677685E0,1.782757759E0,7.537854910E-1
2.458555908E1,-2.247459888E0,1.520398855E0,6.804838181E-1
2.459469768E1,-2.148808002E0,1.182294846E0,6.180247068E-1
2.460386179E1,-2.050766945E0,8.718317747E-1,5.493044257E-1
2.461301315E1,-1.915006161E0,5.969504714E-1,4.935645759E-1
2.462216450E1,-1.841399074E0,3.268032968E-1,4.094203711E-1
2.463131585E1,-1.869192600E0,1.805053651E-1,2.927485406E-1
2.464046726E1,-1.868581772E0,2.313583940E-1,1.937913001E-1
2.464960585E1,-1.818797708E0,3.176405728E-1,1.794363856E-1
2.465876997E1,-1.819713950E0,3.877353072E-1,2.519744933E-1
2.466792132E1,-1.863847733E0,4.614951015E-1,3.481829464E-1
2.467707268E1,-1.872399569E0,5.493044257E-1,4.278984964E-1
2.468622408E1,-1.875148416E0,4.819584787E-1,4.811949134E-1
2.469537544E1,-1.890877724E0,3.597890437E-1,5.121954083E-1
2.470452679E1,-1.881714940E0,1.843231618E-1,4.898995161E-1
2.471367815E1,-1.841093659E0,5.039489828E-3,4.298837483E-1
2.472282950E1,-1.814063668E0,-6.032116711E-2,2.945810854E-1
2.473196809E1,-1.811162114E0,3.649812192E-2,1.333174109E-1
2.474113221E1,-1.798334360E0,3.170297146E-1,1.404948719E-2
2.475028361E1,-1.664711475E0,5.879405141E-1,-8.475505561E-2
2.475942221E1,-1.488482118E0,8.052493930E-1,-2.392994165E-1
2.476858632E1,-1.443737507E0,1.237423778E0,-3.547495604E-1
2.477773768E1,-1.422968745E0,1.336839199E0,-3.723114133E-1
2.478687627E1,-1.466491580E0,1.084559321E0,-3.235963285E-1
2.479604044E1,-1.529561520E0,5.838172436E-1,-2.846548259E-1
2.480519179E1,-1.502836943E0,1.189625040E-1,-3.709369898E-1
2.481433038E1,-1.508487344E0,-1.840177327E-1,-4.634803534E-1
2.482349450E1,-1.541320324E0,-3.145863414E-1,-3.982724249E-1
2.483264585E1,-1.508487344E0,-4.025483429E-1,-2.661767006E-1
2.484178450E1,-1.436560035E0,-4.459185004E-1,-1.433963925E-1
2.485094861E1,-1.410293579E0,-3.316900730E-1,-4.077405483E-2
2.486009997E1,-1.398382068E0,-1.476723254E-1,-9.620844387E-3
2.486923856E1,-1.360051394E0,-2.580829710E-2,-8.857285604E-3
2.487840268E1,-1.342642307E0,3.084778599E-2,-3.359660041E-3
2.488755403E1,-1.334548593E0,1.501157135E-1,7.635590620E-3
2.489669262E1,-1.353332043E0,2.417428046E-1,1.298050396E-2
2.490585674E1,-1.373031974E0,3.127537966E-1,1.343864016E-2
2.491500815E1,-1.365396380E0,4.213318825E-1,2.244863659E-2
2.492414674E1,-1.329661727E0,5.033381581E-1,-2.290677279E-3
2.493331085E1,-1.284611821E0,5.338805318E-1,-6.551336497E-2
2.494246221E1,-1.235133171E0,5.480827093E-1,-1.519482583E-1
2.495161356E1,-1.168856263E0,5.748072863E-1,-2.588465214E-1
2.496076497E1,-1.092653036E0,6.288672686E-1,-3.414636254E-1
2.496991632E1,-1.031262875E0,6.733064055E-1,-3.965925872E-1
2.497906768E1,-9.833113551E-1,7.021689415E-1,-4.249969721E-1
2.498821903E1,-9.426900148E-1,7.220214605E-1,-4.399627447E-1
2.499737038E1,-9.116895199E-1,7.841751575E-1,-4.593571424E-1
2.500652179E1,-8.754968047E-1,8.130376935E-1,-4.724903405E-1
2.501567315E1,-8.229639530E-1,7.849387527E-1,-4.727957845E-1
2.502482450E1,-7.692093849E-1,7.065975666E-1,-4.692834020E-1
2.503397585E1,-7.279772162E-1,6.513158679E-1,-4.732539058E-1
2.504312721E1,-7.056813240E-1,6.523848772E-1,-4.779879749E-1
2.505227861E1,-6.861341596E-1,7.415685654E-1,-4.889832437E-1
2.506142997E1,-6.778877378E-1,8.542698622E-1,-5.042544007E-1
2.507058132E1,-6.549809575E-1,9.361234307E-1,-5.218162537E-1
2.507973268E1,-6.050441861E-1,1.071884274E0,-5.251759291E-1
2.508887127E1,-5.613686442E-1,1.217723966E0,-5.323534012E-1
2.509803539E1,-5.010474920E-1,1.285986185E0,-5.131117105E-1
2.510718679E1,-3.917058110E-1,1.176033735E0,-4.969242513E-1
2.511632539E1,-2.490729690E-1,8.677085042E-1,-4.853181541E-1
2.512548950E1,-9.743013978E-2,5.016583204E-1,-4.637857676E-1
2.513464085E1,2.031067200E-2,2.139492482E-1,-4.352286756E-1
2.514377950E1,9.193251282E-2,2.748812735E-2,-3.680354655E-1
2.515294361E1,1.701209545E-1,-1.389677525E-1,-2.812951505E-1
2.516209497E1,2.385358512E-1,-3.115321100E-1,-2.067717910E-1
2.517123356E1,2.925958335E-1,-3.872771561E-1,-1.611109674E-1
2.518039768E1,3.487937748E-1,-3.220692277E-1,-1.705790907E-1
2.518954903E1,4.133908749E-1,-2.244863659E-1,-2.104368806E-1
2.519868768E1,4.304946065E-1,-1.035386100E-1,-2.684673667E-1
2.520785179E1,4.167505503E-1,2.153236605E-2,-3.364241421E-1
2.521700315E1,4.013266563E-1,1.924168915E-1,-3.884988427E-1
2.522615450E1,3.729222417E-1,4.810422063E-1,-3.938437700E-1
2.523530585E1,3.219164908E-1,7.960866690E-1,-3.657447994E-1
2.524445726E1,2.649549842E-1,1.016144395E0,-3.217637837E-1
2.525360861E1,2.121167034E-1,1.104717255E0,-2.880144715E-1
2.526275997E1,1.430909634E-1,1.037218690E0,-2.622061968E-1
2.527191132E1,4.031591862E-2,8.606837988E-1,-2.408265322E-1
2.528106268E1,-7.162184268E-2,6.195518374E-1,-2.377723008E-1
2.529021408E1,-1.772984117E-1,3.762819171E-1,-2.622061968E-1
2.529936544E1,-2.704526186E-1,2.150182426E-1,-3.096995652E-1
2.530851679E1,-3.405473530E-1,1.377460510E-1,-3.602471650E-1
2.531766815E1,-3.930802047E-1,1.127013192E-1,-4.069769979E-1
2.532681950E1,-4.437805414E-1,1.438545287E-1,-4.433223903E-1
2.533597091E1,-4.900522232E-1,2.269297540E-1,-4.462239146E-1
2.534512226E1,-5.146388412E-1,3.432961702E-1,-4.086568058E-1
2.535427361E1,-4.981459379E-1,4.501944184E-1,-3.352024257E-1
2.536342497E1,-4.349232614E-1,4.547757804E-1,-2.615953386E-1
2.537257632E1,-3.184041381E-1,3.492519259E-1,-2.118112892E-1
2.538172773E1,-8.124268800E-2,2.136438340E-1,-1.659977436E-1
2.539086632E1,2.283041626E-1,-4.474456236E-2,-7.330167294E-2
2.540003044E1,4.761554301E-1,-3.289412558E-1,4.459185153E-2
2.540918179E1,5.515950918E-1,-3.952181637E-1,1.466033459E-1
2.541832044E1,2.185306102E-1,-5.925218388E-2,2.063136548E-1
2.542748455E1,-4.344651103E-1,6.687250137E-1,1.931804419E-1
2.543663591E1,-1.108535051E0,1.402352571E0,5.787777901E-2
2.544577450E1,-1.504058719E0,1.829334855E0,-1.546970755E-1
2.545493861E1,-1.522842169E0,1.835595965E0,-3.888042867E-1
2.546408997E1,-1.279266834E0,1.556286097E0,-5.578562617E-1
2.547322861E1,-9.414683580E-1,1.236507535E0,-6.290199757E-1
2.548239273E1,-6.093201637E-1,9.546015263E-1,-6.021426916E-1
2.549154408E1,-3.313846290E-1,7.759287357E-1,-4.943281412E-1
2.550068273E1,-2.538070381E-1,7.163711190E-1,-3.436015844E-1
2.550984684E1,-4.824166298E-1,7.811209559E-1,-1.944021434E-1
2.551899820E1,-8.718317747E-1,9.695672989E-1,-6.169557199E-2
2.552813679E1,-1.174506545E0,1.220014691E0,1.664558798E-2
2.553730091E1,-1.281099439E0,1.387081385E0,7.192726433E-2
2.554645226E1,-1.220167398E0,1.359745979E0,1.591257155E-1
2.555559091E1,-1.066081166E0,1.028972149E0,2.776300907E-1
2.556475502E1,-8.579349518E-1,3.837648034E-1,3.663556576E-1
2.557390638E1,-6.510104537E-1,-3.816268146E-1,4.268295169E-1
2.558304497E1,-5.060869455E-1,-1.031568289E0,4.503471553E-1
2.559220908E1,-4.590517282E-1,-1.329356313E0,4.167505503E-1
2.560136049E1,-5.034908652E-1,-1.192984700E0,3.173351586E-1
2.561049908E1,-5.312843919E-1,-7.632536292E-1,1.679829955E-1
2.561966320E1,-5.297572613E-1,-2.551814318E-1,3.206948191E-2
2.562881455E1,-5.172349215E-1,1.873773932E-1,-5.986303091E-2
2.563795320E1,-4.898995161E-1,5.425850749E-1,-1.380514801E-1
2.564711731E1,-4.717268050E-1,7.050704360E-1,-2.235700935E-1
2.565626867E1,-4.472928941E-1,6.198572516E-1,-3.008422852E-1
2.566540726E1,-3.917058110E-1,4.118637741E-1,-3.382566571E-1
2.567457138E1,-3.293993771E-1,1.753131598E-1,-3.077143133E-1
2.568372278E1,-2.912214398E-1,-5.451811850E-2,-2.345653474E-1
2.569286138E1,-2.874036431E-1,-2.548760176E-1,-1.482831687E-1
2.570202549E1,-3.144336343E-1,-3.733803928E-1,-6.291726977E-2
2.571117684E1,-3.584146202E-1,-3.779617548E-1,1.068982668E-2
2.572031549E1,-3.985778391E-1,-3.272614181E-1,6.047387794E-2
2.572947960E1,-4.294256270E-1,-2.657185495E-1,8.215895295E-2
2.573863096E1,-4.495835900E-1,-1.965401024E-1,6.612421572E-2
2.574778231E1,-4.486673176E-1,-1.357607991E-1,1.893626526E-2
2.575693367E1,-4.492781460E-1,-6.001574174E-2,-3.054236248E-2
2.576608507E1,-4.521796703E-1,1.145338640E-2,-5.803048983E-2
2.577523643E1,-4.509579837E-1,8.399149403E-3,-6.230641901E-2
2.578438778E1,-4.511106908E-1,-5.421269313E-2,-5.680879578E-2
2.579353914E1,-4.518742561E-1,-1.072036922E-1,-4.520269856E-2
2.580269054E1,-4.645493329E-1,-1.299577504E-1,-3.481829539E-2
2.581184190E1,-4.921901822E-1,-1.546970755E-1,-3.008422814E-2
2.582099325E1,-5.367820263E-1,-2.031067163E-1,-2.977880463E-2
2.583014460E1,-5.807630420E-1,-2.476985604E-1,-3.374931216E-2
2.583929596E1,-6.195518374E-1,-2.519744933E-1,-3.756710514E-2
2.584844736E1,-6.531484127E-1,-2.008160353E-1,-4.398100078E-2
2.585759872E1,-6.754443645E-1,-1.075091213E-1,-5.528167635E-2
2.586675007E1,-6.855233312E-1,-1.969982497E-2,-7.192726433E-2
2.587590143E1,-6.704048514E-1,2.916795574E-2,-1.004843712E-1
2.588505283E1,-6.368082762E-1,2.000524849E-2,-1.411057115E-1
2.589420419E1,-5.807630420E-1,-3.619270027E-2,-1.780619770E-1
2.590335554E1,-5.004366040E-1,-1.084253863E-1,-2.090624720E-1
2.591250690E1,-4.216373265E-1,-1.644706279E-1,-2.286095917E-1
2.592165825E1,-3.675773442E-1,-2.035648525E-1,-2.470877171E-1
2.593080966E1,-3.266505599E-1,-2.307475507E-1,-2.589992285E-1
2.593996101E1,-2.744231224E-1,-2.727433145E-1,-2.403683960E-1
2.594911236E1,-2.316638231E-1,-3.231382072E-1,-2.040229887E-1
2.595826372E1,-1.969982386E-1,-3.602471650E-1,-1.609582454E-1
2.596741513E1,-1.606528312E-1,-3.787252903E-1,-1.276670843E-1
2.597656648E1,-1.151447073E-1,-3.804051280E-1,-9.987352788E-2
2.598571783E1,-6.734590977E-2,-3.633013964E-1,-7.391251624E-2
2.599486919E1,-2.886253223E-2,-3.234436214E-1,-5.115845799E-2
2.600402059E1,-1.068982761E-3,-2.672456801E-1,-3.756710514E-2
2.601317195E1,2.000524849E-2,-2.179197669E-1,-3.863608837E-2
2.602232330E1,3.451287001E-2,-1.876828223E-1,-4.657710344E-2
2.603147466E1,4.672981426E-2,-1.647760421E-1,-4.642439261E-2
2.604062606E1,5.894676223E-2,-1.580567211E-1,-4.153761268E-2
2.604977742E1,7.131642103E-2,-1.611109674E-1,-3.344388679E-2
2.605892877E1,7.742489129E-2,-1.537808031E-1,-2.428117767E-2
2.606808012E1,7.223268598E-2,-1.296523362E-1,-1.267508045E-2
2.607723148E1,5.955760926E-2,-1.036913246E-1,2.443389036E-3
2.608638289E1,4.642439261E-2,-9.162709117E-2,1.511846948E-2
2.609553424E1,3.038965166E-2,-9.040539712E-2,2.107422985E-2
2.610468559E1,1.557660475E-2,-9.177979827E-2,1.618745178E-2
2.611383695E1,8.399149403E-3,-1.049130186E-1,6.261184346E-3
2.612298835E1,1.053711493E-2,-1.333174109E-1,-5.803049076E-3
2.613213971E1,1.634016447E-2,-1.598892659E-1,-1.863084175E-2
2.614129106E1,2.076880634E-2,-1.702736765E-1,-3.145863488E-2
2.615044242E1,2.565558441E-2,-1.557660550E-1,-3.985778242E-2
2.615959382E1,2.535016090E-2,-1.172826737E-1,-4.306473210E-2
2.616874518E1,1.801999472E-2,-6.474980712E-2,-3.817795217E-2
2.617789653E1,2.748812549E-3,-1.664558798E-2,-2.550287358E-2
2.618704789E1,-1.664558798E-2,1.603474095E-2,-8.551862091E-3
2.619619929E1,-3.588727489E-2,2.626643144E-2,4.734066315E-3
2.620535065E1,-4.703523964E-2,1.542389300E-2,1.068982668E-2
2.621450200E1,-4.489727318E-2,-5.039489828E-3,1.389677543E-2
2.622365335E1,-3.176405653E-2,-2.733541466E-2,9.009997360E-3
2.623280471E1,-1.313321572E-2,-3.390202299E-2,4.275931045E-3
2.624195611E1,8.246437646E-3,-2.122694254E-2,7.635590737E-4
2.625110747E1,2.840439789E-2,1.068982761E-3,9.162708884E-4
2.626025882E1,4.245388508E-2,2.046338283E-2,2.137965523E-3
2.626941023E1,4.963133857E-2,2.825168520E-2,8.399149403E-3
2.627856158E1,5.085303262E-2,2.458660305E-2,1.328592747E-2
2.628771294E1,4.550812021E-2,1.740914769E-2,1.939439960E-2
2.629686429E1,3.252761811E-2,1.740914769E-2,2.473931387E-2
2.630601570E1,1.771457121E-2,2.229592577E-2,2.764083818E-2
2.631516705E1,7.788302377E-3,2.519745007E-2,3.008422814E-2
2.632431841E1,-9.162708884E-4,2.153236605E-2,2.932066843E-2
2.633346976E1,-2.596100792E-3,1.084253844E-2,2.626643144E-2
2.634262117E1,8.093725890E-3,-6.108472589E-3,2.031067200E-2
2.635177252E1,2.428117767E-2,-2.122694254E-2,1.557660475E-2
2.636092388E1,4.153761268E-2,-2.412846684E-2,1.511846948E-2
2.637007523E1,5.314370990E-2,-1.572931744E-2,1.756185852E-2
2.637922664E1,5.543438718E-2,6.108472589E-4,2.672456764E-2
2.638837799E1,5.100574717E-2,1.267508045E-2,4.016320780E-2
2.639752934E1,3.909422457E-2,1.511846948E-2,4.978405312E-2
2.640668070E1,2.137965336E-2,1.450762246E-2,5.955760926E-2
2.641583205E1,-8.399149403E-3,2.840439789E-2,6.780404598E-2
2.642498346E1,-3.756710514E-2,3.374931216E-2,6.887302548E-2
2.643413481E1,-4.520269856E-2,1.206423342E-2,5.711421743E-2
2.644328617E1,-3.084778599E-2,-7.941014133E-3,4.382828996E-2
2.645243757E1,-1.603474095E-2,6.108472589E-4,3.481829539E-2
2.646158893E1,-1.450762246E-2,3.252761811E-2,3.726168349E-2
2.647074028E1,-1.557660475E-2,7.101099193E-2,4.214845970E-2
2.647989164E1,-2.443389036E-2,9.697200358E-2,4.443913698E-2
2.648904304E1,-3.405473381E-2,8.002099395E-2,4.321744293E-2
2.649819440E1,-3.924693540E-2,4.459185153E-2,4.550812021E-2
2.650734575E1,-4.046862945E-2,3.726168349E-2,5.039490014E-2
2.651649710E1,-3.695625812E-2,4.871506989E-2,6.032116711E-2
2.652564851E1,-3.145863488E-2,4.459185153E-2,6.826218218E-2
2.653479986E1,-3.955236077E-2,4.825693369E-2,7.925742865E-2
2.654395122E1,-6.474980712E-2,4.291202128E-2,9.544488788E-2
2.655310257E1,-8.643488586E-2,3.741439432E-2,1.130067408E-1
2.656225398E1,-8.185353130E-2,6.108472496E-2,1.301104724E-1
2.657140533E1,-4.413371533E-2,5.146388337E-2,1.438545287E-1
2.658055669E1,1.068982668E-2,-1.832541823E-2,1.504211426E-1
2.658970804E1,7.925742865E-2,-9.712471068E-2,1.362189353E-1
2.659885945E1,1.484358907E-1,-1.682884246E-1,9.956810623E-2
2.660801080E1,1.925695986E-1,-1.960819662E-1,6.872031838E-2
2.661716216E1,1.904316396E-1,-1.569877416E-1,5.100574717E-2
2.662631356E1,1.514901221E-1,-7.391251624E-2,4.031591862E-2
2.663546492E1,1.078145429E-1,3.817795310E-3,3.268032894E-2
2.664461627E1,8.460234851E-2,4.474456236E-2,2.870982140E-2
2.665376762E1,6.047387794E-2,6.093201414E-2,2.733541466E-2
2.666291898E1,2.840439789E-2,5.894676223E-2,1.679829881E-2
2.667207038E1,8.399149403E-3,3.420744836E-2,6.872031838E-3
2.668122174E1,0.000000000E0,1.068982761E-3,5.039489828E-3
2.669037309E1,-4.581354442E-4,-1.817270555E-2,1.053711493E-2
2.669952450E1,1.374406368E-2,-2.244863659E-2,1.664558798E-2
2.670867585E1,3.909422457E-2,-2.962609194E-2,1.939439960E-2
2.671782721E1,6.245913357E-2,-2.473931387E-2,1.466033421E-2
2.672697856E1,7.589777559E-2,-1.206423342E-2,9.162709117E-3
2.673612997E1,7.345438004E-2,-0.000000000E0,9.162709117E-3
2.674528132E1,5.360184610E-2,9.009997360E-3,1.756185852E-2
2.675443268E1,4.367557913E-2,1.832541777E-3,2.794626169E-2
2.676358408E1,3.756710514E-2,-4.275931045E-3,2.901524492E-2
2.677273544E1,2.458660305E-2,-5.497625098E-3,2.351761982E-2
2.678188679E1,1.786728203E-2,-3.665083554E-3,1.298050396E-2
2.679103815E1,1.481304597E-2,1.435491070E-2,8.704573847E-3
2.680018955E1,1.267508045E-2,3.909422457E-2,9.315420873E-3
2.680934091E1,1.313321572E-2,4.810422286E-2,1.359135192E-2
2.681849226E1,2.687728032E-2,2.764083818E-2,1.618745178E-2
2.682764361E1,4.566083103E-2,4.123218823E-3,1.328592747E-2
2.683679502E1,4.932591692E-2,4.123218823E-3,1.389677543E-2
2.684594638E1,4.871506989E-2,-6.108472589E-4,1.511846948E-2
2.685509773E1,4.566083103E-2,-1.511846948E-2,1.450762246E-2
2.686424914E1,3.466558084E-2,-2.183778957E-2,1.496575773E-2
2.687340049E1,2.183778957E-2,-2.596100792E-2,1.496575773E-2
2.688255184E1,1.450762246E-2,-3.573456407E-2,1.236965694E-2
2.689170320E1,7.177455351E-3,-4.413371533E-2,5.039489828E-3
2.690085460E1,1.679830020E-3,-4.169032723E-2,-1.679830020E-3
2.691000596E1,-1.007897966E-2,-2.611372061E-2,1.832541777E-3
2.691915731E1,-1.710372418E-2,-1.588202827E-2,7.941014133E-3
2.692830872E1,-2.321219631E-2,-1.939439960E-2,1.160609815E-2
2.693746007E1,-2.183778957E-2,-2.977880463E-2,4.275931045E-3
2.694661143E1,-2.122694254E-2,-2.855710872E-2,-2.443389036E-3
2.695576278E1,-2.305948362E-2,-2.382304333E-2,-8.551862091E-3
2.696491419E1,-2.565558441E-2,-1.710372418E-2,-1.481304597E-2
2.697406554E1,-2.886253223E-2,-1.527118147E-3,-1.236965694E-2
2.698321690E1,-2.962609194E-2,8.704573847E-3,-1.114796288E-2
2.699236825E1,-2.962609194E-2,7.482878864E-3,-8.704573847E-3
2.700151966E1,-2.962609194E-2,7.482878864E-3,-7.482878864E-3
2.701067101E1,-2.840439789E-2,1.114796288E-2,-8.093725890E-3
2.701982236E1,-3.023693897E-2,1.603474095E-2,-8.093725890E-3
2.702897377E1,-3.894151375E-2,1.832541823E-2,-1.114796288E-2
2.703812512E1,-4.810422286E-2,2.199050039E-2,-1.679829881E-2
2.704727648E1,-5.497625470E-2,2.367033064E-2,-2.168507688E-2
2.705642783E1,-4.993676394E-2,1.954711229E-2,-2.046338283E-2
2.706557924E1,-4.306473210E-2,7.482878864E-3,-1.542389300E-2
2.707473059E1,-3.176405653E-2,-1.954711229E-2,-9.926267900E-3
2.708388195E1,-1.679829881E-2,-4.352286831E-2,-6.719320081E-3
2.709303335E1,-1.298050396E-2,-5.085303262E-2,-2.443389036E-3
2.710218471E1,-1.863084175E-2,-4.245388508E-2,0.000000000E0
2.711133606E1,-2.550287358E-2,-3.161134571E-2,-1.832541777E-3
2.712048742E1,-3.237490356E-2,-2.443389036E-2,-3.817795310E-3
2.712963882E1,-3.985778242E-2,-2.076880634E-2,-6.872031838E-3
2.713879018E1,-4.902049154E-2,-1.542389300E-2,-9.468132630E-3
2.714794153E1,-5.405998230E-2,-1.725643501E-2,-1.191152167E-2
2.715709294E1,-5.696150661E-2,-2.199050039E-2,-1.313321572E-2
2.716624429E1,-5.696150661E-2,-1.847812906E-2,-1.374406368E-2
2.717539565E1,-6.016845629E-2,-1.420219894E-2,-1.130067464E-2
2.718454705E1,-5.390727147E-2,-2.076880634E-2,-1.068982668E-2
2.719369841E1,-4.520269856E-2,-3.222219273E-2,-1.359135192E-2
2.720284976E1,-4.092676565E-2,-3.649812192E-2,-1.786728203E-2
2.721200111E1,-4.031591862E-2,-3.527642787E-2,-1.969982497E-2
2.722115252E1,-3.344388679E-2,-3.222219273E-2,-1.664558798E-2
2.723030388E1,-3.359659761E-2,-2.687728032E-2,-1.236965694E-2
2.723945523E1,-3.603998944E-2,-1.954711229E-2,-9.926267900E-3
2.724860658E1,-3.802524135E-2,-1.832541823E-2,-8.093725890E-3
2.725775799E1,-3.833066672E-2,-3.527642787E-2,-1.359135192E-2
2.726690934E1,-3.817795217E-2,-5.512896553E-2,-2.275406010E-2
2.727606070E1,-4.001049697E-2,-6.123743951E-2,-3.069507517E-2
2.728521210E1,-4.184303805E-2,-5.222744122E-2,-3.069507517E-2
2.729436346E1,-4.566083103E-2,-3.466558084E-2,-2.947338112E-2
2.730351481E1,-4.657710344E-2,-1.298050396E-2,-2.702999115E-2
2.731266622E1,-4.611896724E-2,-2.137965523E-3,-2.702999115E-2
2.732181757E1,-4.046862945E-2,-5.192201585E-3,-2.519745007E-2
2.733096893E1,-3.863608837E-2,-1.359135192E-2,-2.214321308E-2
2.734012028E1,-3.481829539E-2,-2.199050039E-2,-1.481304597E-2
2.734927169E1,-3.222219273E-2,-3.756710514E-2,-8.704573847E-3
2.735842304E1,-2.779355086E-2,-4.734066129E-2,-9.773556143E-3
2.736757440E1,-2.351761982E-2,-4.917320609E-2,-1.954711229E-2
2.737672580E1,-1.863084175E-2,-3.649812192E-2,-2.626643144E-2
2.738587716E1,-1.756185852E-2,-1.832541823E-2,-2.870982140E-2
2.739502851E1,-1.450762246E-2,-8.704573847E-3,-2.870982140E-2
2.740417992E1,-1.649287529E-2,-8.093725890E-3,-2.504473738E-2
2.741333127E1,-1.466033421E-2,-8.704573847E-3,-2.076880634E-2
2.742248262E1,-9.620844387E-3,-1.114796288E-2,-1.649287529E-2
2.743163398E1,-1.328592747E-2,-1.175880991E-2,-1.404948719E-2
2.744078538E1,-1.954711229E-2,-1.236965694E-2,-1.038440317E-2
2.744993674E1,-2.443389036E-2,-1.466033421E-2,-8.551862091E-3
2.745908809E1,-2.993151546E-2,-1.298050396E-2,-1.298050396E-2
2.746823950E1,-2.947338112E-2,-7.482878864E-3,-1.542389300E-2
2.747739085E1,-2.886253223E-2,-3.359660041E-3,-1.725643501E-2
2.748654221E1,-2.260134928E-2,-5.650337320E-3,-1.404948719E-2
2.749569361E1,-2.748812549E-3,-2.122694254E-2,-1.023169141E-2
2.750484497E1,2.015795931E-2,-3.695625812E-2,-8.857285604E-3
2.751399632E1,2.993151546E-2,-3.634541109E-2,-7.024743594E-3
2.752314768E1,3.787253052E-2,-3.084778599E-2,-1.985253533E-3
2.753229908E1,4.459185153E-2,-2.473931387E-2,4.123218823E-3
2.754145044E1,4.520269856E-2,-1.145338640E-2,1.328592747E-2
2.755060179E1,3.451287001E-2,4.734066315E-3,1.557660475E-2
2.755975320E1,2.458660305E-2,1.557660475E-2,1.496575773E-2
2.756890455E1,1.710372418E-2,2.275406010E-2,1.236965694E-2
2.757805591E1,1.160609815E-2,1.679829881E-2,6.872031838E-3
2.758720731E1,9.315420873E-3,2.748812549E-3,-2.290677279E-3
2.759635867E1,5.039489828E-3,9.162708884E-4,-1.084253844E-2
2.760551002E1,3.665083554E-3,1.236965694E-2,-1.634016447E-2
2.761466138E1,4.123218823E-3,2.626643144E-2,-1.511846948E-2
2.762381278E1,6.566607859E-3,3.344388679E-2,-1.206423342E-2
2.763296414E1,8.399149403E-3,2.809897438E-2,-6.566607859E-3
2.764211549E1,9.620844387E-3,2.565558441E-2,1.374406274E-3
2.765126690E1,9.009997360E-3,2.153236605E-2,6.872031838E-3
2.766041825E1,9.162709117E-3,1.130067464E-2,5.039489828E-3