"Time (s)","Gyroscope x (rad/s)","Gyroscope y (rad/s)","Gyroscope z (rad/s)"
6.761372859E0,-9.622371197E-1,8.597674966E-2,-2.875563502E-1
6.770525672E0,-8.199097514E-1,1.489703774E0,-6.155813336E-1
6.779665672E0,-6.872031689E-1,2.146364450E0,-7.000309825E-1
6.788831244E0,-5.835118294E-1,2.439723969E0,-7.685985565E-1
6.797984057E0,-6.157340407E-1,2.171561956E0,-7.826480269E-1
6.807124109E0,-6.847597957E-1,1.858960867E0,-7.029324770E-1
6.816289630E0,-7.001836896E-1,1.523911238E0,-5.593833923E-1
6.825442442E0,-6.722373962E-1,1.137550354E0,-4.133908749E-1
6.834582494E0,-6.195518374E-1,7.348492742E-1,-3.321481943E-1
6.843748067E0,-5.586197972E-1,3.717005551E-1,-3.022166789E-1
6.852900828E0,-4.932591617E-1,8.200624585E-2,-2.648022771E-1
6.862053640E0,-4.268295169E-1,-8.750387281E-2,-1.878355294E-1
6.871206453E0,-3.787252903E-1,-1.256818175E-1,-1.142284349E-1
6.880359265E0,-3.698680103E-1,-3.802524135E-2,-6.841489673E-2
6.889499317E0,-3.991886973E-1,1.386623234E-1,-3.451287001E-2
6.898664838E0,-4.260659516E-1,3.603998721E-1,-1.527118147E-4
6.907817651E0,-4.249969721E-1,5.667135715E-1,3.695625812E-2
6.916957703E0,-3.910949528E-1,7.143858671E-1,5.665608495E-2
6.926123276E0,-3.633013964E-1,7.722636461E-1,5.008947477E-2
6.935276088E0,-3.747547865E-1,7.672241330E-1,1.221694518E-2
6.944428849E0,-4.320217371E-1,7.266027927E-1,-5.238015205E-2
6.953581661E0,-5.132644176E-1,6.707102656E-1,-1.285833418E-1
6.962734474E0,-5.877877474E-1,6.227588058E-1,-1.980672181E-1
6.971887286E0,-6.421532035E-1,5.995466113E-1,-2.466295809E-1
6.981040099E0,-6.814001203E-1,5.807630420E-1,-2.780882120E-1
6.990192859E0,-7.044596076E-1,5.624375939E-1,-3.026748300E-1
6.999345672E0,-7.142331600E-1,5.497625470E-1,-3.168770075E-1
7.008498484E0,-7.085828185E-1,5.364766121E-1,-3.197785318E-1
7.017651297E0,-6.977402568E-1,5.076140761E-1,-3.226800561E-1
7.026804057E0,-6.836907864E-1,4.515688419E-1,-3.225273490E-1
7.035956869E0,-6.749862432E-1,3.607053161E-1,-3.176405728E-1
7.045109682E0,-6.696413159E-1,2.449497581E-1,-3.101576865E-1
7.054262494E0,-6.612421870E-1,1.299577504E-1,-3.112266660E-1
7.063415307E0,-6.337540150E-1,1.771457121E-2,-3.139754832E-1
7.072568067E0,-5.761816502E-1,-8.704573661E-2,-3.092414141E-1
7.081720880E0,-5.137225389E-1,-1.747023165E-1,-2.916795611E-1
7.090873692E0,-4.805840850E-1,-2.463241518E-1,-2.681619525E-1
7.100026505E0,-4.961606860E-1,-3.101576865E-1,-2.480039895E-1
7.109179317E0,-5.251759291E-1,-3.758237660E-1,-2.359397560E-1
7.118332078E0,-5.225798488E-1,-4.607315361E-1,-2.163926363E-1
7.127484890E0,-4.619532526E-1,-5.810684562E-1,-1.780619770E-1
7.136637703E0,-3.631486893E-1,-6.998782754E-1,-1.259872466E-1
7.145790515E0,-2.648022771E-1,-7.682931423E-1,-6.230641901E-2
7.154943328E0,-1.750077456E-1,-7.776085734E-1,2.443389036E-3
7.164096088E0,-7.116370648E-2,-7.554653287E-1,5.268557742E-2
7.173248901E0,5.894676223E-2,-7.087355256E-1,8.353336155E-2
7.182401713E0,2.061609477E-1,-6.343649030E-1,9.788827598E-2
7.191541765E0,3.605526090E-1,-5.399889946E-1,1.068982705E-1
7.200707338E0,5.161659122E-1,-4.385883212E-1,1.127013192E-1
7.209860151E0,6.638382673E-1,-3.419217467E-1,1.241547018E-1
7.219012911E0,8.017370105E-1,-2.512109280E-1,1.366770715E-1
7.228165724E0,9.039012194E-1,-1.684411317E-1,1.360662282E-1
7.237318536E0,9.698727131E-1,-9.376505762E-2,1.236965731E-1
7.246471349E0,9.909469485E-1,-2.993151546E-2,9.987352788E-2
7.255624109E0,9.630007148E-1,1.939439960E-2,7.162184268E-2
7.264776922E0,8.904625773E-1,6.612421572E-2,5.268557742E-2
7.273929734E0,7.748597264E-1,1.099525094E-1,3.665083647E-2
7.283082547E0,6.447492838E-1,1.404948682E-1,1.618745178E-2
7.292235359E0,5.190674663E-1,1.359135211E-1,-7.330167107E-3
7.301388119E0,4.111002088E-1,8.979454637E-2,-2.764083818E-2
7.310540932E0,3.342861533E-1,1.068982761E-3,-3.848337755E-2
7.319693744E0,2.921377122E-1,-1.165191159E-1,-3.924693540E-2
7.328846557E0,2.832804024E-1,-2.405211031E-1,-2.458660305E-2
7.337999369E0,3.083251417E-1,-3.567348123E-1,2.596100792E-3
7.347152182E0,3.539859951E-1,-4.547757804E-1,4.504998401E-2
7.356304942E0,4.092676640E-1,-5.328115225E-1,9.620844573E-2
7.365457755E0,4.662291706E-1,-5.867187977E-1,1.498102844E-1
7.374610567E0,5.222744346E-1,-6.080984473E-1,1.983726472E-1
7.383763380E0,5.799994469E-1,-5.952706337E-1,2.385358512E-1
7.392916140E0,6.511631608E-1,-5.738909841E-1,2.701472044E-1
7.402068953E0,7.415685654E-1,-5.645755529E-1,2.970244884E-1
7.411221765E0,8.451071978E-1,-5.799994469E-1,3.203893900E-1
7.420374578E0,9.607100487E-1,-6.189410090E-1,3.358132839E-1
7.429527390E0,1.085628271E0,-6.812474132E-1,3.520007432E-1
7.438680203E0,1.215586066E0,-7.455390692E-1,3.756710589E-1
7.447832963E0,1.340351582E0,-7.861604095E-1,4.100312293E-1
7.456985776E0,1.454274654E0,-7.864658237E-1,4.500417113E-1
7.466138588E0,1.575985909E0,-7.667660117E-1,4.856235683E-1
7.475291401E0,1.721367598E0,-7.670714259E-1,5.147915483E-1
7.484444213E0,1.891183138E0,-8.046385646E-1,5.276193023E-1
7.493596974E0,2.072452068E0,-8.893936276E-1,5.227325559E-1
7.502749786E0,2.245321751E0,-9.904888272E-1,5.039489865E-1
7.511902599E0,2.402615070E0,-1.056613088E0,4.685198367E-1
7.521055411E0,2.520050287E0,-1.060278177E0,4.143071473E-1
7.530208224E0,2.586327314E0,-1.008508801E0,3.616215885E-1
7.539360984E0,2.605721712E0,-9.429954290E-1,3.196258247E-1
7.548501088E0,2.582509518E0,-8.828269839E-1,2.864873707E-1
7.557666609E0,2.529518604E0,-8.072346449E-1,2.512109280E-1
7.566819422E0,2.451941013E0,-7.290462255E-1,2.267770469E-1
7.575959474E0,2.351914644E0,-6.377245188E-1,2.052446753E-1
7.585125047E0,2.218444586E0,-5.257867575E-1,1.998997629E-1
7.594277807E0,2.071535826E0,-4.230117202E-1,2.141019702E-1
7.603430619E0,1.928292036E0,-3.526115716E-1,2.478512824E-1
7.612583432E0,1.800319552E0,-3.356605768E-1,2.976353168E-1
7.621736244E0,1.690367103E0,-3.326063454E-1,3.529170156E-1
7.630876297E0,1.613400340E0,-3.579564989E-1,3.799470067E-1
7.640041817E0,1.582705259E0,-4.352286756E-1,3.975088596E-1
7.649194630E0,1.572626233E0,-5.543438792E-1,4.085040987E-1
7.658347442E0,1.564685225E0,-6.502469182E-1,4.103366435E-1
7.667500255E0,1.551399350E0,-7.412631512E-1,4.097257853E-1
7.676653067E0,1.541167617E0,-8.365553021E-1,3.987305462E-1
7.685805880E0,1.529866934E0,-9.341381788E-1,3.852919042E-1
7.694958640E0,1.525285602E0,-1.051726222E0,3.755183518E-1
7.704111453E0,1.523758531E0,-1.161373377E0,3.866663277E-1
7.713251505E0,1.505738497E0,-1.225817680E0,4.030064642E-1
7.722417078E0,1.468629479E0,-1.217418551E0,4.175141156E-1
7.731569890E0,1.428313613E0,-1.132510781E0,4.268295169E-1
7.740709942E0,1.397465825E0,-9.909469485E-1,4.246915579E-1
7.749875463E0,1.374711752E0,-8.391514421E-1,4.030064642E-1
7.759028276E0,1.350888729E0,-6.983511448E-1,3.686463237E-1
7.768181088E0,1.330119848E0,-5.737382770E-1,3.268032968E-1
7.777333901E0,1.320193648E0,-4.709632397E-1,2.802261710E-1
7.786486713E0,1.309656501E0,-3.782671690E-1,2.391466945E-1
7.795639474E0,1.300035715E0,-3.223746419E-1,2.092151791E-1
7.804792286E0,1.289040446E0,-3.274141252E-1,1.925695986E-1
7.813945099E0,1.257276416E0,-3.497100472E-1,1.753131598E-1
7.823097911E0,1.199704051E0,-3.836120665E-1,1.548497826E-1
7.832250724E0,1.147018433E0,-4.042281806E-1,1.397313178E-1
7.841403536E0,1.098456025E0,-4.201101959E-1,1.217113137E-1
7.850556297E0,1.055085897E0,-4.456130862E-1,1.018587798E-1
7.859709109E0,1.009272337E0,-4.789042473E-1,6.933116168E-2
7.868861922E0,9.741486907E-1,-5.320479870E-1,2.993151546E-2
7.878014734E0,9.445225596E-1,-5.792359114E-1,3.512371797E-3
7.887167547E0,9.052756429E-1,-6.016845703E-1,-5.192201585E-3
7.896320307E0,8.455653191E-1,-6.041279435E-1,-1.236965694E-2
7.905473119E0,7.803573608E-1,-6.126797795E-1,-1.954711229E-2
7.914625932E0,7.249229550E-1,-6.236750484E-1,-2.428117767E-2
7.923778744E0,6.682668924E-1,-6.281036735E-1,-2.886253223E-2
7.932931557E0,6.145123243E-1,-6.215370893E-1,-1.710372418E-2
7.942084369E0,5.441122055E-1,-6.154286265E-1,-6.108472589E-4
7.951237130E0,4.459185004E-1,-5.963396430E-1,8.551862091E-3
7.960389942E0,3.431434333E-1,-5.416688323E-1,7.788302377E-3
7.969542755E0,2.536543310E-1,-4.544703662E-1,3.970507067E-3
7.978695567E0,1.776038408E-1,-3.539859951E-1,-2.748812549E-3
7.987848380E0,1.230857223E-1,-2.588465214E-1,-1.832541777E-3
7.997001192E0,8.108997345E-2,-1.925695986E-1,1.114796288E-2
8.006153953E0,3.145863488E-2,-1.594311297E-1,2.977880463E-2
8.015306765E0,-2.367033064E-2,-1.305686086E-1,4.337015375E-2
8.024459578E0,-7.650861889E-2,-9.620844573E-2,5.955760926E-2
8.033612390E0,-1.188097894E-1,-5.405998230E-2,7.864658535E-2
8.042765203E0,-1.586675793E-1,-1.908897609E-2,1.003316641E-1
8.051918015E0,-1.983726472E-1,-1.603474095E-2,1.336228400E-1
8.061070776E0,-2.356343269E-1,-5.085303262E-2,1.707318127E-1
8.070223588E0,-2.835858464E-1,-8.582404256E-2,2.009687424E-1
8.079376401E0,-3.472666740E-1,-8.032641560E-2,2.199050188E-1
8.088529213E0,-4.202629030E-1,-3.939964995E-2,2.322746664E-1
8.097682026E0,-4.874561131E-1,1.710372418E-2,2.438807636E-1
8.106834786E0,-5.441122055E-1,7.437065244E-2,2.545706034E-1
8.115987599E0,-5.957288146E-1,1.255291104E-1,2.687727809E-1
8.125140411E0,-6.511631608E-1,1.756185889E-1,2.848075330E-1
8.134293224E0,-6.835380793E-1,2.038702667E-1,2.912214398E-1
8.143446036E0,-6.439857483E-1,2.009687424E-1,2.945810854E-1
8.152586088E0,-5.464028716E-1,1.786728203E-1,2.843494117E-1
8.161751661E0,-4.205683470E-1,1.704263836E-1,2.663294077E-1
8.170904422E0,-2.996205688E-1,1.156028435E-1,2.244863659E-1
8.180044474E0,-2.241809368E-1,-2.260134928E-2,1.511846930E-1
8.189210047E0,-1.644706279E-1,-2.432699203E-1,6.749862432E-2
8.198362859E0,-6.322269142E-2,-4.572191834E-1,1.404948719E-2
8.207515672E0,9.590301663E-2,-5.233433843E-1,-8.704573847E-3
8.216668432E0,2.538070381E-1,-3.220692277E-1,-3.329117596E-2
8.225821244E0,3.255815804E-1,7.452336699E-2,-4.352286831E-2
8.234961297E0,1.904316396E-1,4.312581718E-1,-2.580829710E-2
8.244126869E0,-1.685938388E-1,4.723376334E-1,-1.359135192E-2
8.253279682E0,-5.483881235E-1,2.541124523E-1,-3.970507067E-3
8.262432494E0,-7.696675658E-1,-2.031067200E-2,1.725643501E-2
8.271585307E0,-8.666395545E-1,-1.487413049E-1,4.902049154E-2
8.280738067E0,-9.274188280E-1,-7.513421029E-2,9.620844573E-2
8.289878119E0,-9.660549164E-1,1.684411317E-1,1.513374150E-1
8.299043692E0,-9.730796814E-1,5.296045542E-1,1.650814712E-1
8.308196505E0,-9.373451471E-1,7.757760286E-1,9.865183383E-2
8.317336557E0,-8.980981708E-1,7.049177289E-1,8.551862091E-3
8.326502130E0,-8.926005363E-1,4.511106908E-1,-4.871506989E-2
8.335654890E0,-8.929060102E-1,1.991362125E-1,-4.428642616E-2
8.344794942E0,-9.205468297E-1,9.391776472E-2,3.069507517E-2
8.353960515E0,-1.031110168E0,2.840439677E-1,1.311794519E-1
8.363113328E0,-1.163816690E0,6.131379604E-1,2.246390730E-1
8.372266140E0,-1.253611326E0,8.145648241E-1,2.959555089E-1
8.381418953E0,-1.307518601E0,8.936695457E-1,3.541387022E-1
8.390571765E0,-1.379751205E0,8.913788795E-1,3.932329118E-1
8.399711817E0,-1.449387789E0,8.779402375E-1,4.155288339E-1
8.408877338E0,-1.485275149E0,8.822161555E-1,4.201101959E-1
8.418030151E0,-1.470309377E0,8.110524416E-1,3.994941115E-1
8.427170203E0,-1.404643297E0,6.404733658E-1,3.756710589E-1
8.436335776E0,-1.324316859E0,4.291202128E-1,3.585673273E-1
8.445488588E0,-1.276365399E0,2.399102598E-1,3.432961702E-1
8.454641349E0,-1.230857253E0,-2.412846684E-2,3.174878657E-1
8.463794161E0,-1.188556075E0,-2.435753495E-1,2.739650011E-1
8.472946974E0,-1.145185947E0,-3.733803928E-1,2.084516287E-1
8.482099786E0,-1.109604001E0,-4.639385045E-1,1.348445266E-1
8.491252599E0,-1.071731567E0,-4.599680007E-1,6.795676053E-2
8.500405411E0,-1.057376623E0,-3.758237660E-1,1.374406274E-3
8.509545463E0,-1.073869467E0,-2.344126403E-1,-6.230641901E-2
8.518710984E0,-1.112810969E0,-4.611896724E-2,-1.188097894E-1
8.527863797E0,-1.175422788E0,1.566823274E-1,-1.688992679E-1
8.537016609E0,-1.227650285E0,3.787252903E-1,-2.298312783E-1
8.546169422E0,-1.246891975E0,6.273401380E-1,-3.028275371E-1
8.555322234E0,-1.278961420E0,9.236010313E-1,-3.468085229E-1
8.564475047E0,-1.315459609E0,1.209782958E0,-3.405473530E-1
8.573627859E0,-1.333174109E0,1.402505279E0,-3.309265077E-1
8.582780619E0,-1.311183691E0,1.496575832E0,-3.272614181E-1
8.591933432E0,-1.265522838E0,1.554606318E0,-3.257342875E-1
8.601086244E0,-1.238187432E0,1.598587275E0,-3.206948042E-1
8.610239057E0,-1.238492846E0,1.628824234E0,-3.243598938E-1
8.619391869E0,-1.238340139E0,1.619661450E0,-3.439069986E-1
8.628544682E0,-1.219861984E0,1.582857966E0,-3.657447994E-1
8.637697442E0,-1.211615562E0,1.559951186E0,-3.735330999E-1
8.646850255E0,-1.198634982E0,1.561020136E0,-3.930802047E-1
8.656003067E0,-1.191763043E0,1.562241912E0,-4.075878263E-1
8.665155880E0,-1.205812454E0,1.533379316E0,-3.851391971E-1
8.674308692E0,-1.196191669E0,1.467255116E0,-3.405473530E-1
8.683461505E0,-1.148698330E0,1.378834963E0,-3.106158376E-1
8.692614317E0,-1.088224411E0,1.300646544E0,-2.985515893E-1
8.701767078E0,-1.016144395E0,1.241699815E0,-3.127537966E-1
8.710919890E0,-9.437590241E-1,1.217571259E0,-3.410054743E-1
8.720072703E0,-9.121476412E-1,1.198940516E0,-3.345915973E-1
8.729225515E0,-8.667922616E-1,1.081657767E0,-3.176405728E-1
8.738378328E0,-8.101361990E-1,9.478822351E-1,-3.208475113E-1
8.747531140E0,-7.970029712E-1,8.611419201E-1,-3.310792148E-1
8.756683953E0,-8.145648241E-1,8.196043372E-1,-3.219164908E-1
8.765836713E0,-8.066238165E-1,8.154810667E-1,-3.072561622E-1
8.774989526E0,-7.632536292E-1,7.876875401E-1,-3.032856584E-1
8.784142338E0,-7.156075835E-1,7.130114436E-1,-3.107685447E-1
8.793295151E0,-6.493306160E-1,6.644490957E-1,-3.151971996E-1
8.802447963E0,-6.084038615E-1,6.470399499E-1,-3.100049794E-1
8.811600776E0,-5.885513425E-1,6.212316751E-1,-3.025220931E-1
8.820753588E0,-5.778614879E-1,5.964923501E-1,-3.078670204E-1
8.829906349E0,-5.777087808E-1,5.842754245E-1,-3.182514310E-1
8.839059161E0,-5.729747415E-1,6.151232123E-1,-3.151971996E-1
8.848211974E0,-5.430431962E-1,6.339067221E-1,-2.863346636E-1
8.857364786E0,-5.089884996E-1,6.009209752E-1,-2.518217862E-1
8.866517599E0,-4.796678126E-1,5.438067913E-1,-2.382304370E-1
8.875670411E0,-4.543176591E-1,5.323534012E-1,-2.446443290E-1
8.884823224E0,-4.379774928E-1,5.118899941E-1,-2.507528067E-1
8.893963276E0,-4.338542521E-1,4.714213610E-1,-2.634278834E-1
8.903128797E0,-4.477510452E-1,3.791834414E-1,-2.890834510E-1
8.912281609E0,-4.703523815E-1,2.260134816E-1,-3.167243004E-1
8.921434422E0,-4.795151055E-1,9.620844573E-2,-3.478775024E-1
8.930587234E0,-4.671454430E-1,4.779879749E-2,-3.990359604E-1
8.939740047E0,-4.540122151E-1,1.294996142E-1,-4.801259339E-1
8.948892859E0,-4.488200247E-1,3.466558158E-1,-5.688515306E-1
8.958045619E0,-3.822376728E-1,4.967715442E-1,-5.942016840E-1
8.967198432E0,-1.510319859E-1,4.511106908E-1,-5.155550838E-1
8.976338484E0,2.185306102E-1,2.774773538E-1,-3.649812341E-1
8.985504057E0,5.957288146E-1,-2.000524849E-2,-1.653869003E-1
8.994656869E0,9.268079996E-1,-4.092676640E-1,2.886253223E-2
9.003809682E0,1.203827262E0,-8.458707333E-1,1.496575773E-1
9.012962494E0,1.484664321E0,-1.181378603E0,2.128802687E-1
9.022115307E0,1.814063668E0,-1.373031974E0,2.544178963E-1
9.031255307E0,2.159345150E0,-1.480082870E0,2.930539846E-1
9.040420880E0,2.451482773E0,-1.470003963E0,2.980934680E-1
9.049573692E0,2.689407825E0,-1.234216928E0,2.470877171E-1
9.058713744E0,2.884420872E0,-7.472189069E-1,1.724116355E-1
9.067879317E0,2.994373322E0,-1.916533262E-1,1.336228400E-1
9.077032130E0,2.967037916E0,2.322746664E-1,1.832541823E-1
9.086172182E0,2.787448645E0,3.938437700E-1,3.235963285E-1
9.095337703E0,2.500655890E0,3.063398898E-1,5.354076028E-1
9.104490515E0,2.219666243E0,4.214845970E-2,7.783721089E-1
9.113630567E0,2.085737944E0,-4.005630910E-1,1.035538793E0
9.122796140E0,2.181488276E0,-1.007745266E0,1.222152710E0
9.131948953E0,2.430255890E0,-1.555369854E0,1.265217423E0
9.141101765E0,2.686964273E0,-1.823531747E0,1.198329568E0
9.150254578E0,2.853267431E0,-1.836817741E0,1.088377118E0
9.159407338E0,2.925958395E0,-1.770388126E0,9.654440880E-1
9.168547390E0,2.943978310E0,-1.723810911E0,8.275453448E-1
9.177712963E0,2.940160513E0,-1.725032687E0,6.943806410E-1
9.186865776E0,2.919697285E0,-1.726559758E0,5.935907960E-1
9.196005828E0,2.860750437E0,-1.650967479E0,5.263976455E-1
9.205171401E0,2.761182308E0,-1.451220393E0,4.877615273E-1
9.214324213E0,2.661308765E0,-1.103190184E0,4.593571424E-1
9.223464265E0,2.611830235E0,-6.555918455E-1,4.384356141E-1
9.232629786E0,2.599307775E0,-1.827960461E-1,4.130854607E-1
9.241782599E0,2.596864462E0,2.209739983E-1,4.066715539E-1
9.250935411E0,2.580371618E0,4.827220440E-1,4.387410581E-1
9.260088224E0,2.526617050E0,5.882459283E-1,5.126535892E-1
9.269241036E0,2.479581833E0,5.967977643E-1,5.398362875E-1
9.278381088E0,2.459270954E0,5.172349215E-1,5.512896776E-1
9.287546661E0,2.430713892E0,3.985778391E-1,5.549547076E-1
9.296699474E0,2.369781971E0,2.741177082E-1,5.234960914E-1
9.305852234E0,2.284874201E0,1.226275861E-1,4.905103445E-1
9.315005047E0,2.200424433E0,-7.345438004E-2,4.657710493E-1
9.324157859E0,2.127428293E0,-2.870981991E-1,4.207210541E-1
9.333310672E0,2.051377773E0,-5.187620521E-1,3.807105422E-1
9.342463484E0,1.964026690E0,-7.481352091E-1,3.356605768E-1
9.351616297E0,1.840940952E0,-9.425373077E-1,2.794626355E-1
9.360756349E0,1.669903636E0,-1.094180107E0,2.422009408E-1
9.369921922E0,1.467407823E0,-1.175422788E0,2.024958730E-1
9.379074734E0,1.248571754E0,-1.167481780E0,1.551551968E-1
9.388214734E0,1.018129706E0,-1.078298092E0,1.093416587E-1
9.397380307E0,7.556180358E-1,-9.414683580E-1,8.063183725E-2
9.406533119E0,4.758500159E-1,-8.040276766E-1,6.261184067E-2
9.415673224E0,2.124221325E-1,-6.821636558E-1,4.352286831E-2
9.424838744E0,-1.420219894E-2,-5.680879354E-1,2.305948362E-2
9.433991557E0,-2.105895877E-1,-4.376720488E-1,-2.290677279E-3
9.443144369E0,-3.822376728E-1,-2.542651594E-1,-2.687728032E-2
9.452297130E0,-5.523586273E-1,-3.955236077E-2,-5.818320066E-2
9.461449942E0,-7.490514517E-1,1.986780763E-1,-8.597674966E-2
9.470602755E0,-9.660549164E-1,4.170559645E-1,-8.704573661E-2
9.479755567E0,-1.183211088E0,5.734328628E-1,-6.306997687E-2
9.488908380E0,-1.389524817E0,6.534538269E-1,-2.550287358E-2
9.498061192E0,-1.575222373E0,6.514685750E-1,1.710372418E-2
9.507214005E0,-1.744274378E0,5.827482939E-1,5.696150661E-2
9.516366817E0,-1.890266895E0,4.921901822E-1,8.231166750E-2
9.525519630E0,-1.933789730E0,3.330644667E-1,7.773031294E-2
9.534672390E0,-1.756491303E0,6.933116168E-2,7.070557028E-2
9.543825203E0,-1.421288848E0,-1.183516532E-1,6.032116711E-2
9.552965255E0,-1.083337665E0,4.306473210E-2,1.068982668E-2
9.562130828E0,-1.000567794E0,5.018110275E-1,-1.215586066E-1
9.571283640E0,-1.118614078E0,6.113054156E-1,-2.921377122E-1
9.580423692E0,-1.173284888E0,3.452814221E-1,-3.431434333E-1
9.589589265E0,-1.440377831E0,-3.451287001E-2,-2.603736520E-1
9.598742078E0,-1.901109338E0,-8.069292307E-1,-1.684411317E-1
9.607882130E0,-2.035953999E0,-1.181225896E0,7.941014133E-3
9.617047651E0,-1.757865667E0,-9.694145918E-1,2.832804024E-1
9.626200463E0,-1.575222373E0,-1.504211426E-1,5.441122055E-1
9.635340515E0,-1.602863193E0,8.127322793E-1,5.731274486E-1
9.644506088E0,-1.792836666E0,1.246128440E0,3.981196880E-1
9.653658901E0,-1.788560748E0,7.808154821E-1,2.110477239E-1
9.662798953E0,-1.501767993E0,1.878355257E-2,1.525591016E-1
9.671964526E0,-1.273921967E0,-3.875826001E-1,1.782146841E-1
9.681117338E0,-1.234216928E0,-4.682144225E-1,1.724116355E-1
9.690257390E0,-1.240325332E0,-4.839437306E-1,1.693574041E-1
9.699422911E0,-1.218640327E0,-4.607315361E-1,2.409792393E-1
9.708575724E0,-1.185807228E0,-4.494308829E-1,3.461976945E-1
9.717715776E0,-1.178018928E0,-3.936910629E-1,4.243861437E-1
9.726881349E0,-1.147323847E0,-4.037700295E-1,4.556920528E-1
9.736034161E0,-1.076618314E0,-3.596363366E-1,4.410317242E-1
9.745186974E0,-1.011715770E0,-1.560714692E-1,3.979669809E-1
9.754339786E0,-1.002705812E0,-3.527642787E-2,3.295520842E-1
9.763492599E0,-1.050351858E0,-3.497100621E-2,2.467822880E-1
9.772645411E0,-1.063943267E0,-1.383569092E-1,1.734806150E-1
9.781798224E0,-1.033400893E0,-2.336490750E-1,1.438545287E-1
9.790950984E0,-1.007592559E0,-2.191414535E-1,1.391204596E-1
9.800103797E0,-1.017671585E0,-1.902789176E-1,1.151447073E-1
9.809256609E0,-1.041341901E0,-2.157817930E-1,8.322793990E-2
9.818409422E0,-1.053711534E0,-2.026485801E-1,5.818320066E-2
9.827562234E0,-1.067608237E0,-1.406475753E-1,2.932066843E-2
9.836715047E0,-1.065470338E0,-1.076618284E-1,1.038440317E-2
9.845867859E0,-1.054016948E0,2.137965523E-3,1.466033421E-2
9.855020672E0,-1.044396043E0,8.765657991E-2,1.466033421E-2
9.864173432E0,-1.062568784E0,1.339282542E-1,-1.527118147E-4
9.873326244E0,-1.095860004E0,2.151709497E-1,-8.399149403E-3
9.882479057E0,-1.132510781E0,3.008422852E-1,4.123218823E-3
9.891631869E0,-1.166565537E0,3.828485310E-1,2.397575416E-2
9.900784682E0,-1.178935170E0,4.419479966E-1,4.153761268E-2
9.909937494E0,-1.198940516E0,4.738647640E-1,3.955236077E-2
9.919090307E0,-1.231926203E0,5.291464329E-1,1.114796288E-2
9.928243119E0,-1.259567022E0,6.114581227E-1,-4.779879749E-2
9.937395932E0,-1.281862974E0,7.214106321E-1,-1.145338640E-1
9.946548744E0,-1.312558055E0,8.556442857E-1,-1.331647038E-1
9.955701505E0,-1.343863964E0,9.845330715E-1,-1.310267299E-1
9.964854317E0,-1.368450522E0,1.108687758E0,-1.256818175E-1
9.974007130E0,-1.380056620E0,1.159998894E0,-1.143811494E-1
9.983159942E0,-1.356386304E0,1.123195410E0,-1.079672500E-1
9.992312755E0,-1.319582820E0,1.072647810E0,-9.544488788E-2
1.000146557E1,-1.302479029E0,1.005912781E0,-5.986303091E-2
1.001061838E1,-1.288276911E0,9.271134138E-1,-4.932591692E-2
1.001977119E1,-1.256971002E0,8.926005363E-1,-1.058292910E-1
1.002892400E1,-1.220472813E0,9.188669920E-1,-1.722589284E-1
1.003807682E1,-1.169619799E0,9.929322004E-1,-2.257080674E-1
1.004722958E1,-1.094027400E0,1.092958450E0,-2.667875290E-1
1.005638239E1,-1.042868972E0,1.254832983E0,-3.074088693E-1
1.006553520E1,-9.596410394E-1,1.413347840E0,-3.350497186E-1
1.007468807E1,-8.692356348E-1,1.517039180E0,-3.747547865E-1
1.008384083E1,-8.002098799E-1,1.540556788E0,-4.091149569E-1
1.009299364E1,-7.678350210E-1,1.518718958E0,-4.413371384E-1
1.010214645E1,-7.547017932E-1,1.497644782E0,-4.607315361E-1
1.011129927E1,-7.650861740E-1,1.490314603E0,-4.705050886E-1
1.012045208E1,-7.988355160E-1,1.480082870E0,-4.634803534E-1
1.012960489E1,-7.841751575E-1,1.474279881E0,-4.297310412E-1
1.013875765E1,-6.754443645E-1,1.566059709E0,-3.863608837E-1
1.014791046E1,-5.120427012E-1,1.619508743E0,-3.570402265E-1
1.015706328E1,-4.253024161E-1,1.493216157E0,-3.594835997E-1
1.016621609E1,-4.666872919E-1,1.241088867E0,-3.755183518E-1
1.017536890E1,-5.340332389E-1,9.686510563E-1,-3.597890437E-1
1.018452171E1,-5.549547076E-1,7.481352091E-1,-3.512371778E-1
1.019367453E1,-5.514423847E-1,5.196782947E-1,-3.871244490E-1
1.020282734E1,-6.064186096E-1,2.156290859E-1,-4.703523815E-1
1.021196739E1,-7.127060294E-1,-6.108472496E-2,-5.593833923E-1
1.022113296E1,-8.254073858E-1,-1.676775664E-1,-6.389462352E-1
1.023028572E1,-9.150491953E-1,-1.191152185E-1,-6.829272509E-1
1.023942583E1,-1.007897973E0,-1.221694518E-3,-6.830799580E-1
1.024859135E1,-1.103953719E0,1.012479365E-1,-6.502469182E-1
1.025774416E1,-1.185501814E0,1.676775664E-1,-6.044333577E-1
1.026688421E1,-1.259567022E0,3.003841341E-1,-5.665608048E-1
1.027604979E1,-1.366312623E0,6.539120078E-1,-5.688515306E-1
1.028520260E1,-1.475806952E0,9.994988441E-1,-5.990884304E-1
1.029434265E1,-1.499477267E0,1.165191174E0,-5.865660906E-1
1.030350822E1,-1.430146098E0,1.080588818E0,-4.914266169E-1
1.031266104E1,-1.294996142E0,6.062659025E-1,-2.768665254E-1
1.032180109E1,-1.125638843E0,-2.137965336E-2,-7.437065244E-2
1.033096661E1,-8.944330812E-1,-4.952444136E-1,4.428642616E-2
1.034011942E1,-5.621321797E-1,-7.278245091E-1,6.444438547E-2
1.034925947E1,-1.827960461E-1,-8.655705452E-1,3.665083554E-3
1.035842505E1,2.203631550E-1,-9.688037634E-1,-8.506047726E-2
1.036757786E1,6.490252018E-1,-9.576557875E-1,-1.730224788E-1
1.037671791E1,1.110978484E0,-8.102889061E-1,-2.651077211E-1
1.038588348E1,1.603626728E0,-5.132644176E-1,-3.339807391E-1
1.039503630E1,2.081767559E0,-2.046338320E-1,-3.478775024E-1
1.040417635E1,2.465074062E0,-9.162709117E-2,-2.907632887E-1
1.041334187E1,2.681772232E0,-1.843231618E-1,-1.640124917E-1
1.042249473E1,2.750187159E0,-4.034646153E-1,-3.054236295E-4
1.043163479E1,2.737511873E0,-7.311841846E-1,1.737860441E-1
1.044080031E1,2.698723078E0,-1.015075445E0,3.501681983E-1
1.044995312E1,2.675510883E0,-1.202911019E0,5.315898061E-1
1.045910593E1,2.686200857E0,-1.295148849E0,6.769714952E-1
1.046825874E1,2.718881130E0,-1.260483265E0,7.609629631E-1
1.047741156E1,2.771261215E0,-1.205965161E0,8.058602214E-1
1.048656437E1,2.842119694E0,-1.228566527E0,8.448017836E-1
1.049571718E1,2.915726662E0,-1.333784938E0,8.698465228E-1
1.050486999E1,2.982767105E0,-1.536280870E0,8.661814332E-1
1.051401005E1,3.055305243E0,-1.774205923E0,8.496885300E-1
1.052317557E1,3.088290930E0,-1.938829184E0,7.957812548E-1
1.053232838E1,3.067522287E0,-1.980824947E0,6.978929639E-1
1.054146843E1,3.037743330E0,-1.836665034E0,5.755708218E-1
1.055063401E1,3.038659573E0,-1.524980187E0,4.573718905E-1
1.055978682E1,3.070118427E0,-1.148087382E0,3.700207174E-1
1.056893963E1,3.108143568E0,-8.138012886E-1,3.254288733E-1
1.057809244E1,3.128148794E0,-4.992149174E-1,3.150444627E-1
1.058724526E1,3.112419605E0,-1.834068894E-1,3.361186981E-1
1.059639807E1,3.086305857E0,9.269607067E-2,3.875826001E-1
1.060555088E1,3.057137728E0,3.147390485E-1,4.257605374E-1
1.061470369E1,3.001245260E0,4.827220440E-1,4.465293586E-1
1.062384374E1,2.909465551E0,5.482354164E-1,4.207210541E-1
1.063300932E1,2.820892572E0,4.960079789E-1,3.579564989E-1
1.064216208E1,2.749423504E0,3.804051280E-1,2.860292196E-1
1.065131489E1,2.681924820E0,2.463241518E-1,2.154763639E-1
1.066046770E1,2.591519594E0,3.756710514E-2,1.838650256E-1
1.066962052E1,2.486148357E0,-2.380777150E-1,1.673721522E-1
1.067877338E1,2.354510784E0,-4.908157587E-1,1.649287641E-1
1.068792614E1,2.213099718E0,-6.662816405E-1,1.811162084E-1
1.069707895E1,2.060998678E0,-7.766922712E-1,2.185306102E-1
1.070623176E1,1.881562233E0,-8.521319032E-1,2.655658424E-1
1.071538458E1,1.679829955E0,-9.066500664E-1,2.745758295E-1
1.072453739E1,1.473058224E0,-9.474241138E-1,2.597627938E-1
1.073367744E1,1.277892470E0,-9.772028923E-1,2.528907657E-1
1.074284302E1,1.098150611E0,-9.891144037E-1,2.307475507E-1
1.075199583E1,9.197832346E-1,-9.695672989E-1,2.270824611E-1
1.076113588E1,7.508839965E-1,-8.980981708E-1,2.331909388E-1
1.077030140E1,5.795413256E-1,-7.585195899E-1,2.312056869E-1
1.077945421E1,3.733803928E-1,-5.774033666E-1,2.412846684E-1
1.078859426E1,1.452289373E-1,-3.860554695E-1,2.706053257E-1
1.079775984E1,-7.773031294E-2,-2.151709497E-1,3.129065037E-1
1.080691265E1,-2.757975459E-1,-7.177454978E-2,3.700207174E-1
1.081606546E1,-4.335488379E-1,3.603998944E-2,4.133908749E-1
1.082521828E1,-5.596888065E-1,8.093725890E-2,4.356867969E-1
1.083437109E1,-6.893411279E-1,9.788827598E-2,4.640912116E-1
1.084351114E1,-8.409839869E-1,1.369825006E-1,5.039489865E-1
1.085267671E1,-1.019045949E0,1.276670843E-1,5.154023767E-1
1.086182953E1,-1.193748236E0,1.756185852E-2,4.996730685E-1
1.087096958E1,-1.247960925E0,-2.322746664E-1,4.366030693E-1
1.088013515E1,-1.030041218E0,-3.629959822E-1,3.374931216E-1
1.088928791E1,-5.995466113E-1,2.107422985E-2,2.015796006E-1
1.089842796E1,-1.160609797E-1,7.600467205E-1,5.803048983E-2
1.090759354E1,1.675248593E-1,4.772244096E-1,4.001049697E-2
1.091674635E1,1.469087601E-1,-8.715263009E-1,1.550024897E-1
1.092588640E1,-4.291202128E-1,-1.674485087E0,1.740914732E-1
1.093505197E1,-1.583621502E0,-4.976878166E-1,1.919587553E-1
1.094420479E1,-1.932109833E0,4.023956358E-1,2.499892414E-1
1.095334484E1,-1.676775694E0,1.307213157E-1,3.454341292E-1
1.096251041E1,-1.719534993E0,7.618792653E-1,4.098785222E-1
1.097166322E1,-1.873468518E0,1.371504784E0,4.060607255E-1
1.098080328E1,-1.936080337E0,1.717549801E0,3.289412558E-1
1.098996885E1,-1.905996203E0,1.389830232E0,1.834068894E-1
1.099912166E1,-1.775274873E0,7.656970620E-1,8.399149403E-3
1.100826171E1,-1.758934736E0,3.831539452E-1,-1.322484314E-1
1.101742723E1,-1.766264796E0,1.530172378E-1,-2.481566966E-1
1.102658005E1,-1.681357026E0,-6.826218218E-2,-3.176405728E-1
1.103572015E1,-1.578429341E0,-2.170034945E-1,-3.174878657E-1
1.104488567E1,-1.480540991E0,-2.347180545E-1,-2.544178963E-1
1.105403848E1,-1.435643792E0,-1.354553849E-1,-1.583621502E-1
1.106317854E1,-1.447249889E0,3.771981969E-2,-1.035386100E-1
1.107234411E1,-1.457023382E0,1.769929975E-1,-1.105633527E-1
1.108149692E1,-1.445417285E0,2.678565085E-1,-1.482831687E-1
1.109063697E1,-1.449235082E0,3.839175105E-1,-2.064663768E-1
1.109980255E1,-1.458397865E0,4.866925478E-1,-2.780882120E-1
1.110895536E1,-1.473669052E0,5.563291311E-1,-3.466558158E-1
1.111810817E1,-1.472447276E0,6.549809575E-1,-3.851391971E-1
1.112726098E1,-1.446944475E0,7.736380696E-1,-3.849864900E-1
1.113641374E1,-1.434574842E0,8.973346353E-1,-3.594835997E-1
1.114556661E1,-1.409224629E0,9.410101771E-1,-3.219164908E-1
1.115471937E1,-1.418692708E0,1.007287145E0,-2.793098986E-1
1.116387218E1,-1.457481503E0,1.055085897E0,-2.344126403E-1
1.117302499E1,-1.484969735E0,1.002247691E0,-1.864611208E-1
1.118217781E1,-1.480540991E0,9.003888369E-1,-1.643179059E-1
1.119133062E1,-1.456412554E0,7.660024762E-1,-1.756185889E-1
1.120048343E1,-1.439156175E0,6.449019909E-1,-2.145601064E-1
1.120963624E1,-1.448624253E0,6.210789680E-1,-2.536543310E-1
1.121878906E1,-1.487107635E0,6.571189165E-1,-2.771719396E-1
1.122794187E1,-1.524827480E0,7.379034758E-1,-2.805316150E-1
1.123709468E1,-1.536433578E0,8.686248064E-1,-2.733541429E-1
1.124624749E1,-1.539487839E0,1.002400398E0,-2.631224692E-1
1.125540031E1,-1.530630469E0,1.101968408E0,-2.435753495E-1
1.126455307E1,-1.532921195E0,1.130372882E0,-2.008160353E-1
1.127370593E1,-1.516886473E0,1.095860004E0,-1.120904684E-1
1.128285869E1,-1.469545841E0,9.823951125E-1,-5.497625098E-3
1.129201151E1,-1.402810693E0,8.748859763E-1,4.627167806E-2
1.130116432E1,-1.324774981E0,8.220477104E-1,5.421269313E-2
1.131031713E1,-1.286597013E0,8.156337738E-1,8.933641016E-2
1.131946994E1,-1.220014691E0,7.398887277E-1,1.215586066E-1
1.132862276E1,-1.124875188E0,6.991146803E-1,1.308740228E-1
1.133777557E1,-1.026376128E0,6.444438696E-1,1.267508119E-1
1.134692838E1,-9.058864713E-1,5.632011890E-1,1.038440317E-1
1.135608119E1,-7.632536292E-1,4.789042473E-1,5.238015205E-2
1.136523401E1,-6.183301210E-1,4.407263100E-1,-2.229592577E-2
1.137438682E1,-4.999784827E-1,4.785988331E-1,-1.101052165E-1
1.138353963E1,-4.437805414E-1,5.880932212E-1,-2.012741715E-1
1.139269244E1,-4.164451063E-1,7.330167294E-1,-2.672456801E-1
1.140184526E1,-3.851391971E-1,8.921424150E-1,-2.890834510E-1
1.141099807E1,-3.501681983E-1,9.710944295E-1,-2.754921019E-1
1.142015083E1,-3.342861533E-1,9.103151560E-1,-2.619007528E-1
1.142930364E1,-3.243598938E-1,7.663078904E-1,-2.622061968E-1
1.143845645E1,-2.956500649E-1,6.584933400E-1,-2.602209449E-1
1.144760926E1,-2.773246467E-1,5.960342288E-1,-2.411319613E-1
1.145676208E1,-2.913741469E-1,5.111264586E-1,-2.209739983E-1
1.146591489E1,-3.258870244E-1,3.602471650E-1,-2.223484069E-1
1.147506770E1,-3.633013964E-1,1.481304616E-1,-2.408265322E-1
1.148422052E1,-4.083513916E-1,-1.123958975E-1,-2.560977042E-1
1.149337333E1,-4.760027230E-1,-3.516952991E-1,-2.484621257E-1
1.150252614E1,-5.555655956E-1,-4.784461260E-1,-2.458660156E-1
1.151167895E1,-6.274928451E-1,-5.027272701E-1,-2.701472044E-1
1.152083176E1,-6.691831946E-1,-5.004366040E-1,-3.003841341E-1
1.152998458E1,-6.843016148E-1,-5.216635466E-1,-3.316900730E-1
1.153913739E1,-6.655181050E-1,-5.543438792E-1,-3.578037918E-1
1.154829020E1,-6.284091473E-1,-5.502206683E-1,-3.802524209E-1
1.155743026E1,-5.589252710E-1,-4.572191834E-1,-3.936910629E-1
1.156659578E1,-4.220954478E-1,-3.978142738E-1,-3.562766612E-1
1.157574859E1,-1.824906170E-1,-3.567348123E-1,-2.806843221E-1
1.158488864E1,1.406475753E-1,-3.468085229E-1,-1.898207814E-1
1.159405421E1,4.686725736E-1,-5.322006941E-1,-9.513945878E-2
1.160320703E1,7.866185308E-1,-8.429692388E-1,-2.061609551E-2
1.161235984E1,1.148392797E0,-1.119377613E0,1.084253844E-2
1.162151265E1,1.567128658E0,-1.280335903E0,-1.175880991E-2
1.163066546E1,1.986628056E0,-1.348598003E0,-8.078455180E-2
1.163980552E1,2.306711912E0,-1.410446286E0,-1.652341783E-1
1.164897109E1,2.513636589E0,-1.408155680E0,-2.467822880E-1
1.165812390E1,2.610608578E0,-1.174048424E0,-3.605526090E-1
1.166726395E1,2.619160414E0,-6.009209752E-1,-5.380037427E-1
1.167642953E1,2.590908766E0,1.788255423E-1,-7.035433054E-1
1.168558234E1,2.506764412E0,7.201889157E-1,-7.553126216E-1
1.169472239E1,2.364131689E0,7.284353375E-1,-5.810684562E-1
1.170388796E1,2.264563560E0,2.690782249E-1,-2.638860047E-1
1.171304072E1,2.270061016E0,-4.352286756E-1,8.002099395E-2
1.172218083E1,2.356801510E0,-1.158471823E0,3.258870244E-1
1.173134635E1,2.445832491E0,-1.567281365E0,3.744493723E-1
1.174049921E1,2.522188425E0,-1.566365123E0,2.480039895E-1
1.174963921E1,2.634889603E0,-1.398229361E0,5.696150661E-2
1.175880479E1,2.760266066E0,-1.204132676E0,-1.096470803E-1
1.176795760E1,2.841203213E0,-9.736905098E-1,-2.203631550E-1
1.177709765E1,2.858001709E0,-7.024743557E-1,-2.619007528E-1
1.178626322E1,2.819670916E0,-4.169032574E-1,-2.191414535E-1
1.179541604E1,2.743314981E0,-5.680879578E-2,-1.117850468E-1
1.180456885E1,2.671387672E0,3.396310806E-1,2.229592577E-2
1.181372166E1,2.626490593E0,6.841489077E-1,1.487413049E-1
1.182287447E1,2.600834846E0,9.532271624E-1,2.577775419E-1
1.183201453E1,2.575179338E0,1.108993173E0,3.362714052E-1
1.184118010E1,2.554410458E0,1.125944257E0,3.878880143E-1
1.185033291E1,2.544636965E0,1.030957460E0,4.361449480E-1
1.185947296E1,2.511193037E0,8.194515705E-1,4.709632397E-1
1.186863854E1,2.447206736E0,5.164713860E-1,5.170822144E-1
1.187779135E1,2.367033243E0,1.548497826E-1,5.253286362E-1
1.188693140E1,2.298160076E0,-1.973036677E-1,4.995203316E-1
1.189609697E1,2.238296986E0,-5.175403357E-1,4.596625566E-1
1.190524979E1,2.159955978E0,-7.710419297E-1,4.194993675E-1
1.191438984E1,2.070466757E0,-9.339854717E-1,3.744493723E-1
1.192355536E1,1.977465272E0,-1.005454540E0,3.304683566E-1
1.193270817E1,1.895764470E0,-1.014159203E0,2.852656841E-1
1.194184822E1,1.796349049E0,-9.710944295E-1,2.363978922E-1
1.195101380E1,1.656617761E0,-8.901571631E-1,1.852394342E-1
1.196016661E1,1.479624748E0,-8.116632700E-1,1.601946950E-1
1.196931942E1,1.281099439E0,-7.270609736E-1,1.586675793E-1
1.197847223E1,1.068830013E0,-6.412369013E-1,1.589729935E-1
1.198762505E1,8.518264890E-1,-5.577035546E-1,1.566823274E-1
1.199676510E1,6.568135023E-1,-4.640912116E-1,1.675248593E-1
1.200593067E1,4.876088202E-1,-3.629959822E-1,1.655396074E-1
1.201508348E1,3.190149665E-1,-2.489202619E-1,1.441599578E-1
1.202423630E1,1.542389393E-1,-1.359135211E-1,1.148392856E-1
1.203338911E1,9.773556143E-3,-3.145863488E-2,8.750387281E-2
1.204254192E1,-1.068982705E-1,7.910472155E-2,6.276455522E-2
1.205169473E1,-2.028012872E-1,1.922641695E-1,4.489727318E-2
1.206084755E1,-3.061871827E-1,3.162661791E-1,4.657710344E-2
1.207000036E1,-4.306473136E-1,4.294256270E-1,8.292251825E-2
1.207915317E1,-5.522059202E-1,4.782933891E-1,1.473668963E-1
1.208830598E1,-6.604785919E-1,4.289674759E-1,2.185306102E-1
1.209745880E1,-7.638645172E-1,3.127537966E-1,2.649549842E-1
1.210661161E1,-8.510629535E-1,1.366770715E-1,2.761029601E-1
1.211576442E1,-9.077190161E-1,-8.338065445E-2,2.788517773E-1
1.212491723E1,-9.506310225E-1,-2.564031482E-1,2.921377122E-1
1.213406999E1,-1.010494113E0,-3.130592108E-1,3.077143133E-1
1.214322286E1,-1.093416572E0,-2.999260128E-1,3.193204105E-1
1.215237567E1,-1.195275426E0,-2.843494117E-1,3.203893900E-1
1.216152843E1,-1.260025144E0,-3.298575282E-1,2.967190444E-1
1.217068130E1,-1.164274931E0,-4.039227366E-1,2.522799075E-1
1.217983406E1,-8.907679915E-1,-3.674246371E-1,2.163926363E-1
1.218897411E1,-5.974085927E-1,1.481304597E-2,1.630962193E-1
1.219813968E1,-4.475983381E-1,4.518742561E-1,1.143811494E-1
1.220729249E1,-4.863871336E-1,3.883461356E-1,9.284878522E-2
1.221643255E1,-5.419742465E-1,-3.226800561E-1,1.534753740E-1
1.222559812E1,-6.965186000E-1,-1.096776247E0,2.518217862E-1
1.223475093E1,-1.043785214E0,-9.895725846E-1,3.830012381E-1
1.224389098E1,-1.155264854E0,-1.003316641E-1,5.464028716E-1
1.225305656E1,-1.051268101E0,7.574505806E-1,6.888830066E-1
1.226220937E1,-1.260025144E0,1.369825006E0,6.789567471E-1
1.227134942E1,-1.694795728E0,1.618592501E0,4.924955964E-1
1.228051499E1,-1.766570330E0,1.261399627E0,4.214846194E-1
1.228966781E1,-1.541473031E0,8.231166601E-1,4.391991794E-1
1.229882062E1,-1.508029222E0,6.623111367E-1,4.378247857E-1
1.230797343E1,-1.517191887E0,5.277720094E-1,4.078932703E-1
1.231712624E1,-1.444959164E0,2.483094037E-1,4.007157981E-1
1.232626630E1,-1.370435834E0,-9.223793447E-2,3.874298632E-1
1.233543187E1,-1.294996142E0,-3.640649617E-1,3.387148082E-1
1.234458468E1,-1.203979969E0,-5.088357925E-1,2.350234836E-1
1.235373749E1,-1.131289124E0,-5.187620521E-1,1.452289373E-1
1.236289026E1,-1.123195410E0,-4.309527278E-1,9.330692142E-2
1.237204307E1,-1.143047929E0,-3.987305462E-1,3.863608837E-2
1.238118312E1,-1.146254897E0,-3.723114133E-1,-9.009997360E-3
1.239034869E1,-1.151599765E0,-2.386885732E-1,-4.199574888E-2
1.239950150E1,-1.153890491E0,-2.428117767E-2,-7.391251624E-2
1.240865432E1,-1.159540772E0,2.081461996E-1,-1.090362370E-1
1.241780713E1,-1.175117373E0,3.941491842E-1,-1.641651988E-1
1.242695994E1,-1.227344871E0,5.493044257E-1,-2.269297540E-1
1.243611276E1,-1.285222650E0,6.708629727E-1,-2.438807636E-1
1.244526557E1,-1.332410574E0,7.727217674E-1,-2.223484069E-1
1.245441838E1,-1.400825500E0,8.310576677E-1,-1.973036677E-1
1.246357119E1,-1.437781692E0,8.359444737E-1,-1.969982386E-1
1.247272400E1,-1.416860223E0,8.449544907E-1,-2.053973973E-1
1.248187682E1,-1.422205091E0,9.738432169E-1,-2.377723008E-1
1.249102963E1,-1.439767003E0,1.148392797E0,-2.655658424E-1
1.250018244E1,-1.484053373E0,1.289345860E0,-2.843494117E-1
1.250933526E1,-1.541014910E0,1.387386799E0,-2.840439677E-1
1.251848807E1,-1.590951681E0,1.385554314E0,-2.527380586E-1
1.252764088E1,-1.680135369E0,1.481915474E0,-2.296785712E-1
1.253679369E1,-1.763821483E0,1.542694807E0,-2.339545041E-1
1.254594651E1,-1.801083088E0,1.510625243E0,-2.409792393E-1
1.255509932E1,-1.828876734E0,1.373795509E0,-2.476985604E-1
1.256425213E1,-1.867207408E0,1.126555085E0,-2.796153426E-1
1.257340489E1,-1.876828194E0,8.574768305E-1,-3.735330999E-1
1.258255770E1,-1.851478100E0,6.943806410E-1,-4.740174711E-1
1.259171052E1,-1.826127887E0,6.478035450E-1,-5.286883116E-1
1.260085062E1,-1.813452840E0,6.682668924E-1,-5.360184908E-1
1.261001614E1,-1.805206418E0,7.201889157E-1,-5.305208564E-1
1.261916895E1,-1.813452840E0,8.218950033E-1,-5.506787896E-1
1.262832176E1,-1.785048366E0,9.669712186E-1,-5.903838873E-1
1.263747458E1,-1.706707239E0,1.133274436E0,-6.449019909E-1
1.264662739E1,-1.644706249E0,1.252389550E0,-7.111788988E-1
1.265578020E1,-1.606222868E0,1.326912999E0,-7.756233215E-1
1.266493302E1,-1.576291323E0,1.462979198E0,-8.273926377E-1
1.267408583E1,-1.532004952E0,1.546665311E0,-8.478559852E-1
1.268323864E1,-1.438392639E0,1.478250384E0,-8.252546191E-1
1.269239145E1,-1.330730796E0,1.335312128E0,-7.699729800E-1
1.270154426E1,-1.242310643E0,1.116323352E0,-6.873558760E-1
1.271069708E1,-1.157860994E0,8.064711094E-1,-5.900784731E-1
1.271984989E1,-1.075396657E0,5.128062963E-1,-5.178457499E-1
1.272900270E1,-9.998042583E-1,3.040492237E-1,-4.840964675E-1
1.273814276E1,-9.167290330E-1,9.636115283E-2,-4.596625566E-1
1.274730833E1,-8.238802552E-1,-1.655396074E-1,-4.251496792E-1
1.275646114E1,-7.411104441E-1,-4.256078303E-1,-3.877353072E-1
1.276560119E1,-6.696413159E-1,-6.513158679E-1,-3.419217467E-1
1.277476676E1,-5.958815217E-1,-7.895200849E-1,-2.820587158E-1
1.278391958E1,-5.157077909E-1,-8.162446618E-1,-2.295258641E-1
1.279307239E1,-4.329380095E-1,-7.853968740E-1,-1.922641695E-1
1.280222515E1,-3.100049794E-1,-8.415948153E-1,-1.603474021E-1
1.281137802E1,-1.085781008E-1,-8.997780085E-1,-1.551551968E-1
1.282053083E1,1.659977436E-1,-7.638645172E-1,-1.771457046E-1
1.282968359E1,4.940227270E-1,-5.114318728E-1,-1.847812980E-1
1.283883640E1,8.692356348E-1,-3.684936166E-1,-1.491994411E-1
1.284797645E1,1.273921967E0,-3.507790267E-1,-1.079672500E-1
1.285714203E1,1.666849494E0,-2.350234836E-1,-1.009425074E-1
1.286629484E1,1.974411011E0,4.321744293E-2,-1.081199646E-1
1.287543489E1,2.210198164E0,3.987305462E-1,-8.231166750E-2
1.288460046E1,2.398797274E0,5.102101564E-1,-5.955760833E-3
1.289375333E1,2.565405846E0,2.170034945E-1,1.511846930E-1
1.290289333E1,2.717048645E0,-3.194731176E-1,3.907895386E-1
1.291205890E1,2.836469173E0,-9.852966070E-1,6.497887969E-1
1.292121171E1,2.912825108E0,-1.633405566E0,8.455653191E-1
1.293036453E1,2.962914705E0,-1.972273111E0,9.500201941E-1
1.293951734E1,2.996969461E0,-1.923863411E0,9.611681700E-1
1.294867015E1,3.002772331E0,-1.718160629E0,8.915315866E-1
1.295781020E1,2.972993612E0,-1.567281365E0,7.788302302E-1
1.296697578E1,2.943672895E0,-1.614774704E0,6.620057225E-1
1.297612859E1,2.938022614E0,-1.832694530E0,5.693096519E-1
1.298526864E1,2.947338104E0,-1.950587988E0,4.943281412E-1
1.299443421E1,2.977422237E0,-1.833763480E0,4.321744442E-1
1.300358703E1,2.999412775E0,-1.559340358E0,3.381039500E-1
1.301272708E1,2.990555525E0,-1.215586066E0,2.321219593E-1
1.302189265E1,2.958027840E0,-8.393041492E-1,1.650814712E-1
1.303104546E1,2.927943707E0,-4.424061179E-1,1.524063945E-1
1.304018552E1,2.917101145E0,-6.673506647E-2,2.166980654E-1
1.304935109E1,2.908854723E0,2.589992285E-1,3.000787199E-1
1.305850390E1,2.880450249E0,4.425588250E-1,3.681881726E-1
1.306764395E1,2.811119080E0,5.459447503E-1,3.736858070E-1
1.307680953E1,2.708649397E0,5.844281316E-1,3.460449576E-1
1.308596234E1,2.606637955E0,5.419742465E-1,3.313846290E-1
1.309510239E1,2.510735035E0,3.959817290E-1,3.210002482E-1
1.310426796E1,2.426590681E0,1.456870735E-1,3.206948042E-1
1.311342078E1,2.358175755E0,-1.238492802E-1,3.148917556E-1
1.312256083E1,2.244558334E0,-3.759764731E-1,2.812951505E-1
1.313172640E1,2.091846466E0,-6.345176101E-1,2.119639963E-1
1.314087916E1,1.922030926E0,-8.374716043E-1,1.363716573E-1
1.315001927E1,1.741067410E0,-9.790354371E-1,6.490252167E-2
1.315918479E1,1.556591511E0,-1.060430884E0,5.039489828E-3
1.316833760E1,1.383721709E0,-1.092805743E0,-3.512371704E-2
1.317747770E1,1.199551344E0,-1.040578246E0,-5.238015205E-2
1.318664322E1,9.776610136E-1,-8.999307156E-1,-3.329117596E-2
1.319579604E1,7.525638342E-1,-7.669187188E-1,1.068982761E-3
1.320494885E1,5.459447503E-1,-6.806365848E-1,1.527118147E-4
1.321410166E1,3.694098890E-1,-6.310052276E-1,-4.871506989E-2
1.322325447E1,2.084516287E-1,-6.065713167E-1,-6.765133142E-2
1.323240729E1,3.710897267E-2,-6.134433746E-1,-4.871506989E-2
1.324156015E1,-1.226275861E-1,-6.226060390E-1,-1.924168877E-2
1.325071291E1,-2.444916219E-1,-5.877877474E-1,-0.000000000E0
1.325986572E1,-3.411581814E-1,-4.590517282E-1,1.206423342E-2
1.326901854E1,-4.346178174E-1,-2.234173864E-1,4.062134400E-2
1.327817135E1,-5.265503526E-1,3.283303976E-2,1.044548824E-1
1.328732416E1,-6.160394549E-1,2.150182426E-1,1.940967143E-1
1.329647697E1,-6.940752268E-1,2.935121059E-1,2.684673667E-1
1.330562979E1,-7.542436719E-1,2.591519356E-1,3.017585576E-1
1.331476984E1,-8.058602214E-1,8.139539510E-2,3.197785318E-1
1.332393541E1,-8.660287261E-1,-1.517955512E-1,3.361186981E-1
1.333308822E1,-9.399412274E-1,-2.339545041E-1,3.300102353E-1
1.334222833E1,-1.007439852E0,-1.070509851E-1,2.941229641E-1
1.335139385E1,-9.762866497E-1,1.090362370E-1,2.031067163E-1
1.336054666E1,-7.627955079E-1,5.375455618E-1,1.330119967E-1
1.336968671E1,-4.950917065E-1,1.154959440E0,8.246438205E-2
1.337885229E1,-2.702999115E-1,1.089751482E0,1.403421611E-1
1.338800510E1,-1.267508119E-1,-5.115845799E-2,3.649812341E-1
1.339714515E1,-7.040014863E-2,-1.392579079E0,4.842491746E-1
1.340631072E1,-4.850127101E-1,-1.087613583E0,5.189147592E-1
1.341546354E1,-1.130525589E0,6.603258848E-1,5.540384650E-1
1.342460359E1,-1.367686987E0,1.340809703E0,5.311316848E-1
1.343376916E1,-1.433811188E0,1.039203882E0,4.697415531E-1
1.344292197E1,-1.393037200E0,5.993938446E-1,4.941754341E-1
1.345207479E1,-1.285375357E0,3.460449576E-1,6.673506498E-1
1.346122760E1,-1.366159916E0,6.462764144E-1,7.313368917E-1
1.347038041E1,-1.382347345E0,6.010736823E-1,6.139014959E-1
1.347952046E1,-1.277128935E0,1.307213157E-1,4.703523815E-1
1.348868604E1,-1.260483265E0,-1.065928489E-1,3.668137789E-1
1.349783885E1,-1.237271070E0,-2.496838123E-1,2.754921019E-1
1.350699166E1,-1.140451789E0,-3.463504016E-1,1.742441803E-1
1.351614447E1,-1.028666735E0,-3.923166394E-1,9.391776472E-2
1.352529729E1,-9.649859667E-1,-3.321481943E-1,4.230117425E-2
1.353443734E1,-9.851438999E-1,-1.895153672E-1,-5.497625098E-3
1.354360291E1,-1.032789946E0,-3.054236295E-3,-6.887302548E-2
1.355275572E1,-1.082879424E0,2.539597452E-1,-1.378987730E-1
1.356190854E1,-1.153890491E0,5.210527182E-1,-2.099787444E-1
1.357106130E1,-1.253000498E0,7.346965671E-1,-2.634278834E-1
1.358021416E1,-1.348292589E0,9.327637553E-1,-2.855710983E-1
1.358935421E1,-1.391051888E0,1.085170150E0,-2.732014358E-1
1.359851979E1,-1.396702290E0,1.156333804E0,-2.524326444E-1
1.360767255E1,-1.371504784E0,1.146865726E0,-2.223484069E-1
1.361682536E1,-1.384485364E0,1.147018433E0,-1.895153672E-1
1.362597817E1,-1.396702290E0,1.116781473E0,-1.772984117E-1
1.363513098E1,-1.389982939E0,1.067913771E0,-2.023431510E-1
1.364428380E1,-1.398840189E0,1.048519373E0,-2.426590770E-1
1.365343661E1,-1.415943980E0,1.047144890E0,-2.574721277E-1
1.366258942E1,-1.467102408E0,1.044701576E0,-2.644968629E-1
1.367174223E1,-1.514748454E0,1.071731567E0,-2.912214398E-1
1.368089505E1,-1.543611050E0,1.216044188E0,-3.237490356E-1
1.369004786E1,-1.550330400E0,1.369519591E0,-3.684936166E-1
1.369920067E1,-1.584385037E0,1.464048147E0,-3.755183518E-1
1.370835348E1,-1.630962133E0,1.465422630E0,-3.179459870E-1
1.371750630E1,-1.646538734E0,1.411362648E0,-2.776300907E-1
1.372664635E1,-1.644248128E0,1.269951463E0,-2.444916219E-1
1.373581192E1,-1.653258085E0,1.083184958E0,-2.108950168E-1
1.374496473E1,-1.643942714E0,9.397885203E-1,-2.070772201E-1
1.375411755E1,-1.639819503E0,8.283088803E-1,-2.221956849E-1
1.376327036E1,-1.646080613E0,7.774558663E-1,-2.551814318E-1
1.377242317E1,-1.598129153E0,6.778877378E-1,-3.072561622E-1
1.378156322E1,-1.569113851E0,5.662553906E-1,-3.619270027E-1
1.379072880E1,-1.593395114E0,5.558710098E-1,-4.231644273E-1
1.379988161E1,-1.621646762E0,7.192726731E-1,-5.132644176E-1
1.380903442E1,-1.589424610E0,9.605573416E-1,-6.134433746E-1
1.381818723E1,-1.543152928E0,1.152974248E0,-7.340856791E-1
1.382734005E1,-1.510472536E0,1.200314879E0,-8.389987350E-1
1.383649286E1,-1.476570487E0,1.147781968E0,-8.820634484E-1
1.384564567E1,-1.424037695E0,1.127318621E0,-8.889354467E-1
1.385479848E1,-1.378682256E0,1.154043198E0,-8.605310917E-1
1.386395130E1,-1.311489105E0,1.115865231E0,-8.044858575E-1
1.387310411E1,-1.176797271E0,9.927794933E-1,-7.423321605E-1
1.388225692E1,-9.944593310E-1,7.653915882E-1,-6.914790869E-1
1.389139697E1,-8.203678727E-1,4.381301999E-1,-6.380299330E-1
1.390056255E1,-6.763606071E-1,9.086353332E-2,-5.806103349E-1
1.390971536E1,-5.546492934E-1,-1.847812980E-1,-5.228852630E-1
1.391885541E1,-4.666872919E-1,-3.917058110E-1,-4.578300118E-1
1.392802098E1,-4.092676640E-1,-5.088357925E-1,-4.062134326E-1
1.393717380E1,-3.581092060E-1,-5.201364160E-1,-3.764346242E-1
1.394631385E1,-2.953446507E-1,-4.459185004E-1,-3.681881726E-1
1.395547942E1,-2.014268786E-1,-3.993414044E-1,-3.785725832E-1
1.396463223E1,-6.612421572E-2,-4.294256270E-1,-3.872771561E-1
1.397378505E1,9.513945878E-2,-4.628695250E-1,-3.842229247E-1
1.398293786E1,2.605263591E-1,-4.364503622E-1,-3.538332880E-1
1.399209067E1,4.611896873E-1,-3.726168275E-1,-2.895416021E-1
1.400123072E1,7.273663878E-1,-2.544178963E-1,-2.102841735E-1
1.401039630E1,1.043479800E0,-2.119639963E-1,-1.328592747E-1
1.401954911E1,1.356080890E0,-3.216110766E-1,-6.780404598E-2
1.402868916E1,1.573542595E0,-4.017847776E-1,-1.908897609E-2
1.403785473E1,1.730377555E0,-2.547233105E-1,7.116370648E-2
1.404700755E1,1.887365341E0,-2.273878902E-1,2.107423097E-1
1.405614760E1,2.104674339E0,-5.034908652E-1,4.201101959E-1
1.406531312E1,2.339697599E0,-8.565605879E-1,6.620057225E-1
1.407446593E1,2.580371618E0,-1.268729806E0,8.710681796E-1
1.408360604E1,2.796153307E0,-1.693726778E0,1.031720996E0
1.409277156E1,2.933899403E0,-1.912562728E0,1.123806238E0
1.410192437E1,2.988111973E0,-1.900498509E0,1.100899458E0
1.411106447E1,2.996664047E0,-1.833458066E0,9.756757617E-1
1.412022999E1,2.988723040E0,-1.893779159E0,8.078454733E-1
1.412938281E1,2.979407549E0,-2.162552118E0,6.516213417E-1
1.413852286E1,2.940313339E0,-2.412693977E0,4.891359508E-1
1.414768843E1,2.894652367E0,-2.344584465E0,3.581092060E-1
1.415684124E1,2.878770351E0,-1.902636528E0,2.721324563E-1
1.416598135E1,2.895110607E0,-1.198482275E0,2.015796006E-1
1.417514687E1,2.926874638E0,-5.105155706E-1,1.212531775E-1
1.418429968E1,2.941076756E0,1.527118147E-3,7.085828483E-2
1.419343973E1,2.902440786E0,4.666872919E-1,6.734590977E-2
1.420260531E1,2.802414417E0,9.494093657E-1,1.204896197E-1
1.421175812E1,2.677343607E0,1.248571754E0,2.397575527E-1
1.422089817E1,2.579607964E0,1.307213187E0,3.422271907E-1
1.423006374E1,2.503862858E0,1.119988441E0,4.089622498E-1
1.423921656E1,2.459729195E0,7.970029712E-1,4.308000207E-1
1.424835661E1,2.450566530E0,3.817795515E-1,4.231644273E-1
1.425752218E1,2.439113140E0,-4.337015375E-2,3.904841244E-1
1.426667499E1,2.401240587E0,-4.207210541E-1,3.452814221E-1
1.427581505E1,2.352372885E0,-7.223268747E-1,2.968717813E-1
1.428498062E1,2.281667233E0,-9.232956171E-1,2.531961799E-1
1.429413343E1,2.175685167E0,-1.062874198E0,2.079934925E-1
1.430327348E1,2.008618593E0,-1.160915256E0,1.550024897E-1
1.431243906E1,1.762599707E0,-1.126555085E0,1.030804738E-1
1.432159187E1,1.503447771E0,-1.098150611E0,9.208522737E-2
1.433073192E1,1.298508525E0,-1.217571259E0,1.273616552E-1
1.433989749E1,1.088835239E0,-1.144422293E0,1.050657257E-1
1.434905031E1,8.776348233E-1,-9.394831061E-1,8.582404256E-2
1.435820312E1,7.024743557E-1,-8.774821162E-1,1.400367320E-1
1.436735593E1,5.267030597E-1,-8.095253110E-1,1.759240031E-1
1.437650874E1,3.367295563E-1,-7.427902818E-1,1.861557066E-1
1.438566156E1,1.575985998E-1,-6.872031689E-1,1.696628332E-1
1.439481437E1,1.175880991E-2,-6.313106418E-1,1.630962193E-1
1.440396718E1,-1.180462316E-1,-5.297572613E-1,1.663031727E-1
1.441311999E1,-2.516690791E-1,-3.431434333E-1,1.621799469E-1
1.442227281E1,-4.039227366E-1,-5.421269313E-2,1.585148573E-1
1.443142562E1,-5.740436912E-1,2.968717813E-1,1.618745178E-1
1.444057843E1,-7.449282408E-1,5.847335458E-1,1.659977436E-1
1.444973124E1,-9.040539265E-1,7.290462255E-1,1.769929975E-1
1.445888406E1,-1.025154471E0,6.897992492E-1,1.980672181E-1
1.446803687E1,-1.099219680E0,4.144598544E-1,2.240282297E-1
1.447718968E1,-1.161067963E0,8.704573847E-3,2.415900975E-1
1.448634249E1,-1.240478039E0,-3.787252903E-1,2.622061968E-1
1.449548255E1,-1.307213187E0,-5.601469278E-1,2.599155009E-1
1.450464812E1,-1.277587056E0,-4.645493329E-1,1.947075576E-1
1.451380093E1,-1.051573515E0,3.970507160E-2,7.925742865E-2
1.452294098E1,-7.264500856E-1,9.272661209E-1,-9.055810422E-2
1.453210656E1,-5.708367825E-1,1.438545346E0,-2.247917950E-1
1.454125937E1,-6.696413159E-1,7.307260633E-1,-1.412584335E-1
1.455039942E1,-9.735378027E-1,-8.173136115E-1,4.123218823E-3
1.455956499E1,-1.765653968E0,-1.546665311E0,1.151447073E-1
1.456871781E1,-2.358023167E0,-4.407263100E-1,4.179722369E-1
1.457785786E1,-2.065579891E0,1.042868972E0,7.730271816E-1
1.458702343E1,-1.697239161E0,1.927986622E0,8.721371889E-1
1.459617624E1,-1.814827204E0,2.114447832E0,5.633538961E-1
1.460531630E1,-1.689450860E0,1.459314108E0,3.034383655E-1
1.461448187E1,-1.218793035E0,7.947123051E-1,2.870981991E-1
1.462363468E1,-1.136939406E0,5.262449384E-1,2.958027720E-1
1.463277473E1,-1.280488610E0,2.057028115E-1,2.150182426E-1
1.464194031E1,-1.333326817E0,-1.382041872E-1,1.702736765E-1
1.465109312E1,-1.285069942E0,-3.874298632E-1,2.006633282E-1
1.466023317E1,-1.204743505E0,-5.541911721E-1,2.307475507E-1
1.466939874E1,-1.124722481E0,-6.632274389E-1,1.959292591E-1
1.467855156E1,-1.066691995E0,-6.351284385E-1,9.681928903E-2
1.468770437E1,-1.011715770E0,-5.198310018E-1,-1.817270555E-2
1.469685718E1,-9.840749502E-1,-3.254288733E-1,-9.391776472E-2
1.470600999E1,-1.005149126E0,-8.643488586E-2,-1.455343664E-1
1.471515005E1,-1.023474574E0,1.320957243E-1,-1.947075576E-1
1.472431562E1,-1.021183848E0,2.965663373E-1,-2.254026383E-1
1.473346843E1,-1.023169160E0,4.508052766E-1,-2.345653474E-1
1.474260848E1,-1.053100705E0,6.412369013E-1,-2.179197669E-1
1.475177406E1,-1.101510286E0,8.492304087E-1,-1.750077456E-1
1.476092687E1,-1.108840466E0,9.686510563E-1,-1.317902952E-1
1.477007968E1,-1.101052165E0,1.050657272E0,-1.183516532E-1
1.477923249E1,-1.122279167E0,1.096318126E0,-1.398840249E-1
1.478838531E1,-1.151294351E0,1.055238605E0,-1.760767251E-1
1.479753812E1,-1.177560806E0,1.039356589E0,-2.043284029E-1
1.480669093E1,-1.229482770E0,1.071120620E0,-2.481566966E-1
1.481584374E1,-1.308587551E0,1.178629756E0,-3.049654961E-1
1.482499656E1,-1.365396380E0,1.290872931E0,-3.658975065E-1
1.483414937E1,-1.413958669E0,1.387081385E0,-4.188885093E-1
1.484330218E1,-1.461452127E0,1.459772229E0,-4.511106908E-1
1.485245499E1,-1.486954927E0,1.500088215E0,-4.622586668E-1
1.486160781E1,-1.487718463E0,1.448776960E0,-4.718795121E-1
1.487076062E1,-1.515053868E0,1.325233102E0,-4.732539058E-1
1.487991343E1,-1.554300904E0,1.172063231E0,-4.697415531E-1
1.488906624E1,-1.587897420E0,9.394831061E-1,-4.857762754E-1
1.489821906E1,-1.573237062E0,7.580614686E-1,-5.031854510E-1
1.490737187E1,-1.513832211E0,6.490252018E-1,-5.125008225E-1
1.491652468E1,-1.477639556E0,5.320479870E-1,-5.213581324E-1
1.492567749E1,-1.496881247E0,4.324798584E-1,-5.409052372E-1
1.493483031E1,-1.568197608E0,4.262186885E-1,-5.822901726E-1
1.494398312E1,-1.660282850E0,4.758500159E-1,-6.311579347E-1
1.495313593E1,-1.703958392E0,5.667135715E-1,-6.755970716E-1
1.496228874E1,-1.646996975E0,7.510367036E-1,-7.247702479E-1
1.497144156E1,-1.551093936E0,9.744541049E-1,-8.066238165E-1
1.498059437E1,-1.488787532E0,1.209172130E0,-9.040539265E-1
1.498973442E1,-1.447708011E0,1.415027618E0,-9.735378027E-1
1.499889999E1,-1.389677525E0,1.554911733E0,-9.823951125E-1
1.500805281E1,-1.298966646E0,1.565601468E0,-9.072608948E-1
1.501720562E1,-1.202758312E0,1.434880257E0,-7.806627750E-1
1.502635838E1,-1.119988441E0,1.229941010E0,-6.670452356E-1
1.503551124E1,-1.072800517E0,9.381086826E-1,-5.914528370E-1
1.504465130E1,-1.059056401E0,6.224533319E-1,-5.355603099E-1
1.505381682E1,-1.040731072E0,3.347443044E-1,-4.802786708E-1
1.506296963E1,-1.011410356E0,6.245913357E-2,-4.303418994E-1
1.507210973E1,-9.616262913E-1,-2.252499312E-1,-3.936910629E-1
1.508127526E1,-9.051229358E-1,-4.944808483E-1,-3.729222417E-1
1.509042807E1,-8.397622705E-1,-6.569662094E-1,-3.315373361E-1
1.509958088E1,-7.527165413E-1,-6.838434935E-1,-2.863346636E-1
1.510873369E1,-6.661289334E-1,-6.027535200E-1,-2.576248348E-1
1.511788651E1,-6.062659025E-1,-4.544703662E-1,-2.646495700E-1
1.512702661E1,-5.476245880E-1,-1.779092699E-1,-2.832804024E-1
1.513619218E1,-4.518742561E-1,1.201841980E-1,-2.443388999E-1
1.514534494E1,-2.686200738E-1,1.847812980E-1,-1.272089481E-1
1.515448505E1,2.489202656E-2,2.977880463E-2,1.114796288E-2
1.516365062E1,3.697153032E-1,-2.429644912E-1,1.097997949E-1
1.517280338E1,7.379034758E-1,-4.923428893E-1,1.388150454E-1
1.518194348E1,1.134954214E0,-6.591041684E-1,1.484358907E-1
1.519110901E1,1.496881247E0,-7.463026643E-1,1.944021434E-1
1.520026182E1,1.874232054E0,-8.707627654E-1,2.961082160E-1
1.520940192E1,2.241045952E0,-1.067455530E0,3.964398801E-1
1.521856744E1,2.505542755E0,-1.204438090E0,5.108210444E-1
1.522772026E1,2.722240925E0,-1.385554314E0,6.572716236E-1
1.523686036E1,2.952530146E0,-1.703958392E0,8.073873520E-1
1.524602588E1,3.170602798E0,-1.956391096E0,9.116895199E-1
1.525517869E1,3.323467255E0,-1.968608022E0,9.500201941E-1
1.526431880E1,3.387758970E0,-1.769777179E0,9.136747718E-1
1.527348432E1,3.346679449E0,-1.551399350E0,8.327375054E-1
1.528263718E1,3.221608400E0,-1.503142357E0,7.328640223E-1
1.529177723E1,3.107074499E0,-1.609277129E0,6.258130074E-1
1.530094281E1,3.015600204E0,-1.662878990E0,5.196782947E-1
1.531009557E1,2.969328642E0,-1.476417780E0,4.391991794E-1
1.531924843E1,2.965816259E0,-1.070967913E0,4.052971601E-1
1.532840119E1,2.969328642E0,-6.830799580E-1,3.648285270E-1
1.533755406E1,2.936037302E0,-3.133646548E-1,3.159607351E-1
1.534669411E1,2.887322187E0,5.757235363E-2,2.835858464E-1
1.535585963E1,2.843035936E0,4.034646153E-1,2.823641598E-1
1.536501244E1,2.815547705E0,6.975875497E-1,3.089359999E-1
1.537416526E1,2.790808439E0,8.405258060E-1,3.501681983E-1
1.538331812E1,2.747896433E0,7.798992395E-1,4.072824121E-1
1.539247088E1,2.675358295E0,6.612421870E-1,4.495835900E-1
1.540161098E1,2.567543745E0,5.230379701E-1,4.501944184E-1
1.541077651E1,2.470266342E0,3.196258247E-1,4.214846194E-1
1.541992932E1,2.386885643E0,7.299624383E-2,3.924693763E-1
1.542906942E1,2.311751366E0,-1.860029846E-1,3.255815804E-1
1.543823499E1,2.209892750E0,-4.781406820E-1,2.473931462E-1
1.544738781E1,2.090624809E0,-7.647807598E-1,1.814216375E-1
1.545652786E1,1.987544298E0,-9.796462655E-1,1.088835225E-1
1.546569343E1,1.880951405E0,-1.116934180E0,5.818320066E-2
1.547484624E1,1.748397589E0,-1.160609841E0,3.466558084E-2
1.548398630E1,1.600725293E0,-1.186876178E0,6.719320081E-3
1.549315187E1,1.423121452E0,-1.170383334E0,-2.504473738E-2
1.550230468E1,1.192068458E0,-1.097997904E0,-4.504998401E-2
1.551144473E1,9.446752667E-1,-9.982771277E-1,-4.138490185E-2
1.552061031E1,7.076665759E-1,-8.263236284E-1,-3.771981969E-2
1.552976312E1,4.842491746E-1,-6.633801460E-1,-3.390202299E-2
1.553891593E1,2.852656841E-1,-5.231906772E-1,-3.054236248E-2
1.554806874E1,1.053711548E-1,-3.952181637E-1,-4.046862945E-2
1.555722156E1,-4.947862774E-2,-3.020639718E-1,-4.642439261E-2
1.556636161E1,-2.050919682E-1,-2.698417902E-1,-6.230641901E-2
1.557552718E1,-3.742966652E-1,-2.441861928E-1,-5.192201585E-2
1.558467999E1,-5.633538961E-1,-1.365243644E-1,-1.969982497E-2
1.559383281E1,-7.521057129E-1,7.971556485E-2,8.857285604E-3
1.560298562E1,-9.208522439E-1,2.669402659E-1,3.665083647E-2
1.561213843E1,-1.075091124E0,3.271087110E-1,7.284353673E-2
1.562127848E1,-1.220320106E0,2.964136302E-1,1.079672500E-1
1.563044406E1,-1.341573238E0,1.774511337E-1,1.345391124E-1
1.563959687E1,-1.422052383E0,-7.024743594E-3,1.543916464E-1
1.564873692E1,-1.478097677E0,-1.522536725E-1,1.577513069E-1
1.565790249E1,-1.553231835E0,-8.017370105E-2,1.363716573E-1
1.566705531E1,-1.648524046E0,2.690782249E-1,8.903098851E-2
1.567619536E1,-1.673416018E0,7.748597264E-1,-1.542389300E-2
1.568536093E1,-1.522384048E0,1.318666577E0,-1.521009654E-1
1.569451374E1,-1.215738773E0,1.292552829E0,-3.258870244E-1
1.570365380E1,-1.086391807E0,2.988570333E-1,-2.466295809E-1
1.571281937E1,-1.379598498E0,-8.486195803E-1,2.519745007E-2
1.572197218E1,-1.740456581E0,-1.081352353E0,3.129065037E-1
1.573111223E1,-1.971662283E0,3.000787199E-1,7.858549953E-1
1.574027781E1,-1.817728758E0,1.920045614E0,1.086239100E0
1.574943062E1,-1.539640546E0,2.568154573E0,8.788564801E-1
1.575857067E1,-1.229941010E0,2.086348772E0,3.562766612E-1
1.576773624E1,-7.281299233E-1,6.114581227E-1,7.330167294E-2
1.577688906E1,-4.530959427E-1,-4.701996744E-1,1.053711548E-1
1.578602911E1,-7.340856791E-1,-4.534013867E-1,2.156290859E-1
1.579519468E1,-1.133121610E0,-2.021904439E-1,1.962346882E-1
1.580434749E1,-1.182142138E0,-2.438807636E-1,4.993676394E-2
1.581348755E1,-1.041189194E0,-3.454341292E-1,-1.236965731E-1
1.582265312E1,-9.316948056E-1,-3.145863414E-1,-2.670929730E-1
1.583180593E1,-8.616000414E-1,-2.414373755E-1,-3.888042867E-1
1.584094598E1,-8.173136115E-1,-1.646233350E-1,-5.167768002E-1
1.585011156E1,-8.348754644E-1,-1.572931744E-2,-6.348230243E-1
1.585926437E1,-8.408312798E-1,2.052446753E-1,-6.991146803E-1
1.586840442E1,-8.522846103E-1,4.636330605E-1,-7.085828185E-1
1.587756999E1,-8.938222528E-1,6.873558760E-1,-6.852179170E-1
1.588672281E1,-9.304730892E-1,8.984035850E-1,-6.276455522E-1
1.589586286E1,-9.393303990E-1,1.096318126E0,-5.404471159E-1
1.590502843E1,-9.307785034E-1,1.202758312E0,-4.561502039E-1
1.591418124E1,-9.408574700E-1,1.256512761E0,-3.972034156E-1
1.592332130E1,-9.752176404E-1,1.309045672E0,-3.761292100E-1
1.593248687E1,-9.998042583E-1,1.302937150E0,-3.797942698E-1
1.594163968E1,-1.013548255E0,1.257734537E0,-3.756710589E-1
1.595079249E1,-1.052489877E0,1.253458619E0,-3.558185399E-1
1.595994531E1,-1.121668339E0,1.254069448E0,-3.373403847E-1
1.596909812E1,-1.196038961E0,1.237576604E0,-3.426853120E-1
1.597825093E1,-1.279266834E0,1.247655511E0,-3.530697227E-1
1.598740374E1,-1.336839199E0,1.273616552E0,-3.535278440E-1
1.599655656E1,-1.369519591E0,1.267508030E0,-3.361186981E-1
1.600570937E1,-1.420983434E0,1.214517117E0,-3.155026138E-1
1.601486218E1,-1.456107140E0,1.137397647E0,-2.932066917E-1
1.602401499E1,-1.458855987E0,1.033859015E0,-2.906105816E-1
1.603316781E1,-1.456107140E0,9.271134138E-1,-2.802261710E-1
1.604232062E1,-1.477486849E0,8.133431077E-1,-2.637332976E-1
1.605147343E1,-1.504058719E0,6.812474132E-1,-2.553341687E-1
1.606062624E1,-1.522689462E0,5.499152541E-1,-2.553341687E-1
1.606977906E1,-1.530477762E0,4.077405334E-1,-2.626643181E-1
1.607893187E1,-1.542389274E0,3.617742956E-1,-2.889307439E-1
1.608808468E1,-1.537197113E0,3.628432751E-1,-3.286358118E-1
1.609723749E1,-1.518260837E0,4.072824121E-1,-3.767400384E-1
1.610639031E1,-1.490009189E0,5.100574493E-1,-4.364503622E-1
1.611554312E1,-1.459924936E0,6.087092757E-1,-4.967715442E-1
1.612469593E1,-1.450762272E0,6.652126908E-1,-5.627430081E-1
1.613384874E1,-1.456259847E0,7.487460375E-1,-6.158867478E-1
1.614300156E1,-1.457023382E0,8.605310917E-1,-6.587987542E-1
1.615215437E1,-1.415485859E0,9.756757617E-1,-6.910209656E-1
1.616130718E1,-1.339740753E0,1.005301833E0,-7.050704360E-1
1.617045999E1,-1.259567022E0,9.764393568E-1,-6.885775924E-1
1.617961281E1,-1.198634982E0,9.200887084E-1,-6.636855602E-1
1.618876562E1,-1.163663983E0,8.122741580E-1,-6.731536984E-1
1.619791843E1,-1.153737783E0,7.296570539E-1,-6.852179170E-1
1.620707124E1,-1.167176366E0,6.536065936E-1,-6.809419990E-1
1.621622406E1,-1.193595529E0,5.656445622E-1,-6.694886088E-1
1.622537687E1,-1.202758312E0,4.790569544E-1,-6.517740488E-1
1.623452968E1,-1.192068458E0,3.532224298E-1,-6.143596172E-1
1.624368249E1,-1.148087382E0,1.751604527E-1,-5.541911721E-1
1.625283531E1,-1.112047434E0,4.153761268E-2,-5.005893111E-1
1.626198812E1,-1.118766785E0,-6.139015034E-2,-4.596625566E-1
1.627114093E1,-1.146102190E0,-1.203369126E-1,-4.220954478E-1
1.628029374E1,-1.173895717E0,-1.310267299E-1,-3.813214004E-1
1.628944656E1,-1.184280157E0,-1.724116355E-1,-3.330644667E-1
1.629859937E1,-1.167939901E0,-2.318165302E-1,-2.706053257E-1
1.630775218E1,-1.131747246E0,-2.356343269E-1,-2.012741715E-1
1.631690499E1,-1.075854778E0,-1.782146841E-1,-1.557660550E-1
1.632605781E1,-9.801044464E-1,-5.512896553E-2,-1.508792788E-1
1.633521062E1,-8.272398710E-1,1.041494608E-1,-1.951656938E-1
1.634436343E1,-6.357392669E-1,2.024958730E-1,-2.316638231E-1
1.635351624E1,-4.274403751E-1,2.047865391E-1,-2.162399292E-1
1.636266906E1,-1.895153672E-1,1.601946950E-1,-1.284306347E-1
1.637182187E1,7.345438004E-2,1.322484314E-1,-7.482878864E-3
1.638097468E1,3.266505599E-1,8.307522535E-2,1.299577504E-1
1.639012749E1,5.580089688E-1,-7.681404054E-2,2.800734639E-1
1.639928031E1,8.070819378E-1,-4.217900336E-1,4.048390090E-1
1.640843312E1,1.098761559E0,-9.013051391E-1,4.982986450E-1
1.641758593E1,1.477792263E0,-1.398229361E0,5.409052372E-1
1.642673874E1,1.970745921E0,-1.789782524E0,5.294518471E-1
1.643589156E1,2.469044685E0,-1.949977160E0,4.879142344E-1
1.644503161E1,2.866858959E0,-1.825975180E0,4.613423944E-1
1.645419718E1,3.144794464E0,-1.619966984E0,4.825693369E-1
1.646334999E1,3.228938580E0,-1.456412554E0,5.186093450E-1
1.647250281E1,3.135631800E0,-1.319582820E0,5.610632300E-1
1.648165562E1,3.019876242E0,-1.152057886E0,6.126797795E-1
1.649080843E1,3.029038906E0,-1.030652046E0,6.737645268E-1
1.649994848E1,3.109059811E0,-9.833113551E-1,7.524111271E-1
1.650911406E1,3.166632175E0,-9.775083065E-1,8.402203918E-1
1.651826687E1,3.150444746E0,-9.289459586E-1,9.158127308E-1
1.652741968E1,3.070881844E0,-8.645015955E-1,9.400939345E-1
1.653657249E1,2.938938856E0,-8.980981708E-1,8.867974877E-1
1.654572531E1,2.792640924E0,-1.053558826E0,8.021951914E-1
1.655487812E1,2.679328680E0,-1.300493836E0,7.069029808E-1
1.656403093E1,2.618091345E0,-1.523300409E0,6.320741773E-1
1.657318374E1,2.595489979E0,-1.524522066E0,5.972558856E-1
1.658232380E1,2.593046665E0,-1.314237833E0,5.981721878E-1
1.659148937E1,2.611066580E0,-9.965972900E-1,6.181774139E-1
1.660064218E1,2.626490593E0,-6.445965767E-1,6.273401380E-1
1.660978223E1,2.609234095E0,-2.953446507E-1,6.109999418E-1
1.661894781E1,2.554257870E0,4.123218823E-3,5.975613594E-1
1.662810062E1,2.476069450E0,1.992889196E-1,6.036698222E-1
1.663725343E1,2.370545387E0,2.696890533E-1,6.248967648E-1
1.664640624E1,2.265632391E0,2.130329758E-1,6.473453641E-1
1.665555906E1,2.182557344E0,6.215370819E-2,6.444438696E-1
1.666471187E1,2.125748396E0,-1.261399537E-1,6.117635369E-1
1.667386468E1,2.072452068E0,-2.776300907E-1,5.662553906E-1
1.668301749E1,1.991056681E0,-3.941491842E-1,5.144860744E-1
1.669215755E1,1.905538082E0,-5.265503526E-1,4.572191834E-1
1.670132312E1,1.803068399E0,-6.986565590E-1,4.095730782E-1
1.671047593E1,1.679371834E0,-8.412894011E-1,3.587200642E-1
1.671961598E1,1.537349820E0,-9.194778204E-1,3.077143133E-1
1.672878156E1,1.371962905E0,-9.487984776E-1,2.559449971E-1
1.673793437E1,1.171604991E0,-9.336800575E-1,2.166980654E-1
1.674707442E1,9.617789984E-1,-8.967237473E-1,2.053973973E-1
1.675623999E1,7.598940134E-1,-8.553388715E-1,2.112004459E-1
1.676539281E1,5.528167486E-1,-7.941014171E-1,2.183778882E-1
1.677453286E1,3.452814221E-1,-7.450809479E-1,2.180724740E-1
1.678369843E1,1.311794519E-1,-7.148439884E-1,2.006633282E-1
1.679285124E1,-7.910472155E-2,-6.743753552E-1,1.478250325E-1
1.680199130E1,-2.597627938E-1,-6.513158679E-1,1.049130186E-1
1.681115687E1,-4.063661397E-1,-6.426113248E-1,8.078455180E-2
1.682030968E1,-5.326588154E-1,-6.459710002E-1,6.093201414E-2
1.682946249E1,-6.627692580E-1,-6.305471063E-1,4.535540938E-2
1.683861531E1,-8.138012886E-1,-5.596888065E-1,3.802524135E-2
1.684776812E1,-9.935430884E-1,-3.833066523E-1,5.207473040E-2
1.685690817E1,-1.190541267E0,-1.418692768E-1,7.605048269E-2
1.686607374E1,-1.386775970E0,7.650861889E-2,9.468132257E-2
1.687522656E1,-1.562547326E0,2.192941606E-1,1.256818175E-1
1.688437937E1,-1.703805685E0,2.753393948E-1,1.850867122E-1
1.689353218E1,-1.828418612E0,2.507528067E-1,2.495311052E-1
1.690268499E1,-1.909355879E0,1.145338640E-1,2.997733057E-1
1.691182505E1,-1.921267390E0,-1.094943732E-1,3.590254784E-1
1.692099062E1,-1.893015623E0,-2.586938143E-1,4.063661397E-1
1.693014343E1,-1.755727768E0,-2.249445021E-1,3.713951409E-1
1.693928354E1,-1.415791273E0,1.382041872E-1,2.953446507E-1
1.694844906E1,-9.866710305E-1,8.318212628E-1,1.293469071E-1
1.695760187E1,-6.835380793E-1,1.194664478E0,4.581354442E-4
1.696674197E1,-5.755708218E-1,4.686725736E-1,1.592784226E-1
1.697590749E1,-4.060607255E-1,-8.402203918E-1,4.033119082E-1
1.698506036E1,-5.619794726E-1,-1.128998399E0,5.665608048E-1
1.699420041E1,-1.042105436E0,3.889569938E-1,7.514948249E-1
1.700336593E1,-1.094638348E0,2.147280931E0,7.699729800E-1
1.701251874E1,-8.493831158E-1,2.322135925E0,5.523586273E-1
1.702165885E1,-7.853968740E-1,1.462215662E0,2.035648525E-1
1.703082437E1,-7.085828185E-1,2.987042964E-1,5.405998230E-2
1.703997723E1,-7.200362086E-1,-5.115845799E-2,1.366770715E-1
1.704911729E1,-9.275715351E-1,4.169032574E-1,1.623326540E-1
1.705828286E1,-9.941539168E-1,5.248705149E-1,7.024743408E-2
1.706743562E1,-8.515210748E-1,1.908897758E-1,-3.848337755E-2
1.707657572E1,-6.510104537E-1,-2.345653474E-1,-8.551861346E-2
1.708574124E1,-5.112791657E-1,-4.698942602E-1,-9.849911928E-2
1.709489411E1,-4.570664763E-1,-4.614951015E-1,-1.359135211E-1
1.710403416E1,-4.327852726E-1,-4.605788291E-1,-1.925695986E-1
1.711319968E1,-4.475983381E-1,-3.738385141E-1,-2.263189107E-1
1.712235255E1,-4.837910235E-1,-1.702736765E-1,-2.347180545E-1
1.713150531E1,-5.227325559E-1,4.902049154E-2,-2.313583940E-1
1.714065817E1,-5.723638535E-1,3.025220931E-1,-2.429644912E-1
1.714981098E1,-6.294780970E-1,4.193466306E-1,-2.525853515E-1
1.715896374E1,-6.855233312E-1,4.686725736E-1,-2.408265322E-1
1.716811661E1,-7.409577370E-1,5.934380889E-1,-2.229592502E-1
1.717726937E1,-7.238540053E-1,7.472189069E-1,-2.021904439E-1
1.718640947E1,-7.372926474E-1,8.809944391E-1,-2.017323077E-1
1.719557505E1,-7.919634581E-1,9.211576581E-1,-2.113531530E-1
1.720472781E1,-8.663341403E-1,9.126058221E-1,-2.380777150E-1
1.721388067E1,-9.471186996E-1,8.588512540E-1,-2.484621257E-1
1.722303348E1,-1.016297102E0,7.267554998E-1,-2.237228155E-1
1.723218630E1,-1.063637733E0,6.810947061E-1,-1.788255423E-1
1.724133911E1,-1.113116384E0,6.927008033E-1,-1.426328421E-1
1.725049192E1,-1.168703556E0,6.232169271E-1,-1.368297935E-1
1.725964468E1,-1.227650285E0,5.520532131E-1,-1.493521482E-1
1.726879749E1,-1.294079900E0,5.277720094E-1,-1.609582454E-1
1.727795036E1,-1.381736517E0,6.137487888E-1,-1.945548505E-1
1.728710317E1,-1.469393134E0,7.386670709E-1,-2.513636351E-1
1.729625598E1,-1.523453116E0,8.167027831E-1,-3.061871827E-1
1.730540880E1,-1.562241912E0,8.254073858E-1,-3.590254784E-1
1.731456161E1,-1.594769478E0,8.516737819E-1,-4.283566475E-1
1.732371442E1,-1.660740972E0,9.429954290E-1,-4.837910235E-1
1.733286723E1,-1.741830945E0,1.083643079E0,-5.369347334E-1
1.734202005E1,-1.783368587E0,1.196649790E0,-6.009209752E-1
1.735117286E1,-1.799250603E0,1.282473803E0,-6.554391384E-1
1.736032567E1,-1.818186879E0,1.361273170E0,-6.959077120E-1
1.736947848E1,-1.807497025E0,1.352110386E0,-7.178982496E-1
1.737863130E1,-1.770540833E0,1.276212692E0,-7.137750387E-1
1.738778411E1,-1.748092175E0,1.243837714E0,-7.087355256E-1
1.739693692E1,-1.682120681E0,1.245517612E0,-7.406523228E-1
1.740608973E1,-1.575069666E0,1.286138892E0,-7.594358325E-1
1.741524255E1,-1.443126678E0,1.275449038E0,-7.640172243E-1
1.742439536E1,-1.305075169E0,1.213600755E0,-7.611156702E-1
1.743354817E1,-1.140299082E0,1.196955204E0,-7.655443549E-1
1.744270098E1,-9.530744553E-1,1.233911514E0,-7.812736630E-1
1.745185380E1,-8.222004175E-1,1.270256877E0,-7.791357040E-1
1.746100661E1,-7.736380696E-1,1.271173120E0,-7.513421178E-1
1.747015942E1,-7.569924593E-1,1.252694964E0,-7.059867382E-1
1.747931223E1,-7.430956960E-1,1.263079405E0,-6.479562521E-1
1.748845229E1,-7.765395641E-1,1.314543247E0,-5.798467398E-1
1.749761786E1,-8.725953102E-1,1.364480019E0,-5.488462448E-1
1.750677067E1,-9.701781869E-1,1.377613306E0,-5.439594984E-1
1.751591072E1,-1.024085402E0,1.337144613E0,-5.352548957E-1
1.752507630E1,-1.049435616E0,1.188556075E0,-5.022691488E-1
1.753422911E1,-1.053100705E0,9.440644383E-1,-4.501944184E-1
1.754338192E1,-1.050046444E0,6.465818286E-1,-3.883461356E-1
1.755253473E1,-1.058140159E0,3.448232710E-1,-3.277195692E-1
1.756168755E1,-1.049893737E0,8.170082420E-2,-2.846548259E-1
1.757084036E1,-1.006676316E0,-6.704048812E-2,-2.615953386E-1
1.757999317E1,-9.561286569E-1,-1.554606259E-1,-2.440334857E-1
1.758914598E1,-9.100096822E-1,-1.951656938E-1,-2.480039895E-1
1.759829880E1,-8.863393664E-1,-2.234173864E-1,-2.600682080E-1
1.760745161E1,-8.829796910E-1,-2.487675399E-1,-2.802261710E-1
1.761660442E1,-9.075663090E-1,-2.405211031E-1,-2.973299026E-1
1.762575723E1,-9.503256083E-1,-2.099787444E-1,-3.025220931E-1
1.763491005E1,-9.827005267E-1,-1.821851879E-1,-3.052709103E-1
1.764406286E1,-9.854493141E-1,-1.461452097E-1,-3.084778786E-1
1.765320291E1,-9.587247968E-1,-9.956810623E-2,-3.069507480E-1
1.766236848E1,-9.098569751E-1,-5.192201585E-2,-2.852656841E-1
1.767152130E1,-8.324320912E-1,2.305948362E-2,-2.696890533E-1
1.768067411E1,-7.240067124E-1,1.620272398E-1,-2.542651594E-1
1.768982692E1,-5.787777901E-1,3.225273490E-1,-2.441861928E-1
1.769897973E1,-3.950654566E-1,3.855973184E-1,-2.185306102E-1
1.770811979E1,-1.873773932E-1,2.993151546E-1,-1.718007922E-1
1.771728536E1,1.710372418E-2,6.536065787E-2,-9.391776472E-2
1.772643817E1,1.887518018E-1,-2.232646793E-1,-1.191152167E-2
1.773557822E1,3.208475113E-1,-4.697415531E-1,5.283828825E-2
1.774474380E1,3.996468186E-1,-6.322268844E-1,9.865183383E-2
1.775389661E1,4.624113739E-1,-6.975875497E-1,1.406475753E-1
1.776304942E1,5.581616759E-1,-6.774296165E-1,1.724116355E-1
1.777220223E1,7.027797699E-1,-5.861079693E-1,1.971509457E-1
1.778135505E1,8.768712282E-1,-4.882196784E-1,2.209739983E-1
1.779050786E1,1.058750987E0,-4.288147688E-1,2.301367074E-1
1.779966067E1,1.247655511E0,-4.109475017E-1,2.345653474E-1
1.780881348E1,1.433200359E0,-3.997995257E-1,2.388412803E-1
1.781796630E1,1.584690452E0,-3.863608837E-1,2.350234836E-1
1.782711911E1,1.698002696E0,-3.710896969E-1,2.394521236E-1
1.783627192E1,1.798181653E0,-4.213318825E-1,2.780882120E-1
1.784542473E1,1.917144179E0,-6.033644080E-1,3.785725832E-1
1.785457755E1,2.053973913E0,-8.912261724E-1,5.404471159E-1
1.786373036E1,2.194926977E0,-1.243379593E0,7.272136807E-1
1.787288317E1,2.382304192E0,-1.602710485E0,8.936695457E-1
1.788203598E1,2.619618416E0,-1.786422849E0,9.956810474E-1
1.789118880E1,2.807301283E0,-1.756491303E0,1.015228152E0
1.790032885E1,2.822419643E0,-1.440225124E0,1.004232883E0
1.790949442E1,2.701472044E0,-9.933903813E-1,9.797990322E-1
1.791864723E1,2.572277784E0,-7.249229550E-1,9.353598356E-1
1.792778729E1,2.502488613E0,-6.783458591E-1,8.768712282E-1
1.793695286E1,2.484010458E0,-7.960866690E-1,8.192988634E-1
1.794610567E1,2.485537529E0,-9.539906979E-1,7.748597264E-1
1.795524572E1,2.489202499E0,-1.067455530E0,7.401941419E-1
1.796441130E1,2.493631124E0,-1.136328578E0,7.079719901E-1
1.797356411E1,2.505237341E0,-1.179851532E0,6.774296165E-1
1.798270416E1,2.522951841E0,-1.219098449E0,6.380299330E-1
1.799186973E1,2.548760176E0,-1.263079405E0,5.996993184E-1
1.800102255E1,2.573194027E0,-1.281404853E0,5.558710098E-1
1.801016260E1,2.578080893E0,-1.245364904E0,5.021164417E-1
1.801932817E1,2.568154573E0,-1.161220670E0,4.654656053E-1
1.802848098E1,2.547385693E0,-1.046228647E0,4.566083252E-1
1.803763380E1,2.541124582E0,-9.425373077E-1,4.448495209E-1
1.804678661E1,2.539750099E0,-8.583931327E-1,4.161396921E-1
1.805593942E1,2.514552832E0,-7.740961909E-1,3.811686933E-1
1.806509223E1,2.460340023E0,-6.875085831E-1,3.526115716E-1
1.807424505E1,2.411166906E0,-6.268820167E-1,3.277195692E-1
1.808339786E1,2.367949486E0,-6.180247068E-1,3.164188862E-1
1.809255067E1,2.338628769E0,-6.386408210E-1,2.997733057E-1
1.810170348E1,2.303199530E0,-6.682668924E-1,2.837385535E-1
1.811085630E1,2.247154236E0,-7.388197780E-1,2.698417902E-1
1.811999640E1,2.161024809E0,-8.167027831E-1,2.730487287E-1
1.812916192E1,2.057791710E0,-8.561024070E-1,2.576248348E-1
1.813831473E1,1.955780268E0,-8.570187092E-1,2.079934925E-1
1.814745484E1,1.854074121E0,-8.231166601E-1,1.462979168E-1
1.815662036E1,1.753284335E0,-7.693621516E-1,7.284353673E-2
1.816577317E1,1.637528777E0,-7.379034758E-1,1.404948719E-2
1.817491328E1,1.504058719E0,-7.653915882E-1,-2.718270384E-2
1.818407880E1,1.349667072E0,-7.908945084E-1,-4.902049154E-2
1.819323161E1,1.169467092E0,-7.580614686E-1,-5.589252338E-2
1.820238442E1,9.659022093E-1,-6.675033569E-1,-6.581879407E-2
1.821153723E1,7.646280527E-1,-5.503733754E-1,-7.834116369E-2
1.822069005E1,5.728220344E-1,-4.127800465E-1,-8.780929446E-2
1.822984286E1,3.881934285E-1,-2.828222811E-1,-9.712471068E-2
1.823899567E1,1.965401024E-1,-1.511846930E-1,-9.788827598E-2
1.824814848E1,2.092151903E-2,-2.672456764E-2,-9.009996802E-2
1.825730130E1,-1.348445266E-1,8.933641016E-2,-9.009996802E-2
1.826645411E1,-2.667875290E-1,1.740914732E-1,-9.345962852E-2
1.827560692E1,-3.817795515E-1,2.052446753E-1,-8.521319181E-2
1.828475973E1,-5.036435723E-1,1.817270666E-1,-6.704048812E-2
1.829391255E1,-6.371136904E-1,1.304158866E-1,-4.046862945E-2
1.830306541E1,-7.685985565E-1,7.299624383E-2,-1.679830020E-3
1.831221822E1,-8.904625773E-1,3.084778599E-2,4.993676394E-2
1.832137104E1,-1.013701081E0,-5.192201585E-3,1.169772521E-1
1.833052380E1,-1.131136417E0,-7.513421029E-2,1.808107942E-1
1.833967666E1,-1.233300567E0,-1.895153672E-1,2.363978922E-1
1.834882947E1,-1.329814434E0,-3.226800561E-1,2.797680497E-1
1.835798223E1,-1.430757046E0,-4.124746025E-1,3.182514310E-1
1.836713510E1,-1.538266063E0,-4.046863019E-1,3.504736125E-1
1.837628791E1,-1.650509238E0,-3.217637837E-1,3.593308926E-1
1.838544067E1,-1.770540833E0,-1.864611208E-1,3.339807391E-1
1.839459354E1,-1.867970943E0,-8.261708915E-2,2.617480457E-1
1.840374635E1,-1.904621720E0,-5.955760833E-3,1.649287641E-1
1.841289916E1,-1.827960372E0,6.917845458E-2,6.841489673E-2
1.842203921E1,-1.533226609E0,1.094943732E-1,-3.894151375E-2
1.843120479E1,-9.176452756E-1,1.982199401E-1,-1.458397806E-1
1.844035760E1,-5.711421743E-2,2.240282297E-1,-2.122694254E-1
1.844949765E1,6.574243903E-1,-8.643488586E-2,-2.101314515E-1
1.845866322E1,8.376243114E-1,-8.223531246E-1,-1.563768983E-1
1.846781604E1,6.284091473E-1,-1.085933685E0,-1.443126649E-1
1.847695609E1,-2.657185495E-2,-1.664558798E-1,-1.985253543E-1
1.848612166E1,-9.381086826E-1,8.206732869E-1,-1.348445266E-1
1.849527447E1,-1.371810198E0,1.041341901E0,7.757759839E-2
1.850441453E1,-1.288582325E0,9.674293399E-1,2.296785712E-1
1.851358010E1,-1.215891480E0,1.473058224E0,2.334963679E-1
1.852273291E1,-1.254680276E0,2.127733707E0,1.466033459E-1
1.853187296E1,-1.308892965E0,2.107270241E0,3.817795217E-2
1.854103854E1,-1.256665468E0,1.476570487E0,-7.269082218E-2
1.855019135E1,-1.128692985E0,6.395570636E-1,-1.334701329E-1
1.855933140E1,-1.044701576E0,6.001574174E-2,-1.227803007E-1
1.856849697E1,-1.068219185E0,-2.344126403E-1,-5.482354015E-2
1.857764979E1,-1.132205367E0,-3.739912212E-1,3.939964995E-2
1.858678984E1,-1.178782463E0,-4.543176591E-1,1.392731816E-1
1.859595541E1,-1.212989926E0,-4.463766217E-1,2.141019702E-1
1.860510822E1,-1.222610831E0,-4.382829070E-1,2.560977042E-1
1.861424828E1,-1.244448543E0,-3.466558158E-1,2.877090573E-1
1.862341385E1,-1.291942000E0,-1.543916464E-1,3.067980409E-1
1.863256666E1,-1.335464835E0,4.367557913E-2,2.953446507E-1
1.864171947E1,-1.348139882E0,2.345653474E-1,2.457133085E-1
1.865087229E1,-1.348750710E0,4.181249440E-1,1.704263836E-1
1.866002510E1,-1.328745484E0,5.552601814E-1,9.712471068E-2
1.866917791E1,-1.289498568E0,6.129852533E-1,4.245388508E-2
1.867833072E1,-1.259872437E0,6.261184216E-1,9.620844387E-3
1.868748354E1,-1.246128440E0,6.085565686E-1,-6.108472589E-3
1.869663635E1,-1.212531805E0,5.916055441E-1,-2.718270384E-2
1.870578916E1,-1.174353838E0,6.030589342E-1,-6.658235192E-2
1.871494197E1,-1.162289619E0,6.505523324E-1,-9.956810623E-2
1.872409479E1,-1.148240089E0,6.691831946E-1,-1.238492802E-1
1.873324760E1,-1.121821046E0,6.383354068E-1,-1.475196183E-1
1.874240041E1,-1.097539783E0,6.111527085E-1,-1.748550236E-1
1.875155322E1,-1.062416077E0,6.358919740E-1,-1.977618039E-1
1.876070604E1,-1.030499339E0,6.539120078E-1,-2.043284029E-1
1.876985885E1,-1.033553600E0,6.526902914E-1,-2.079934925E-1
1.877901166E1,-1.050504565E0,6.882721782E-1,-2.203631550E-1
1.878816447E1,-1.051115394E0,7.634063363E-1,-2.374668717E-1
1.879731729E1,-1.050046444E0,8.454126120E-1,-2.370087355E-1
1.880647010E1,-1.050351858E0,8.900044560E-1,-2.254026383E-1
1.881562291E1,-1.043327093E0,8.586985469E-1,-2.246390730E-1
1.882477572E1,-1.010035992E0,7.966975570E-1,-2.487675399E-1
1.883392854E1,-9.619317055E-1,7.357655168E-1,-2.802261710E-1
1.884308135E1,-9.263498783E-1,6.803311110E-1,-2.884726226E-1
1.885223416E1,-8.982508779E-1,5.850389600E-1,-3.046600819E-1
1.886138697E1,-8.887827396E-1,5.036435723E-1,-3.327590525E-1
1.887053979E1,-8.721371889E-1,4.379774928E-1,-3.521534503E-1
1.887969260E1,-8.455653191E-1,3.625378609E-1,-3.585673273E-1
1.888884541E1,-8.243383765E-1,2.770192325E-1,-3.633013964E-1
1.889799822E1,-8.060129285E-1,1.595838517E-1,-3.733803928E-1
1.890715104E1,-8.028060198E-1,8.414421231E-2,-3.830012381E-1
1.891630385E1,-7.965448499E-1,1.317902952E-1,-3.854446113E-1
1.892545666E1,-7.890619636E-1,2.428117841E-1,-3.416163325E-1
1.893460947E1,-8.073873520E-1,3.255815804E-1,-2.829749882E-1
1.894376229E1,-8.422056437E-1,3.515425920E-1,-2.606790662E-1
1.895291510E1,-8.661814332E-1,3.455868363E-1,-2.493783981E-1
1.896206791E1,-8.863393664E-1,3.243598938E-1,-2.422009408E-1
1.897122072E1,-8.970292211E-1,2.805316150E-1,-2.336490750E-1
1.898037354E1,-8.851176500E-1,2.473931462E-1,-2.237228155E-1
1.898952635E1,-8.660287261E-1,2.461714447E-1,-2.125748396E-1
1.899867916E1,-8.519791961E-1,2.510582209E-1,-2.040229887E-1
1.900783197E1,-8.527427912E-1,2.655658424E-1,-1.936385781E-1
1.901698479E1,-8.571714163E-1,2.776300907E-1,-1.838650256E-1
1.902613760E1,-8.480086923E-1,2.806843221E-1,-1.801999360E-1
1.903529041E1,-8.411366940E-1,2.651077211E-1,-1.879882365E-1
1.904444322E1,-8.382351398E-1,2.510582209E-1,-2.289150059E-1
1.905359604E1,-8.415948153E-1,2.942756712E-1,-2.765611112E-1
1.906274885E1,-8.477032781E-1,3.713951409E-1,-2.883199155E-1
1.907190166E1,-8.446490765E-1,4.292729199E-1,-2.748812735E-1
1.908105447E1,-8.319739699E-1,4.677563012E-1,-2.693836391E-1
1.909020729E1,-8.096780181E-1,5.184566379E-1,-2.680092454E-1
1.909936010E1,-7.713474035E-1,5.656445622E-1,-2.542651594E-1
1.910851291E1,-7.044596076E-1,5.940489769E-1,-2.281514555E-1
1.911766572E1,-6.366555691E-1,5.761816502E-1,-2.057028115E-1
1.912681854E1,-5.824428797E-1,5.057815313E-1,-1.966928244E-1
1.913597135E1,-5.376983285E-1,3.999522328E-1,-1.939440072E-1
1.914512416E1,-5.028799772E-1,2.915268540E-1,-1.928750277E-1
1.915427697E1,-4.579827189E-1,2.223484069E-1,-1.772984117E-1
1.916342979E1,-3.813214004E-1,1.803526580E-1,-1.456870735E-1
1.917258260E1,-3.110739589E-1,1.583621502E-1,-9.193251282E-2
1.918173541E1,-2.469350100E-1,1.359135211E-1,-2.367033064E-2
1.919088822E1,-1.957765520E-1,9.987352788E-2,3.833066672E-2
1.920004104E1,-1.621799469E-1,4.413371533E-2,8.261708915E-2
1.920919385E1,-1.395785958E-1,-1.481304597E-2,9.865183383E-2
1.921834666E1,-1.269035190E-1,-5.283828825E-2,9.147437662E-2
1.922749947E1,-1.175880954E-1,-4.199574888E-2,7.375980914E-2
1.923665229E1,-1.143811494E-1,1.038440317E-2,5.482354015E-2
1.924580510E1,-1.156028435E-1,9.040539712E-2,2.916795574E-2
1.925495791E1,-1.105633527E-1,1.753131598E-1,-8.704573847E-3
1.926411072E1,-9.376505762E-2,2.451024652E-1,-5.146388337E-2
1.927326354E1,-6.933116168E-2,2.852656841E-1,-9.651386738E-2
1.928241635E1,-4.214845970E-2,2.990097404E-1,-1.408002973E-1
1.929156916E1,-2.657185495E-2,3.019112647E-1,-1.768402755E-1
1.930072197E1,-2.214321308E-2,2.939702570E-1,-2.031067163E-1
1.930987479E1,-3.237490356E-2,2.735068500E-1,-2.159345001E-1
1.931902760E1,-5.772506446E-2,2.221956849E-1,-2.142546773E-1
1.932818041E1,-9.391776472E-2,1.322484314E-1,-2.211267054E-1
1.933733322E1,-1.331647038E-1,3.038965166E-2,-2.212794125E-1
1.934648604E1,-1.724116355E-1,-5.405998230E-2,-2.075353563E-1
1.935563885E1,-2.084516287E-1,-1.058292910E-1,-1.838650256E-1
1.936479166E1,-2.368560284E-1,-1.064401343E-1,-1.681357026E-1
1.937394447E1,-2.483094037E-1,-8.521319181E-2,-1.469087601E-1
1.938309729E1,-2.405211031E-1,-5.619794875E-2,-1.298050433E-1
1.939225010E1,-2.304421216E-1,-3.023693897E-2,-1.151447073E-1
1.940140291E1,-2.237228155E-1,-2.229592577E-2,-1.041494608E-1
1.941055572E1,-2.192941606E-1,-3.191677108E-2,-9.483403713E-2
1.941970854E1,-2.148655206E-1,-5.070032179E-2,-9.116895497E-2
1.942886135E1,-1.893626451E-1,-8.612946421E-2,-8.353336155E-2
1.943801416E1,-1.475196183E-1,-1.450762302E-1,-7.284353673E-2
1.944716697E1,-9.391776472E-2,-2.220429778E-1,-6.093201414E-2
1.945631979E1,-3.481829539E-2,-2.971771955E-1,-4.993676394E-2
1.946547265E1,1.450762246E-2,-3.669664860E-1,-3.619270027E-2
1.947462541E1,4.947862774E-2,-4.162923992E-1,-2.489202656E-2
1.948377822E1,7.360709459E-2,-4.445441067E-1,-1.191152167E-2
1.949293104E1,8.704573661E-2,-4.337015450E-1,-4.581354558E-3
1.950208385E1,8.658760041E-2,-3.823903799E-1,-2.137965523E-3
1.951123671E1,8.399149776E-2,-3.003841341E-1,2.748812549E-3
1.952038947E1,8.063183725E-2,-1.944021434E-1,1.114796288E-2
1.952954234E1,7.467607409E-2,-8.826743066E-2,2.137965336E-2
1.953869510E1,7.330167294E-2,-4.581354558E-3,2.565558441E-2
1.954784796E1,7.589777559E-2,5.329642445E-2,2.611372061E-2
1.955700078E1,8.170082420E-2,9.315420687E-2,2.260134928E-2
1.956615359E1,8.460234851E-2,1.189625040E-1,1.343864016E-2
1.957530635E1,8.078455180E-2,1.401894391E-1,-1.374406274E-3
1.958445921E1,7.528692484E-2,1.447708011E-1,-1.664558798E-2
1.959361203E1,6.123743951E-2,1.345391124E-1,-3.436015919E-2
1.960276484E1,3.985778242E-2,1.223221645E-1,-4.856235534E-2
1.961191765E1,1.588202827E-2,1.168245375E-1,-5.909947306E-2
1.962107046E1,-3.206948051E-3,1.107160673E-1,-6.413896382E-2
1.963022328E1,-1.664558798E-2,1.058292910E-1,-6.612421572E-2
1.963937609E1,-2.153236605E-2,9.376505762E-2,-6.429167092E-2
1.964852890E1,-1.832541823E-2,7.452336699E-2,-6.062658876E-2
1.965768171E1,-1.939439960E-2,5.894676223E-2,-5.451811850E-2
1.966683453E1,-1.557660475E-2,4.321744293E-2,-4.764608666E-2
1.967598734E1,-7.482878864E-3,2.458660305E-2,-3.787253052E-2
1.968514015E1,3.817795310E-3,4.123218823E-3,-2.733541466E-2
1.969429296E1,1.435491070E-2,-1.618745178E-2,-1.878355257E-2
1.970344578E1,2.428117767E-2,-2.641914412E-2,-8.246437646E-3
1.971259859E1,2.794626169E-2,-2.336490713E-2,5.192201585E-3
1.972175140E1,3.038965166E-2,-2.626643144E-2,1.068982668E-2
1.973090421E1,3.603998944E-2,-3.298575059E-2,1.252236869E-2
1.974005703E1,3.970507160E-2,-3.054236248E-2,1.191152167E-2
1.974920984E1,4.398100078E-2,-2.504473738E-2,1.007897966E-2
1.975836265E1,4.382828996E-2,-9.468132630E-3,7.635590620E-3
1.976751546E1,4.413371533E-2,1.588202827E-2,7.635590620E-3
1.977666828E1,4.092676565E-2,3.634541109E-2,7.635590620E-3
1.978582109E1,3.588727489E-2,5.024218559E-2,2.748812549E-3
1.979497390E1,3.038965166E-2,4.840964451E-2,-4.581354558E-3
1.980412671E1,2.015795931E-2,3.206948191E-2,-1.267508045E-2
1.981327953E1,1.221694518E-2,1.878355257E-2,-1.756185852E-2
1.982243234E1,1.053711493E-2,9.773556143E-3,-1.939439960E-2
1.983158515E1,7.482878864E-3,6.719320081E-3,-2.122694254E-2
1.984073796E1,4.428642802E-3,8.399149403E-3,-2.183778957E-2
1.984989078E1,2.443389036E-3,1.740914769E-2,-2.137965336E-2
1.985904359E1,1.679830020E-3,3.191677108E-2,-1.893626526E-2
1.986819640E1,2.137965523E-3,4.993676394E-2,-1.710372418E-2
1.987734921E1,-4.581354442E-4,6.444438547E-2,-1.649287529E-2
1.988650203E1,-3.054236295E-3,7.360709459E-2,-1.893626526E-2
1.989565484E1,-9.162709117E-3,7.299624383E-2,-2.015795931E-2
1.990480765E1,-1.771457121E-2,6.200099736E-2,-2.153236605E-2
1.991396046E1,-3.038965166E-2,4.398100078E-2,-2.275406010E-2
1.992311328E1,-4.321744293E-2,2.764083818E-2,-2.229592577E-2
1.993226609E1,-5.299099907E-2,1.435491070E-2,-2.107422985E-2
1.994141890E1,-5.543438718E-2,7.177455351E-3,-1.924168877E-2
1.995057171E1,-4.856235534E-2,2.443389036E-3,-1.740914769E-2
1.995972453E1,-3.390202299E-2,1.221694518E-3,-1.481304597E-2
1.996887734E1,-2.092151903E-2,6.108472589E-3,-1.481304597E-2
1.997803015E1,-1.664558798E-2,1.511846948E-2,-1.221694518E-2
1.998718296E1,-8.093725890E-3,2.351761982E-2,-1.038440317E-2
1.999633578E1,-2.137965523E-3,3.252761811E-2,-8.551862091E-3
2.000548859E1,2.137965523E-3,4.581354558E-2,-7.330167107E-3
2.001464140E1,1.374406274E-3,5.314370990E-2,-9.162709117E-3
2.002379421E1,3.206948051E-3,5.436540768E-2,-9.162709117E-3
2.003294703E1,1.068982668E-2,4.459185153E-2,-1.084253844E-2
2.004209984E1,2.199050039E-2,3.268032894E-2,-1.267508045E-2
2.005125265E1,3.374931216E-2,2.122694254E-2,-1.313321572E-2
2.006040546E1,4.123219103E-2,6.719320081E-3,-1.496575773E-2
2.006955828E1,4.764608666E-2,-5.344913341E-3,-1.847812906E-2
2.007871109E1,4.459185153E-2,-7.177455351E-3,-1.863084175E-2
2.008786390E1,4.138490185E-2,-1.068982761E-3,-1.557660475E-2
2.009701671E1,3.955236077E-2,4.886778072E-3,-1.374406368E-2
2.010616953E1,4.062134400E-2,1.099525020E-2,-1.130067464E-2
2.011532234E1,4.001049697E-2,1.466033421E-2,-8.246437646E-3
2.012447515E1,4.245388508E-2,1.404948719E-2,-2.748812549E-3
2.013362796E1,4.489727318E-2,1.404948719E-2,9.162708884E-4
2.014278078E1,4.550812021E-2,1.527118124E-2,3.970507067E-3
2.015193359E1,4.611896724E-2,1.466033421E-2,7.635590620E-3
2.016108640E1,4.917320609E-2,1.466033421E-2,8.857285604E-3
2.017023921E1,4.963133857E-2,2.489202656E-2,7.635590620E-3
2.017939203E1,5.207473040E-2,2.855710872E-2,7.788302377E-3