"Time (s)","Gyroscope x (rad/s)","Gyroscope y (rad/s)","Gyroscope z (rad/s)"
6.300816244E0,4.886778072E-2,1.094943732E-1,2.626643144E-2
6.309969005E0,4.672981426E-2,7.513421029E-2,1.771457121E-2
6.319121765E0,4.382828996E-2,5.161659420E-2,1.466033421E-2
6.328274525E0,4.199574888E-2,4.260659590E-2,1.466033421E-2
6.337427286E0,3.771981969E-2,4.321744293E-2,1.466033421E-2
6.346580098E0,3.023693897E-2,4.443913698E-2,1.160609815E-2
6.355732859E0,1.985253580E-2,4.245388508E-2,7.177455351E-3
6.364885619E0,7.482878864E-3,4.611896724E-2,2.137965523E-3
6.374038380E0,-4.581354442E-4,4.734066129E-2,-2.137965523E-3
6.383191140E0,-5.344913341E-3,4.001049697E-2,-5.803049076E-3
6.392343900E0,-6.413896102E-3,2.550287358E-2,-7.635590620E-3
6.401496713E0,-7.941014133E-3,1.527118147E-4,-1.130067464E-2
6.410649473E0,-7.788302377E-3,-3.054236248E-2,-1.496575773E-2
6.419802234E0,-7.635590737E-4,-5.772506446E-2,-1.481304597E-2
6.428954994E0,1.068982668E-2,-8.475505561E-2,-1.114796288E-2
6.438107755E0,2.183778957E-2,-1.046075895E-1,-2.443389036E-3
6.447260515E0,3.542914242E-2,-1.130067408E-1,5.039489828E-3
6.456413327E0,4.825693369E-2,-1.122431830E-1,8.704573847E-3
6.465566088E0,5.879404768E-2,-1.116323397E-1,7.635590620E-3
6.474718848E0,6.627693027E-2,-1.159082651E-1,8.246437646E-3
6.483871609E0,7.070557028E-2,-1.261399537E-1,8.246437646E-3
6.493024369E0,7.070557028E-2,-1.327065676E-1,9.468132630E-3
6.502177130E0,5.589252338E-2,-1.363716573E-1,9.315420873E-3
6.511329942E0,3.863608837E-2,-1.369825006E-1,7.482878864E-3
6.520482702E0,2.886253223E-2,-1.406475753E-1,1.221694518E-3
6.529635463E0,2.031067200E-2,-1.395785958E-1,-4.275931045E-3
6.538788223E0,1.893626526E-2,-1.299577504E-1,-7.330167107E-3
6.547940984E0,2.260134928E-2,-1.209477559E-1,-9.773556143E-3
6.557093744E0,3.115320951E-2,-1.052184403E-1,-1.160609815E-2
6.566246557E0,3.649812192E-2,-8.903098851E-2,-1.634016447E-2
6.575399317E0,3.344388679E-2,-7.696675509E-2,-2.260134928E-2
6.584552077E0,2.290677279E-2,-7.330167294E-2,-2.870982140E-2
6.593704838E0,6.261184346E-3,-7.696675509E-2,-3.130592033E-2
6.602857598E0,-7.788302377E-3,-8.903098851E-2,-3.313846514E-2
6.612010411E0,-2.000524849E-2,-9.743013978E-2,-3.268032894E-2
6.621163171E0,-2.504473738E-2,-9.804098308E-2,-3.023693897E-2
6.630315932E0,-2.321219631E-2,-9.391776472E-2,-2.718270384E-2
6.639468692E0,-1.404948719E-2,-8.597674966E-2,-2.657185495E-2
6.648621452E0,-6.108472589E-4,-7.696675509E-2,-2.336490713E-2
6.657774265E0,1.725643501E-2,-6.429167092E-2,-1.847812906E-2
6.666927025E0,3.741439432E-2,-4.978405312E-2,-1.160609815E-2
6.676079786E0,4.963133857E-2,-4.489727318E-2,-8.399149403E-3
6.685232546E0,4.902049154E-2,-5.039490014E-2,-5.344913341E-3
6.694385307E0,3.680354729E-2,-6.001574174E-2,-3.054236295E-3
6.703538067E0,1.649287529E-2,-6.841489673E-2,-2.596100792E-3
6.712690880E0,-2.443389036E-3,-7.681404054E-2,-5.039489828E-3
6.721843640E0,-1.298050396E-2,-7.635590434E-2,-5.803049076E-3
6.730996400E0,-8.093725890E-3,-6.963659078E-2,-3.970507067E-3
6.740149161E0,4.886778072E-3,-6.536065787E-2,-3.817795310E-3
6.749301921E0,1.649287529E-2,-6.352811307E-2,-7.482878864E-3
6.758454734E0,2.275406010E-2,-7.024743408E-2,-1.282779220E-2
6.767607494E0,2.596100792E-2,-7.513421029E-2,-1.771457121E-2
6.776760255E0,1.786728203E-2,-7.024743408E-2,-2.504473738E-2
6.785913015E0,7.941014133E-3,-5.955760926E-2,-2.519745007E-2
6.795065775E0,-1.374406274E-3,-4.504998401E-2,-2.641914412E-2
6.804218588E0,-1.389677543E-2,-3.115320951E-2,-2.718270384E-2
6.813371348E0,-2.443389036E-2,-2.702999115E-2,-2.794626169E-2
6.822524109E0,-2.932066843E-2,-2.825168520E-2,-2.794626169E-2
6.831676869E0,-2.809897438E-2,-3.176405653E-2,-2.550287358E-2
6.840829630E0,-1.939439960E-2,-3.726168349E-2,-1.985253580E-2
6.849982390E0,-7.635590620E-3,-4.504998401E-2,-1.557660475E-2
6.859135202E0,4.123218823E-3,-5.161659420E-2,-9.315420873E-3
6.868287963E0,1.099525020E-2,-6.490252167E-2,-3.206948051E-3
6.877440723E0,1.114796288E-2,-8.292251825E-2,-1.527118147E-4
6.886593484E0,7.635590620E-3,-9.849911928E-2,1.068982761E-3
6.895746296E0,7.024743594E-3,-1.064401343E-1,4.581354442E-4
6.904899057E0,9.468132630E-3,-9.865183383E-2,-1.374406274E-3
6.914051817E0,1.603474095E-2,-7.681404054E-2,-2.443389036E-3
6.923204577E0,1.893626526E-2,-5.039490014E-2,-2.443389036E-3
6.932357338E0,1.496575773E-2,-2.993151546E-2,-3.817795310E-3
6.941510150E0,6.261184346E-3,-1.786728203E-2,-6.261184346E-3
6.950662911E0,1.985253533E-3,-1.481304597E-2,-9.315420873E-3
6.959815671E0,-3.512371797E-3,-2.153236605E-2,-1.557660475E-2
6.968968432E0,-1.084253844E-2,-2.092151903E-2,-2.107422985E-2
6.978121192E0,-1.527118124E-2,-1.007897966E-2,-2.229592577E-2
6.987273952E0,-1.603474095E-2,1.527118147E-4,-1.985253580E-2
6.996426765E0,-1.420219894E-2,-1.068982761E-3,-1.740914769E-2
7.005579525E0,-1.084253844E-2,-1.908897609E-2,-2.046338283E-2
7.014732286E0,-1.374406368E-2,-3.848337755E-2,-2.229592577E-2
7.023885046E0,-2.305948362E-2,-4.566083103E-2,-2.412846684E-2
7.033037859E0,-3.542914242E-2,-4.092676565E-2,-2.305948362E-2
7.042190619E0,-4.413371533E-2,-2.580829710E-2,-2.489202656E-2
7.051343380E0,-4.978405312E-2,-7.788302377E-3,-2.687728032E-2
7.060496140E0,-5.115845799E-2,6.108472589E-3,-2.809897438E-2
7.069648900E0,-5.192201585E-2,1.038440317E-2,-2.809897438E-2
7.078801713E0,-4.627167806E-2,1.038440317E-2,-2.687728032E-2
7.087954473E0,-3.756710514E-2,1.832541777E-3,-2.367033064E-2
7.097107234E0,-3.420744836E-2,-2.046338283E-2,-2.305948362E-2
7.106259994E0,-3.665083647E-2,-4.214845970E-2,-2.305948362E-2
7.115412755E0,-3.726168349E-2,-3.970507160E-2,-2.122694254E-2
7.124565567E0,-2.886253223E-2,-1.435491070E-2,-1.634016447E-2
7.133718327E0,-1.496575773E-2,7.941014133E-3,-9.468132630E-3
7.142871088E0,-4.581354558E-3,1.832541823E-2,-5.192201585E-3
7.152023848E0,-1.527118147E-4,1.588202827E-2,-7.635590620E-3
7.161176661E0,4.581354442E-4,1.221694518E-2,-1.007897966E-2
7.170329421E0,2.290677279E-3,8.093725890E-3,-1.114796288E-2
7.179482182E0,1.068982761E-3,1.282779220E-2,-1.130067464E-2
7.188634942E0,-7.024743594E-3,1.771457121E-2,-1.007897966E-2
7.197787702E0,-1.679829881E-2,1.527118124E-2,-9.468132630E-3
7.206940463E0,-2.473931387E-2,1.099525020E-2,-1.084253844E-2
7.216093275E0,-3.038965166E-2,7.482878864E-3,-1.267508045E-2
7.225246036E0,-2.962609194E-2,7.330167107E-3,-1.695101149E-2
7.234398796E0,-2.916795574E-2,1.099525020E-2,-1.878355257E-2
7.243551557E0,-2.412846684E-2,1.466033421E-2,-2.122694254E-2
7.252704369E0,-1.863084175E-2,1.939439960E-2,-2.122694254E-2
7.261857130E0,-1.496575773E-2,2.183778957E-2,-2.046338283E-2
7.271009890E0,-1.496575773E-2,2.428117767E-2,-1.740914769E-2
7.280162650E0,-1.878355257E-2,2.428117767E-2,-1.511846948E-2
7.289315463E0,-2.550287358E-2,2.550287358E-2,-1.511846948E-2
7.298468223E0,-3.115320951E-2,2.733541466E-2,-1.817270555E-2
7.307620984E0,-2.916795574E-2,2.794626169E-2,-2.000524849E-2
7.316773744E0,-2.428117767E-2,2.672456764E-2,-2.122694254E-2
7.325926505E0,-1.679829881E-2,2.305948362E-2,-1.740914769E-2
7.335079317E0,-7.635590620E-3,1.832541823E-2,-1.496575773E-2
7.344232077E0,-3.206948051E-3,1.099525020E-2,-1.068982668E-2
7.353384838E0,-3.665083554E-3,-4.123218823E-3,-1.007897966E-2
7.362537598E0,-5.344913341E-3,-2.458660305E-2,-1.191152167E-2
7.371690359E0,-6.413896102E-3,-4.321744293E-2,-7.024743594E-3
7.380843171E0,-2.748812549E-3,-5.405998230E-2,1.527118147E-3
7.389995932E0,4.734066315E-3,-6.352811307E-2,5.344913341E-3
7.399148692E0,7.330167107E-3,-7.207997888E-2,4.123218823E-3
7.408301452E0,3.206948051E-3,-8.536590636E-2,-7.635590737E-4
7.417454265E0,7.635590737E-4,-9.559759498E-2,-6.261184346E-3
7.426607025E0,2.596100792E-3,-9.498675168E-2,-4.428642802E-3
7.435759786E0,9.315420873E-3,-8.475505561E-2,-1.374406274E-3
7.444912546E0,8.551862091E-3,-6.719319522E-2,1.068982761E-3
7.454065307E0,2.901524538E-3,-5.100574717E-2,4.581354442E-4
7.463218119E0,-6.413896102E-3,-4.489727318E-2,-3.359660041E-3
7.472370880E0,-1.939439960E-2,-4.795150831E-2,-8.246437646E-3
7.481523640E0,-2.550287358E-2,-4.917320609E-2,-1.191152167E-2
7.490676400E0,-1.817270555E-2,-3.894151375E-2,-1.252236869E-2
7.499829213E0,-6.566607859E-3,-2.870982140E-2,-9.468132630E-3
7.508981973E0,3.817795310E-3,-2.504473738E-2,-5.650337320E-3
7.518134734E0,5.803049076E-3,-3.054236248E-2,-5.039489828E-3
7.527287494E0,-9.162708884E-4,-4.260659590E-2,-5.039489828E-3
7.536440307E0,-9.468132630E-3,-5.283828825E-2,-5.803049076E-3
7.545593067E0,-1.068982668E-2,-5.635065958E-2,-3.970507067E-3
7.554745827E0,-4.581354558E-3,-5.390727147E-2,-1.527118147E-3
7.563898588E0,6.566607859E-3,-5.207473040E-2,-1.527118147E-4
7.573051348E0,1.634016447E-2,-5.329642445E-2,-7.635590737E-4
7.582204161E0,1.893626526E-2,-6.001574174E-2,-1.221694518E-3
7.591356921E0,1.771457121E-2,-6.841489673E-2,-3.054236295E-3
7.600509682E0,1.236965694E-2,-7.742489129E-2,-3.206948051E-3
7.609662442E0,9.315420873E-3,-8.292251825E-2,-3.206948051E-3
7.618815255E0,7.330167107E-3,-7.986827940E-2,-1.985253533E-3
7.627968015E0,7.330167107E-3,-7.207997888E-2,-4.428642802E-3
7.637120775E0,2.443389036E-3,-6.780404598E-2,-9.315420873E-3
7.646273536E0,-5.497625098E-3,-6.795676053E-2,-1.863084175E-2
7.655426296E0,-1.481304597E-2,-6.551336497E-2,-2.473931387E-2
7.664579109E0,-1.542389300E-2,-5.772506446E-2,-2.962609194E-2
7.673731869E0,-1.114796288E-2,-5.344913527E-2,-3.023693897E-2
7.682884630E0,-8.704573847E-3,-5.405998230E-2,-3.084778599E-2
7.692037390E0,-1.114796288E-2,-6.016845629E-2,-3.329117596E-2
7.701190202E0,-1.725643501E-2,-6.917845458E-2,-3.512371704E-2
7.710342963E0,-2.397575416E-2,-7.650861889E-2,-3.512371704E-2
7.719495723E0,-3.008422814E-2,-8.674030751E-2,-3.206948191E-2
7.728648484E0,-2.870982140E-2,-8.964183182E-2,-2.535016090E-2
7.737801296E0,-2.336490713E-2,-8.414421231E-2,-1.985253580E-2
7.746954057E0,-1.725643501E-2,-7.040014863E-2,-1.557660475E-2
7.756106817E0,-1.557660475E-2,-5.344913527E-2,-1.557660475E-2
7.765259577E0,-2.061609551E-2,-3.787253052E-2,-1.863084175E-2
7.774412390E0,-2.626643144E-2,-2.641914412E-2,-1.939439960E-2
7.783565150E0,-2.519745007E-2,-1.847812906E-2,-1.878355257E-2
7.792717911E0,-2.336490713E-2,-1.007897966E-2,-1.878355257E-2
7.801870671E0,-1.908897609E-2,1.527118147E-4,-1.618745178E-2
7.811023484E0,-1.740914769E-2,9.773556143E-3,-1.191152167E-2
7.820176244E0,-1.618745178E-2,2.061609551E-2,-9.468132630E-3
7.829329005E0,-1.817270555E-2,2.550287358E-2,-8.857285604E-3
7.838481765E0,-1.939439960E-2,2.489202656E-2,-7.177455351E-3
7.847634577E0,-2.061609551E-2,2.428117767E-2,-9.009997360E-3
7.856787338E0,-2.000524849E-2,2.916795574E-2,-4.734066315E-3
7.865940098E0,-1.527118124E-2,3.512371704E-2,-9.162708884E-4
7.875092859E0,-1.084253844E-2,3.695625812E-2,9.162708884E-4
7.884245671E0,-6.566607859E-3,3.390202299E-2,-2.137965523E-3
7.893398432E0,-2.137965523E-3,2.183778957E-2,-3.359660041E-3
7.902551192E0,2.901524538E-3,6.261184346E-3,-2.748812549E-3
7.911703952E0,6.719320081E-3,-7.024743594E-3,4.581354442E-4
7.920856765E0,8.093725890E-3,-1.481304597E-2,2.901524538E-3
7.930009525E0,6.872031838E-3,-2.565558441E-2,5.344913341E-3
7.939162286E0,1.985253533E-3,-3.405473381E-2,3.512371797E-3
7.948315046E0,-3.512371797E-3,-3.833066672E-2,9.162708884E-4
7.957467859E0,-7.788302377E-3,-3.710897267E-2,-2.137965523E-3
7.966620619E0,-1.343864016E-2,-2.809897438E-2,-1.527118147E-3
7.975773380E0,-1.908897609E-2,-1.542389300E-2,-3.054236295E-4
7.984926140E0,-2.153236605E-2,-9.468132630E-3,7.635590737E-4
7.994078952E0,-2.473931387E-2,-1.068982668E-2,1.527118147E-4
8.003231713E0,-2.641914412E-2,-1.603474095E-2,-1.068982761E-3
8.012384473E0,-2.702999115E-2,-2.031067200E-2,-2.290677279E-3
8.021537234E0,-2.519745007E-2,-2.565558441E-2,-1.068982761E-3
8.030690046E0,-1.893626526E-2,-3.115320951E-2,3.970507067E-3
8.039842807E0,-7.788302377E-3,-3.466558084E-2,7.635590620E-3
8.048995567E0,1.985253533E-3,-3.649812192E-2,7.177455351E-3
8.058148327E0,7.024743594E-3,-3.344388679E-2,4.734066315E-3
8.067301140E0,6.261184346E-3,-2.443389036E-2,2.290677279E-3
8.076453900E0,4.428642802E-3,-1.542389300E-2,-1.527118147E-4
8.085606661E0,1.221694518E-3,-3.970507067E-3,-9.162708884E-4
8.094759421E0,-4.428642802E-3,8.704573847E-3,-9.162708884E-4
8.103912234E0,-1.374406368E-2,1.832541823E-2,-3.970507067E-3
8.113064994E0,-2.733541466E-2,2.183778957E-2,-8.399149403E-3
8.122217755E0,-3.466558084E-2,1.817270555E-2,-1.267508045E-2
8.131370515E0,-3.894151375E-2,4.275931045E-3,-1.634016447E-2
8.140523327E0,-3.634541109E-2,-4.734066315E-3,-1.817270555E-2
8.149676088E0,-3.130592033E-2,-8.246437646E-3,-1.939439960E-2
8.158828848E0,-2.153236605E-2,-2.901524538E-3,-2.244863659E-2
8.167981661E0,-5.039489828E-3,1.404948719E-2,-2.351761982E-2
8.177134421E0,1.603474095E-2,7.330167107E-3,-2.336490713E-2
8.186287182E0,3.023693897E-2,2.596100792E-3,-1.527118124E-2
8.195439942E0,2.565558441E-2,1.542389300E-2,-1.985253533E-3
8.204592702E0,1.145338640E-2,1.420219894E-2,4.123218823E-3
8.213745515E0,-1.374406274E-3,1.527118147E-3,3.970507067E-3
8.222898275E0,-1.359135192E-2,-2.748812549E-3,3.970507067E-3
8.232051036E0,-2.794626169E-2,1.466033421E-2,3.817795310E-3
8.241203848E0,-4.169032723E-2,3.451287001E-2,-6.108472589E-4
8.250356609E0,-4.902049154E-2,3.573456407E-2,-6.108472589E-3
8.259509369E0,-4.703523964E-2,2.000524849E-2,-1.466033421E-2
8.268662130E0,-3.573456407E-2,1.374406274E-3,-2.000524849E-2
8.277814942E0,-2.199050039E-2,-1.252236869E-2,-2.000524849E-2
8.286967702E0,-1.160609815E-2,-1.969982497E-2,-1.496575773E-2
8.296120463E0,-1.038440317E-2,-1.908897609E-2,-9.468132630E-3
8.305273223E0,-1.527118124E-2,-1.191152167E-2,-6.413896102E-3
8.314426036E0,-2.412846684E-2,-2.748812549E-3,-5.344913341E-3
8.323578796E0,-2.977880463E-2,7.941014133E-3,-4.734066315E-3
8.332731557E0,-2.916795574E-2,2.305948362E-2,-3.512371797E-3
8.341884369E0,-2.565558441E-2,3.512371704E-2,-1.068982761E-3
8.351037130E0,-2.260134928E-2,4.123219103E-2,1.527118147E-4
8.360189890E0,-2.260134928E-2,3.695625812E-2,-1.068982761E-3
8.369342650E0,-2.428117767E-2,2.794626169E-2,-2.901524538E-3
8.378495463E0,-2.550287358E-2,1.832541823E-2,-2.901524538E-3
8.387648223E0,-2.550287358E-2,1.053711493E-2,-3.512371797E-3
8.396800984E0,-2.855710872E-2,1.282779220E-2,-4.123218823E-3
8.405953744E0,-3.481829539E-2,2.122694254E-2,-3.512371797E-3
8.415106557E0,-3.542914242E-2,2.855710872E-2,-2.290677279E-3
8.424259317E0,-3.313846514E-2,3.878879920E-2,-3.512371797E-3
8.433412077E0,-2.947338112E-2,4.657710344E-2,-8.399149403E-3
8.442564890E0,-2.825168520E-2,5.314370990E-2,-1.328592747E-2
8.451717650E0,-2.702999115E-2,6.642963737E-2,-1.511846948E-2
8.460870411E0,-2.412846684E-2,8.276980370E-2,-1.634016447E-2
8.470023171E0,-2.183778957E-2,9.407047927E-2,-2.122694254E-2
8.479175984E0,-2.794626169E-2,1.026223376E-1,-2.489202656E-2
8.488328744E0,-4.092676565E-2,1.055238619E-1,-2.443389036E-2
8.497481505E0,-5.146388337E-2,1.120904684E-1,-2.153236605E-2
8.506634265E0,-5.344913527E-2,1.151447073E-1,-1.725643501E-2
8.515787077E0,-4.474456236E-2,1.091889441E-1,-1.588202827E-2
8.524939838E0,-2.305948362E-2,9.529217333E-2,-1.511846948E-2
8.534092598E0,-1.527118147E-4,8.276980370E-2,-9.468132630E-3
8.543245411E0,2.199050039E-2,7.620319724E-2,-7.635590737E-4
8.552398171E0,3.252761811E-2,7.513421029E-2,8.551862091E-3
8.561550932E0,2.687728032E-2,7.269082218E-2,1.695101149E-2
8.570703744E0,8.551862091E-3,6.841489673E-2,2.046338283E-2
8.579856505E0,-1.359135192E-2,6.001574174E-2,1.969982497E-2
8.589009265E0,-2.412846684E-2,5.757235363E-2,1.664558798E-2
8.598162025E0,-1.924168877E-2,6.719319522E-2,1.236965694E-2
8.607314838E0,-4.581354558E-3,8.276980370E-2,7.635590620E-3
8.616467598E0,7.635590620E-3,9.315420687E-2,2.748812549E-3
8.625620359E0,1.511846948E-2,9.544488788E-2,1.068982761E-3
8.634773171E0,1.206423342E-2,8.948912472E-2,-7.635590737E-4
8.643925932E0,-1.374406274E-3,7.253811508E-2,-3.970507067E-3
8.653078692E0,-1.649287529E-2,4.474456236E-2,-7.177455351E-3
8.662231452E0,-2.412846684E-2,7.941014133E-3,-1.084253844E-2
8.671384265E0,-2.199050039E-2,-2.275406010E-2,-1.252236869E-2
8.680537025E0,-1.130067464E-2,-4.443913698E-2,-1.313321572E-2
8.689689786E0,1.068982761E-3,-5.467082933E-2,-1.236965694E-2
8.698842546E0,1.404948719E-2,-5.757235363E-2,-1.298050396E-2
8.707995359E0,2.947338112E-2,-5.635065958E-2,-1.160609815E-2
8.717148119E0,4.352286831E-2,-5.268557742E-2,-4.734066315E-3
8.726300880E0,5.405998230E-2,-6.169557199E-2,3.206948051E-3
8.735453692E0,5.039490014E-2,-6.642963737E-2,1.298050396E-2
8.744606452E0,3.359659761E-2,-5.864133686E-2,2.076880634E-2
8.753759213E0,1.634016447E-2,-5.497625470E-2,2.183778957E-2
8.762912025E0,8.399149403E-3,-5.864133686E-2,1.572931744E-2
8.772064786E0,8.399149403E-3,-5.268557742E-2,7.177455351E-3
8.781217546E0,6.413896102E-3,-3.100049868E-2,5.344913341E-3
8.790370307E0,-1.527118147E-4,3.054236295E-4,8.246437646E-3
8.799523119E0,-7.177455351E-3,3.038965166E-2,7.635590620E-3
8.808675880E0,-9.162709117E-3,5.451811850E-2,3.359660041E-3
8.817828640E0,-9.315420873E-3,7.727217674E-2,-5.803049076E-3
8.826981452E0,-5.803049076E-3,9.773556143E-2,-1.252236869E-2
8.836134213E0,-1.679830020E-3,1.200314835E-1,-1.618745178E-2
8.845286973E0,3.054236295E-3,1.357607991E-1,-1.985253580E-2
8.854439786E0,8.093725890E-3,1.345391124E-1,-1.985253580E-2
8.863592546E0,6.261184346E-3,1.285833418E-1,-1.924168877E-2
8.872745307E0,2.596100792E-3,1.195733473E-1,-1.679829881E-2
8.881898067E0,-9.620844387E-3,1.116323397E-1,-1.206423342E-2
8.891050880E0,-2.321219631E-2,1.032331884E-1,-6.566607859E-3
8.900203640E0,-2.733541466E-2,9.483403713E-2,-4.734066315E-3
8.909356400E0,-2.367033064E-2,8.276980370E-2,-1.679830020E-3
8.918509213E0,-1.924168877E-2,7.192726433E-2,1.527118147E-4
8.927661973E0,-1.359135192E-2,6.413896382E-2,-4.581354442E-4
8.936814734E0,-1.038440317E-2,5.329642445E-2,-2.748812549E-3
8.945967494E0,-9.620844387E-3,3.878879920E-2,-3.359660041E-3
8.955120307E0,-1.267508045E-2,2.794626169E-2,-5.803049076E-3
8.964273067E0,-1.695101149E-2,2.137965336E-2,-7.635590620E-3
8.973425827E0,-1.557660475E-2,1.466033421E-2,-1.130067464E-2
8.982578640E0,-1.618745178E-2,6.872031838E-3,-1.191152167E-2
8.991731400E0,-1.542389300E-2,1.527118147E-4,-1.068982668E-2
9.000884161E0,-1.481304597E-2,-2.748812549E-3,-7.635590620E-3
9.010036973E0,-1.908897609E-2,-1.527118147E-3,-6.413896102E-3
9.019189734E0,-2.596100792E-2,-2.137965523E-3,-2.901524538E-3
9.028342494E0,-2.840439789E-2,-3.970507067E-3,-1.679830020E-3
9.037495255E0,-2.397575416E-2,-1.007897966E-2,-1.679830020E-3
9.046648067E0,-1.404948719E-2,-1.725643501E-2,-1.527118147E-3
9.055800827E0,-5.497625098E-3,-2.137965336E-2,-2.137965523E-3
9.064953588E0,1.374406274E-3,-2.809897438E-2,-7.635590737E-4
9.074106400E0,5.192201585E-3,-3.283303976E-2,-1.374406274E-3
9.083259161E0,3.054236295E-4,-3.894151375E-2,-1.985253533E-3
9.092411921E0,-7.177455351E-3,-4.245388508E-2,-2.748812549E-3
9.101564734E0,-1.572931744E-2,-4.199574888E-2,-2.137965523E-3
9.110717494E0,-1.832541823E-2,-3.359659761E-2,-3.970507067E-3
9.119870255E0,-1.832541823E-2,-2.214321308E-2,-5.192201585E-3
9.129023015E0,-1.542389300E-2,-1.236965694E-2,-6.413896102E-3
9.138175827E0,-9.162709117E-3,-1.053711493E-2,-5.803049076E-3
9.147328588E0,-6.719320081E-3,-1.420219894E-2,-2.748812549E-3
9.156481348E0,-5.497625098E-3,-2.031067200E-2,-2.137965523E-3
9.165634161E0,-1.038440317E-2,-2.321219631E-2,-9.162708884E-4
9.174786921E0,-1.771457121E-2,-2.565558441E-2,-2.137965523E-3
9.183939682E0,-1.771457121E-2,-2.626643144E-2,-2.748812549E-3
9.193092494E0,-1.588202827E-2,-2.504473738E-2,-4.581354558E-3
9.202245255E0,-1.160609815E-2,-2.382304333E-2,-5.192201585E-3
9.211398015E0,-6.719320081E-3,-2.260134928E-2,-7.024743594E-3
9.220550827E0,-2.901524538E-3,-2.443389036E-2,-1.007897966E-2
9.229703588E0,1.527118147E-4,-2.687728032E-2,-1.298050396E-2
9.238856348E0,-1.068982761E-3,-2.993151546E-2,-1.481304597E-2
9.248009109E0,-2.901524538E-3,-2.809897438E-2,-1.191152167E-2
9.257161921E0,-4.123218823E-3,-2.443389036E-2,-9.468132630E-3
9.266314682E0,-9.162709117E-3,-2.199050039E-2,-7.024743594E-3
9.275467442E0,-1.099525020E-2,-1.664558798E-2,-6.413896102E-3
9.284620255E0,-1.282779220E-2,-1.420219894E-2,-7.635590620E-3
9.293773015E0,-1.099525020E-2,-1.175880991E-2,-7.635590620E-3
9.302925775E0,-1.038440317E-2,-1.068982668E-2,-7.024743594E-3
9.312078588E0,-6.719320081E-3,-7.024743594E-3,-5.192201585E-3
9.321231348E0,-6.108472589E-4,-7.635590620E-3,-2.137965523E-3
9.330384109E0,3.054236295E-3,-7.482878864E-3,1.068982761E-3
9.339536921E0,4.275931045E-3,-2.137965523E-3,3.512371797E-3
9.348689682E0,6.566607859E-3,8.093725890E-3,4.734066315E-3
9.357842442E0,7.177455351E-3,2.015795931E-2,8.399149403E-3
9.366995255E0,5.192201585E-3,3.283303976E-2,1.007897966E-2
9.376148015E0,2.596100792E-3,4.611896724E-2,1.007897966E-2
9.385300775E0,-3.665083554E-3,5.573981255E-2,1.068982668E-2
9.394453588E0,-1.053711493E-2,6.062658876E-2,1.191152167E-2
9.403606348E0,-1.786728203E-2,6.001574174E-2,8.704573847E-3
9.412759109E0,-2.458660305E-2,4.963133857E-2,1.985253533E-3
9.421911921E0,-2.321219631E-2,3.878879920E-2,-2.901524538E-3
9.431064682E0,-1.695101149E-2,3.100049868E-2,-5.955760833E-3
9.440217442E0,-1.007897966E-2,2.611372061E-2,-7.024743594E-3
9.449370255E0,-7.635590620E-3,2.260134928E-2,-4.581354558E-3
9.458523015E0,-7.635590620E-3,1.771457121E-2,-4.581354558E-3
9.467675775E0,-1.191152167E-2,2.015795931E-2,-4.581354558E-3
9.476828588E0,-1.450762246E-2,2.076880634E-2,-3.359660041E-3
9.485981348E0,-1.206423342E-2,2.321219631E-2,-3.359660041E-3
9.495134161E0,-3.970507067E-3,2.443389036E-2,-3.054236295E-4
9.504286921E0,4.581354558E-3,2.382304333E-2,2.748812549E-3
9.513439682E0,1.206423342E-2,1.832541823E-2,5.344913341E-3
9.522592494E0,1.572931744E-2,1.359135192E-2,5.344913341E-3
9.531745255E0,1.832541823E-2,8.093725890E-3,4.123218823E-3
9.540898015E0,2.458660305E-2,5.803049076E-3,4.581354442E-4
9.550050827E0,3.497100621E-2,1.114796288E-2,-6.719320081E-3
9.559203588E0,4.963133857E-2,2.137965336E-2,-1.511846948E-2
9.568356400E0,6.200099736E-2,3.405473381E-2,-2.061609551E-2
9.577509161E0,6.429167092E-2,4.611896724E-2,-2.061609551E-2
9.586661973E0,5.558710173E-2,5.696150661E-2,-1.695101149E-2
9.595814734E0,3.527642787E-2,6.352811307E-2,-1.466033421E-2
9.604967546E0,1.603474095E-2,6.413896382E-2,-1.481304597E-2
9.614120307E0,4.428642802E-3,5.741964281E-2,-1.252236869E-2
9.623273119E0,1.130067464E-2,4.657710344E-2,-7.482878864E-3
9.632425880E0,3.161134571E-2,3.817795217E-2,-1.985253533E-3
9.641578692E0,5.207473040E-2,3.222219273E-2,-1.068982761E-3
9.650731452E0,6.001574174E-2,2.748812735E-2,-2.901524538E-3
9.659884213E0,5.329642445E-2,2.260134928E-2,-8.399149403E-3
9.669037025E0,4.413371533E-2,2.260134928E-2,-1.404948719E-2
9.678189786E0,4.718795046E-2,2.672456764E-2,-1.893626526E-2
9.687342598E0,6.200099736E-2,2.977880463E-2,-2.611372061E-2
9.696495359E0,8.353336155E-2,3.695625812E-2,-3.206948191E-2
9.705648171E0,1.020114943E-1,4.611896724E-2,-3.313846514E-2
9.714800984E0,1.148392856E-1,5.940489471E-2,-3.252761811E-2
9.723953744E0,1.232384369E-1,8.292251825E-2,-2.687728032E-2
9.733106505E0,1.217113137E-1,1.093416587E-1,-2.458660305E-2
9.742259317E0,1.091889441E-1,1.262926757E-1,-2.275406010E-2
9.751412130E0,8.704573661E-2,1.304158866E-1,-2.718270384E-2
9.760564890E0,5.940489471E-2,1.232384369E-1,-2.993151546E-2
9.769717702E0,2.993151546E-2,1.044548824E-1,-3.619270027E-2
9.778870463E0,4.886778072E-3,7.895200700E-2,-3.878879920E-2
9.788023275E0,-2.748812549E-3,5.008947477E-2,-3.573456407E-2
9.797176036E0,7.941014133E-3,1.817270555E-2,-3.191677108E-2
9.806328848E0,2.550287358E-2,-1.313321572E-2,-2.932066843E-2
9.815481609E0,4.535540938E-2,-4.672981426E-2,-2.183778957E-2
9.824634421E0,6.474980712E-2,-7.681404054E-2,-1.435491070E-2
9.833787234E0,8.475505561E-2,-1.021642014E-1,-1.053711493E-2
9.842939994E0,9.849911928E-2,-1.201841980E-1,-7.482878864E-3
9.852092807E0,1.009425074E-1,-1.345391124E-1,-7.330167107E-3
9.861245567E0,9.544488788E-2,-1.388150454E-1,-7.482878864E-3
9.870398380E0,8.933641016E-2,-1.369825006E-1,-6.261184346E-3
9.879551192E0,8.994726092E-2,-1.363716573E-1,-3.817795310E-3
9.888703952E0,9.910997003E-2,-1.382041872E-1,-5.497625098E-3
9.897856765E0,1.177408099E-1,-1.496575773E-1,-9.162709117E-3
9.907009577E0,1.383569092E-1,-1.695101112E-1,-2.000524849E-2
9.916162338E0,1.620272398E-1,-1.924168915E-1,-3.313846514E-2
9.925315150E0,1.887518018E-1,-2.032594234E-1,-4.214845970E-2
9.934467963E0,2.121167034E-1,-2.044811249E-1,-4.382828996E-2
9.943620723E0,2.292204350E-1,-1.918060333E-1,-4.062134400E-2
9.952773536E0,2.388412803E-1,-1.664558798E-1,-3.512371704E-2
9.961926348E0,2.429644912E-1,-1.411057115E-1,-3.145863488E-2
9.971079109E0,2.576248348E-1,-1.337755471E-1,-2.825168520E-2
9.980231921E0,2.904578745E-1,-1.440072358E-1,-2.137965336E-2
9.989384734E0,3.365768492E-1,-1.546970755E-1,-8.857285604E-3
9.998537494E0,3.852919042E-1,-1.508792788E-1,1.099525020E-2
1.000769031E1,4.324798584E-1,-1.380514801E-1,3.161134571E-2
1.001684312E1,4.723376334E-1,-1.264453828E-1,5.558710173E-2
1.002599593E1,5.097520351E-1,-1.119377613E-1,8.215895295E-2
1.003514869E1,5.482354164E-1,-9.361234307E-2,1.044548824E-1
1.004430150E1,5.949652195E-1,-7.666133344E-2,1.224748790E-1
1.005345432E1,6.531484127E-1,-5.543438718E-2,1.417165697E-1
1.006260713E1,7.246175408E-1,-4.550812021E-2,1.649287641E-1
1.007175989E1,8.138012886E-1,-4.718795046E-2,1.954711229E-1
1.008091270E1,9.167290330E-1,-6.551336497E-2,2.351761907E-1
1.009006552E1,1.030957460E0,-1.078145429E-1,2.886253297E-1
1.009921833E1,1.147781968E0,-1.646233350E-1,3.455868363E-1
1.010837114E1,1.258345366E0,-2.269297540E-1,3.970507085E-1
1.011752395E1,1.365396380E0,-2.845021188E-1,4.486673176E-1
1.012667671E1,1.469240427E0,-3.486410677E-1,4.982986450E-1
1.013582952E1,1.565296054E0,-4.326325655E-1,5.393781066E-1
1.014498234E1,1.648676753E0,-5.239542127E-1,5.674771070E-1
1.015413515E1,1.718313336E0,-6.189410090E-1,5.919110179E-1
1.016328796E1,1.776649237E0,-7.452336550E-1,6.369609833E-1
1.017244078E1,1.829792976E0,-8.707627654E-1,7.076665759E-1
1.018159354E1,1.872246861E0,-9.555178285E-1,7.855495811E-1
1.019074635E1,1.869803429E0,-1.054016948E0,8.362498879E-1
1.019989916E1,1.813605547E0,-1.187334418E0,8.444963098E-1
1.020905197E1,1.776649237E0,-1.318208337E0,8.168554902E-1
1.021820479E1,1.796349049E0,-1.433505774E0,7.731798887E-1
1.022735760E1,1.849645495E0,-1.511847019E0,7.314895988E-1
1.023651041E1,1.903552771E0,-1.530630469E0,6.952968836E-1
1.024566322E1,1.926154137E0,-1.490925431E0,6.659762263E-1
1.025481604E1,1.918671250E0,-1.410293579E0,6.548282504E-1
1.026396880E1,1.924321532E0,-1.361883998E0,6.731536984E-1
1.027312161E1,1.944174170E0,-1.402047157E0,7.235485911E-1
1.028227442E1,1.955627441E0,-1.468171358E0,7.834116220E-1
1.029142723E1,1.965553761E0,-1.489703774E0,8.269344568E-1
1.030058005E1,1.993652701E0,-1.466033459E0,8.411366940E-1
1.030973286E1,2.030761719E0,-1.409988165E0,8.284615874E-1
1.031888567E1,2.046643734E0,-1.312405348E0,7.962393761E-1
1.032803848E1,2.030608892E0,-1.159693480E0,7.466080785E-1
1.033719130E1,1.993041873E0,-9.833113551E-1,6.899519563E-1
1.034634411E1,1.940967202E0,-7.907418013E-1,6.351284385E-1
1.035549692E1,1.887670755E0,-5.951179266E-1,6.058077812E-1
1.036464973E1,1.835290551E0,-4.643966258E-1,6.132906675E-1
1.037380255E1,1.777870893E0,-4.036173224E-1,6.409314871E-1
1.038295536E1,1.715411782E0,-3.802524209E-1,6.453601122E-1
1.039210817E1,1.653258085E0,-3.802524209E-1,6.357392669E-1
1.040126098E1,1.596143842E0,-3.961344361E-1,6.171084642E-1
1.041041380E1,1.546665311E0,-4.330907166E-1,5.978667736E-1
1.041956661E1,1.515512109E0,-4.657710493E-1,5.738909841E-1
1.042871942E1,1.500851750E0,-4.665345848E-1,5.383091569E-1
1.043787223E1,1.487260342E0,-4.437805414E-1,4.941754341E-1
1.044702505E1,1.454732776E0,-4.289674759E-1,4.419479966E-1
1.045617786E1,1.395175099E0,-4.376720488E-1,3.946073353E-1
1.046533072E1,1.322942495E0,-4.758500159E-1,3.574983478E-1
1.047448354E1,1.244753957E0,-5.357130170E-1,3.271087110E-1
1.048363635E1,1.157250166E0,-5.987830162E-1,2.959555089E-1
1.049278916E1,1.061652541E0,-6.502469182E-1,2.611372173E-1
1.050194197E1,9.678874612E-1,-6.794148684E-1,2.220429778E-1
1.051109479E1,8.811471462E-1,-6.870504618E-1,1.811162084E-1
1.052024760E1,8.035695553E-1,-6.812474132E-1,1.433963925E-1
1.052940041E1,7.386670709E-1,-7.104153633E-1,1.110214889E-1
1.053855328E1,6.763606071E-1,-7.768449783E-1,8.567132801E-2
1.054770609E1,6.061131954E-1,-8.301414251E-1,5.833591148E-2
1.055685890E1,5.253286362E-1,-8.141067028E-1,2.229592577E-2
1.056601171E1,4.364503622E-1,-7.180509567E-1,-1.191152167E-2
1.057516452E1,3.391729295E-1,-5.604523420E-1,-4.337015375E-2
1.058431734E1,2.292204350E-1,-3.822376728E-1,-6.505523622E-2
1.059347020E1,1.097997949E-1,-1.980672181E-1,-7.085828483E-2
1.060262302E1,-6.413896102E-3,-2.596100792E-2,-5.650337040E-2
1.061177583E1,-1.119377613E-1,1.192679256E-1,-2.199050039E-2
1.062092864E1,-2.134911120E-1,2.247917950E-1,2.061609551E-2
1.063008145E1,-3.119902313E-1,2.464768738E-1,5.299099907E-2
1.063923432E1,-3.956763148E-1,1.601946950E-1,7.253811508E-2
1.064838713E1,-4.559974670E-1,1.542389300E-2,8.750387281E-2
1.065753994E1,-4.880669713E-1,-1.320957243E-1,1.032331884E-1
1.066669276E1,-4.845545888E-1,-2.568612695E-1,1.166718230E-1
1.067584557E1,-4.618005157E-1,-3.254288733E-1,1.262926757E-1
1.068499843E1,-4.077405334E-1,-3.187095523E-1,1.290414780E-1
1.069413848E1,-2.866400778E-1,-2.768665254E-1,1.261399537E-1
1.070330406E1,-1.476723254E-1,-2.273878902E-1,1.111742035E-1
1.071245687E1,-1.145338640E-1,-1.441599578E-1,1.046075895E-1
1.072159697E1,-2.003578991E-1,-1.314848661E-1,1.346918195E-1
1.073076255E1,-2.942756712E-1,-3.286358118E-1,1.646233350E-1
1.073991536E1,-3.600944579E-1,-5.004366040E-1,1.869192570E-1
1.074906822E1,-4.627167881E-1,-2.623589039E-1,2.104368806E-1
1.075822104E1,-6.113054156E-1,2.929012477E-1,1.991362125E-1
1.076737385E1,-6.998782754E-1,7.090409398E-1,1.678302884E-1
1.077651395E1,-6.543701291E-1,6.668924689E-1,1.479777545E-1
1.078567952E1,-5.396835804E-1,3.199312389E-1,1.343863904E-1
1.079483234E1,-5.169295073E-1,5.528167635E-2,1.267508119E-1
1.080398520E1,-6.012263894E-1,1.672194302E-1,1.168245375E-1
1.081313802E1,-6.998782754E-1,4.694361091E-1,6.826218218E-2
1.082229083E1,-7.660024762E-1,5.497625470E-1,-2.626643144E-2
1.083144369E1,-8.710681796E-1,4.129327536E-1,-1.337755471E-1
1.084059650E1,-1.068371892E0,2.622061968E-1,-2.266243398E-1
1.084974932E1,-1.216196895E0,1.942494214E-1,-2.790044844E-1
1.085888942E1,-1.216655016E0,1.177408099E-1,-2.916795611E-1
1.086805499E1,-1.136481285E0,5.161659420E-2,-2.843494117E-1
1.087720781E1,-1.071426034E0,-6.826218218E-2,-2.832804024E-1
1.088634791E1,-1.065317631E0,-1.308740228E-1,-2.837385535E-1
1.089551348E1,-1.086391807E0,-1.097997949E-1,-2.759502530E-1
1.090466630E1,-1.172368646E0,3.359659761E-2,-2.528907657E-1
1.091381916E1,-1.280641317E0,2.017323077E-1,-2.072299272E-1
1.092297197E1,-1.318055630E0,2.367033064E-1,-1.545443535E-1
1.093212484E1,-1.333479524E0,2.133384049E-1,-1.087308154E-1
1.094127765E1,-1.364021897E0,2.273878902E-1,-7.116370648E-2
1.095043052E1,-1.366923451E0,2.649549842E-1,-3.206948191E-2
1.095958333E1,-1.347529054E0,3.524588645E-1,9.468132630E-3
1.096873614E1,-1.318208337E0,4.425588250E-1,3.894151375E-2
1.097788901E1,-1.275296330E0,5.335750580E-1,4.825693369E-2
1.098704182E1,-1.223832488E0,6.354338527E-1,3.939964995E-2
1.099619468E1,-1.184890985E0,6.986565590E-1,3.115320951E-2
1.100534749E1,-1.134037971E0,7.409577370E-1,2.718270384E-2
1.101450036E1,-1.058750987E0,7.350019813E-1,1.740914769E-2
1.102365317E1,-9.859074950E-1,6.597150564E-1,-7.788302377E-3
1.103280604E1,-9.359707236E-1,5.398362875E-1,-3.542914242E-2
1.104195885E1,-9.139801860E-1,4.155288339E-1,-5.589252338E-2
1.105111171E1,-8.939749599E-1,3.312319219E-1,-6.429167092E-2
1.106026453E1,-8.502993584E-1,2.770192325E-1,-7.055285573E-2
1.106941739E1,-7.789829373E-1,2.168507725E-1,-6.093201414E-2
1.107857020E1,-7.175928354E-1,1.568350345E-1,-2.748812735E-2
1.108772307E1,-6.730009913E-1,1.753131598E-1,2.473931387E-2
1.109687588E1,-6.442911625E-1,2.501419485E-1,8.170082420E-2
1.110602874E1,-6.207735538E-1,3.558185399E-1,1.166718230E-1
1.111518156E1,-6.326850653E-1,5.245651007E-1,1.293469071E-1
1.112433442E1,-6.821636558E-1,6.215370893E-1,1.159082651E-1
1.113348723E1,-7.322531343E-1,6.659762263E-1,7.650861889E-2
1.114264010E1,-7.682931423E-1,7.783721089E-1,2.901524492E-2
1.115179291E1,-7.841751575E-1,8.547280431E-1,-1.557660475E-2
1.116094578E1,-7.699729800E-1,8.744278550E-1,-4.734066129E-2
1.117009864E1,-7.269082665E-1,8.696937561E-1,-6.230641901E-2
1.117925145E1,-6.722373962E-1,8.432746530E-1,-6.917845458E-2
1.118840432E1,-6.317687631E-1,7.895200849E-1,-7.864658535E-2
1.119755713E1,-6.374191046E-1,7.527165413E-1,-1.030804738E-1
1.120670999E1,-6.558972597E-1,7.621846795E-1,-1.403421611E-1
1.121586281E1,-6.583406329E-1,7.728744745E-1,-1.747023165E-1
1.122501567E1,-6.798729897E-1,7.890619636E-1,-2.035648525E-1
1.123416854E1,-7.206470370E-1,8.134958148E-1,-2.338017821E-1
1.124332135E1,-7.655443549E-1,8.742751479E-1,-2.512109280E-1
1.125247421E1,-8.069292307E-1,9.659022093E-1,-2.490729690E-1
1.126162708E1,-8.431219459E-1,1.065317631E0,-2.312056869E-1
1.127077989E1,-8.460234404E-1,1.108229637E0,-2.006633282E-1
1.127993276E1,-8.389987350E-1,1.137855768E0,-1.695101112E-1
1.128908557E1,-8.394568563E-1,1.180767775E0,-1.450762302E-1
1.129823843E1,-8.258655071E-1,1.165038466E0,-1.345391124E-1
1.130739130E1,-8.102889061E-1,1.156028390E0,-1.502684206E-1
1.131654411E1,-8.061656952E-1,1.181073189E0,-1.924168915E-1
1.132569697E1,-7.997517586E-1,1.202147365E0,-2.455606014E-1
1.133484979E1,-7.872294188E-1,1.190541267E0,-2.814478874E-1
1.134400265E1,-7.933378816E-1,1.180156946E0,-3.042019308E-1
1.135315552E1,-8.127322793E-1,1.154806733E0,-3.188622594E-1
1.136230838E1,-8.139539957E-1,1.095096469E0,-3.231382072E-1
1.137146119E1,-7.963921428E-1,1.049893737E0,-3.223746419E-1
1.138061406E1,-7.788302302E-1,1.010188699E0,-3.148917556E-1
1.138976692E1,-7.511894107E-1,9.524635673E-1,-2.994678617E-1
1.139891973E1,-7.302678823E-1,9.483403563E-1,-2.893888950E-1
1.140807260E1,-7.209524512E-1,1.018282413E0,-2.918322682E-1
1.141722546E1,-7.330167294E-1,1.056154966E0,-2.980934680E-1
1.142637828E1,-7.430956960E-1,1.007897973E0,-2.987042964E-1
1.143553114E1,-7.142331600E-1,8.771766424E-1,-2.959555089E-1
1.144468401E1,-6.507050395E-1,7.447755337E-1,-2.954973578E-1
1.145383687E1,-5.861079693E-1,6.791094542E-1,-3.011476994E-1
1.146298968E1,-5.561764240E-1,6.459710002E-1,-3.197785318E-1
1.147214255E1,-5.386145711E-1,5.717530251E-1,-3.495573401E-1
1.148129541E1,-5.224271417E-1,4.969242513E-1,-3.848337829E-1
1.149044828E1,-5.170822144E-1,4.582881629E-1,-4.072824121E-1
1.149960109E1,-5.060869455E-1,4.680617154E-1,-4.078932703E-1
1.150875395E1,-4.772244096E-1,4.729484916E-1,-3.888042867E-1
1.151790682E1,-4.349232614E-1,4.207210541E-1,-3.657447994E-1
1.152705963E1,-4.103366435E-1,4.272876680E-1,-3.515425920E-1
1.153621249E1,-4.008685052E-1,4.634803534E-1,-3.631486893E-1
1.154536536E1,-3.837648034E-1,5.091412067E-1,-3.953709006E-1
1.155451822E1,-3.733803928E-1,5.946598053E-1,-4.204156399E-1
1.156367109E1,-3.562766612E-1,6.809419990E-1,-4.222481549E-1
1.157282390E1,-3.136700690E-1,7.310314775E-1,-4.048390090E-1
1.158197676E1,-2.249445021E-1,7.192726731E-1,-3.645231128E-1
1.159112963E1,-9.239064902E-2,6.142069101E-1,-3.029802442E-1
1.160028249E1,7.941014320E-2,3.941491842E-1,-2.333436459E-1
1.160943531E1,2.837385535E-1,1.211004704E-1,-1.663031727E-1
1.161858817E1,5.263976455E-1,-1.753131598E-1,-1.088835225E-1
1.162772828E1,8.003626466E-1,-4.976878166E-1,-5.238015205E-2
1.163689390E1,1.084712029E0,-8.270871639E-1,6.719320081E-3
1.164604677E1,1.329661727E0,-1.099983215E0,7.513421029E-2
1.165518687E1,1.483442545E0,-1.233300567E0,1.302631795E-1
1.166435249E1,1.554300904E0,-1.108382344E0,1.647760421E-1
1.167350531E1,1.576596737E0,-7.040014863E-1,1.841704547E-1
1.168264541E1,1.600572586E0,-1.343863904E-1,1.846285909E-1
1.169181104E1,1.696475506E0,3.778090179E-1,1.769929975E-1
1.170096390E1,1.756644011E0,6.752916574E-1,2.095206082E-1
1.171010401E1,1.754964232E0,6.671979427E-1,3.090887070E-1
1.171926963E1,1.752673507E0,2.241809368E-1,4.595098495E-1
1.172842244E1,1.787644506E0,-4.637857676E-1,6.581879258E-1
1.173756260E1,1.895153642E0,-1.281710267E0,8.640434742E-1
1.174672817E1,2.062067747E0,-2.035953999E0,9.976662993E-1
1.175588104E1,2.210503578E0,-2.527991295E0,1.013701081E0
1.176502114E1,2.295411348E0,-2.760113239E0,9.662076235E-1
1.177418677E1,2.397881031E0,-2.889154911E0,9.103151560E-1
1.178333963E1,2.603430986E0,-2.904120684E0,8.440381885E-1
1.179247973E1,2.862277508E0,-2.776911736E0,7.449282408E-1
1.180164536E1,3.019570827E0,-2.531961918E0,6.256603003E-1
1.181079817E1,2.952072144E0,-2.233410358E0,5.346440673E-1
1.181993828E1,2.699028730E0,-1.914395332E0,5.349494815E-1
1.182910390E1,2.412235737E0,-1.526354551E0,6.346703172E-1
1.183825676E1,2.236617327E0,-1.039814711E0,7.924215794E-1
1.184740963E1,2.216764688E0,-5.541911721E-1,9.542961121E-1
1.185656249E1,2.301825285E0,-1.944021434E-1,1.080436110E0
1.186571536E1,2.407196283E0,1.247655526E-1,1.145796776E0
1.187485546E1,2.471640825E0,3.678827584E-1,1.155722976E0
1.188402109E1,2.466448545E0,5.442649126E-1,1.120904684E0
1.189317395E1,2.404600143E0,6.609367132E-1,1.065928459E0
1.190231406E1,2.307475567E0,7.455390692E-1,9.991934299E-1
1.191147963E1,2.193399906E0,7.172874212E-1,9.287932515E-1
1.192063249E1,2.085890770E0,5.607577562E-1,8.725953102E-1
1.192977260E1,2.012436390E0,3.116848171E-1,8.356390595E-1
1.193893822E1,1.970135093E0,2.519745007E-2,7.908945084E-1
1.194809109E1,1.937607527E0,-2.481566966E-1,7.310314775E-1
1.195724395E1,1.914700747E0,-4.763081372E-1,6.474980712E-1
1.196639682E1,1.881256819E0,-6.068767309E-1,5.355603099E-1
1.197554968E1,1.819255829E0,-6.670452356E-1,4.283566475E-1
1.198470255E1,1.737555027E0,-7.200362086E-1,3.336753249E-1
1.199385541E1,1.648218632E0,-7.637118101E-1,2.628170252E-1
1.200300828E1,1.549719453E0,-7.562289238E-1,2.255553454E-1
1.201216109E1,1.430757046E0,-6.817055345E-1,2.192941606E-1
1.202131395E1,1.296981454E0,-6.090146899E-1,2.316638231E-1
1.203046682E1,1.155264854E0,-5.567872524E-1,2.403683960E-1
1.203960692E1,1.006370902E0,-5.106683373E-1,2.276933193E-1
1.204877255E1,8.492304087E-1,-4.104893506E-1,1.892099380E-1
1.205792541E1,6.726955175E-1,-2.548760176E-1,1.476723254E-1
1.206706552E1,4.854708612E-1,-1.039967462E-1,1.308740228E-1
1.207623114E1,3.171824515E-1,-1.634016447E-2,9.788827598E-2
1.208538400E1,1.734806150E-1,-5.803049076E-3,6.139015034E-2
1.209453687E1,5.772506446E-2,-6.093201414E-2,3.436015919E-2
1.210368973E1,-6.139015034E-2,-1.107160673E-1,2.183778957E-2
1.211284260E1,-1.911951900E-1,-1.452289373E-1,1.924168877E-2
1.212199546E1,-2.927485406E-1,-2.141019702E-1,8.704573847E-3
1.213114833E1,-3.428380191E-1,-3.240544796E-1,-2.137965336E-2
1.214030114E1,-3.603998721E-1,-4.115583301E-1,-7.269082218E-2
1.214944124E1,-3.926220834E-1,-4.388937652E-1,-1.285833418E-1
1.215860687E1,-4.437805414E-1,-4.747810364E-1,-1.905843467E-1
1.216775973E1,-4.949389994E-1,-5.184566379E-1,-2.415900975E-1
1.217689984E1,-5.595360994E-1,-4.439332485E-1,-2.634278834E-1
1.218606546E1,-6.737645268E-1,-2.325800955E-1,-2.515163720E-1
1.219521833E1,-8.075400591E-1,-4.703523964E-2,-2.112004459E-1
1.220435843E1,-9.116895199E-1,6.688777357E-2,-1.508792788E-1
1.221352406E1,-9.840749502E-1,2.092151791E-1,-9.529217333E-2
1.222267692E1,-1.087308168E0,1.687465608E-1,-6.245913357E-2
1.223181703E1,-1.268729806E0,6.169557199E-2,-1.021642014E-1
1.224098265E1,-1.405254126E0,2.841966748E-1,-1.826433241E-1
1.225013546E1,-1.354248405E0,6.733064055E-1,-2.496838123E-1
1.225927562E1,-1.197260618E0,7.346965671E-1,-3.292466700E-1
1.226844119E1,-1.173590302E0,6.163448691E-1,-4.150707126E-1
1.227759406E1,-1.338519096E0,6.253548861E-1,-5.128062963E-1
1.228673416E1,-1.529561520E0,6.488724947E-1,-5.728220344E-1
1.229589979E1,-1.642415524E0,7.174401283E-1,-5.552601814E-1
1.230505265E1,-1.725032687E0,7.669187188E-1,-4.886777997E-1
1.231419276E1,-1.809787750E0,6.123743653E-1,-3.964398801E-1
1.232335838E1,-1.875911951E0,4.414898455E-1,-2.837385535E-1
1.233251124E1,-1.848271132E0,2.599155009E-1,-1.753131598E-1
1.234165135E1,-1.716328144E0,1.374406274E-3,-8.200624585E-2
1.235081692E1,-1.578429341E0,-2.831276953E-1,-2.229592577E-2
1.235996979E1,-1.493979692E0,-5.070032477E-1,5.955760833E-3
1.236912265E1,-1.423579574E0,-6.846070886E-1,3.038965166E-2
1.237827552E1,-1.347681761E0,-8.530482054E-1,7.269082218E-2
1.238742838E1,-1.295607090E0,-8.944330812E-1,1.201841980E-1
1.239656848E1,-1.258650780E0,-8.470924497E-1,1.630962193E-1
1.240573411E1,-1.258192658E0,-6.540647149E-1,2.191414535E-1
1.241488697E1,-1.256207347E0,-4.237752855E-1,2.776300907E-1
1.242402708E1,-1.218334913E0,-2.560977042E-1,3.095468581E-1
1.243319265E1,-1.190235853E0,-1.415638477E-1,2.930539846E-1
1.244234552E1,-1.173284888E0,-1.649287529E-2,2.278460264E-1
1.245149838E1,-1.130372882E0,6.810946763E-2,1.212531775E-1
1.246065124E1,-1.047603011E0,9.972081333E-2,-2.901524538E-3
1.246980411E1,-9.544488192E-1,1.507265568E-1,-1.163664013E-1
1.247894421E1,-8.745805621E-1,2.192941606E-1,-1.965401024E-1
1.248810984E1,-8.200624585E-1,2.751866877E-1,-2.548760176E-1
1.249726270E1,-7.756233215E-1,3.762819171E-1,-3.113794029E-1
1.250641552E1,-7.162184119E-1,4.538595080E-1,-3.746020794E-1
1.251556838E1,-6.749862432E-1,5.500679612E-1,-4.359922409E-1
1.252472124E1,-6.620057225E-1,6.384881139E-1,-4.859289825E-1
1.253387411E1,-6.742226481E-1,6.992673874E-1,-5.044071078E-1
1.254302697E1,-7.084301114E-1,7.288935184E-1,-4.894413650E-1
1.255217984E1,-7.209524512E-1,7.319477201E-1,-4.523324072E-1
1.256133265E1,-7.131641507E-1,7.345438004E-1,-4.014793634E-1
1.257048552E1,-7.172874212E-1,7.829535007E-1,-3.686463237E-1
1.257963838E1,-7.053758502E-1,7.516475320E-1,-3.794888556E-1
1.258879124E1,-7.380561829E-1,8.327375054E-1,-3.944546282E-1
1.259794411E1,-8.658760190E-1,1.002553105E0,-3.881934285E-1
1.260709697E1,-9.509364963E-1,1.186876178E0,-3.614688516E-1
1.261624984E1,-9.834640622E-1,1.356997132E0,-3.110739589E-1
1.262540265E1,-9.921686649E-1,1.481304646E0,-2.531961799E-1
1.263455552E1,-9.917105436E-1,1.483442545E0,-1.853921413E-1
1.264370838E1,-1.005454540E0,1.390288353E0,-1.055238619E-1
1.265286124E1,-1.003163934E0,1.282779217E0,-1.145338640E-2
1.266201411E1,-9.648332596E-1,1.098150611E0,6.291726977E-2
1.267116697E1,-9.376505613E-1,9.403993487E-1,1.041494608E-1
1.268031979E1,-9.370396733E-1,7.863131166E-1,1.171299592E-1
1.268947265E1,-9.628480077E-1,6.517740488E-1,1.059819981E-1
1.269862552E1,-9.881981611E-1,5.364766121E-1,7.116370648E-2
1.270777838E1,-9.907942414E-1,4.320217371E-1,2.107422985E-2
1.271693124E1,-1.035386086E0,4.191939235E-1,-2.809897438E-2
1.272608406E1,-1.075396657E0,3.555130959E-1,-7.284353673E-2
1.273523692E1,-1.077534556E0,2.739650011E-1,-1.241547018E-1
1.274438979E1,-1.056765795E0,2.467822880E-1,-1.710372269E-1
1.275354265E1,-9.906415343E-1,2.400629669E-1,-1.960819662E-1
1.276269552E1,-9.228374958E-1,2.305948436E-1,-1.980672181E-1
1.277184833E1,-8.762603998E-1,1.982199401E-1,-1.928750277E-1
1.278100119E1,-8.699992299E-1,1.305686086E-1,-1.969982386E-1
1.279015406E1,-8.554915786E-1,1.565296054E-1,-2.189887464E-1
1.279930692E1,-7.803573608E-1,2.589992285E-1,-2.519744933E-1
1.280845973E1,-7.001836896E-1,3.426853120E-1,-2.840439677E-1
1.281761260E1,-6.867450476E-1,3.643703759E-1,-3.089359999E-1
1.282676546E1,-6.998782754E-1,3.961344361E-1,-3.248180151E-1
1.283591833E1,-6.778877378E-1,4.106420577E-1,-3.303156495E-1
1.284507119E1,-6.091674566E-1,4.475983381E-1,-3.303156495E-1
1.285422400E1,-5.543438792E-1,4.561502039E-1,-3.300102353E-1
1.286337687E1,-5.173876286E-1,3.741439581E-1,-3.309265077E-1
1.287252973E1,-4.888305068E-1,2.964136302E-1,-3.342861533E-1
1.288168260E1,-4.895940721E-1,2.360924631E-1,-3.385621011E-1
1.289083541E1,-4.749337435E-1,1.940967143E-1,-3.377985358E-1
1.289998828E1,-4.346178174E-1,2.321219593E-1,-3.315373361E-1
1.290914114E1,-4.095730782E-1,2.525853515E-1,-3.312319219E-1
1.291829401E1,-4.179722369E-1,2.218902707E-1,-3.387148082E-1
1.292744682E1,-4.370612204E-1,1.644706279E-1,-3.448232710E-1
1.293659968E1,-4.318690002E-1,6.627693027E-2,-3.466558158E-1
1.294575255E1,-4.065188468E-1,-1.618745178E-2,-3.390202224E-1
1.295490541E1,-3.816268146E-1,-5.894676223E-2,-3.229855001E-1
1.296405822E1,-3.390202224E-1,-6.169557199E-2,-3.061871827E-1
1.297321109E1,-2.400629669E-1,-4.764608666E-2,-2.895416021E-1
1.298236395E1,-6.902574003E-2,-1.954711229E-2,-2.805316150E-1
1.299151682E1,1.805053651E-1,-1.191152167E-2,-2.768665254E-1
1.300065692E1,4.734066129E-1,-8.444963396E-2,-2.710634768E-1
1.300982249E1,7.806627750E-1,-2.730487287E-1,-2.492256761E-1
1.301897536E1,1.084864736E0,-4.789042473E-1,-1.895153672E-1
1.302812822E1,1.384943485E0,-5.691569448E-1,-1.043021679E-1
1.303728104E1,1.685785770E0,-4.755446017E-1,-2.046338283E-2
1.304643390E1,1.965553761E0,-2.247917950E-1,6.383354217E-2
1.305557400E1,2.210961580E0,1.398840249E-1,1.240019947E-1
1.306473958E1,2.365353346E0,4.596625566E-1,1.369825006E-1
1.307389244E1,2.412083149E0,5.398362875E-1,1.336228400E-1
1.308303255E1,2.429797649E0,2.644968629E-1,1.693574041E-1
1.309219817E1,2.481108904E0,-1.488940120E-1,2.786990702E-1
1.310135098E1,2.583120346E0,-4.795151055E-1,4.512633979E-1
1.311050385E1,2.671845913E0,-6.306998134E-1,6.200099587E-1
1.311965671E1,2.736290216E0,-6.571189165E-1,7.487460375E-1
1.312880953E1,2.816769361E0,-7.247702479E-1,8.304468393E-1
1.313796239E1,2.933441162E0,-9.799517393E-1,8.602256775E-1
1.314711526E1,3.089512825E0,-1.356386304E0,8.756495714E-1
1.315626807E1,3.249860048E0,-1.581941724E0,9.031376839E-1
1.316540817E1,3.339501858E0,-1.555827975E0,9.275715351E-1
1.317457380E1,3.322551012E0,-1.383416295E0,9.278770089E-1
1.318372661E1,3.207711697E0,-1.150988936E0,9.171871543E-1
1.319286671E1,3.047975063E0,-9.090934396E-1,9.147437811E-1
1.320203234E1,2.906563997E0,-6.271874309E-1,9.434536099E-1
1.321118515E1,2.813256979E0,-3.348970115E-1,9.914051294E-1
1.322033802E1,2.765916348E0,-1.093416587E-1,1.069135427E0
1.322949088E1,2.744078636E0,7.482878864E-2,1.166565537E0
1.323864369E1,2.727738380E0,2.203631550E-1,1.251167893E0
1.324779656E1,2.693989038E0,2.458660156E-1,1.310114622E0
1.325694942E1,2.637638569E0,1.928750277E-1,1.339588046E0
1.326610223E1,2.536848783E0,9.987352788E-2,1.327371120E0
1.327525510E1,2.411166906E0,-2.535016090E-2,1.273463845E0
1.328440796E1,2.313584089E0,-1.769929975E-1,1.191763043E0
1.329356078E1,2.241351366E0,-3.275668323E-1,1.083184958E0
1.330270088E1,2.165911674E0,-4.451549351E-1,9.721634388E-1
1.331186651E1,2.072146654E0,-5.557183027E-1,9.014578462E-1
1.332101932E1,1.974716425E0,-6.566607952E-1,8.513683677E-1
1.333017218E1,1.861251593E0,-6.992673874E-1,8.145648241E-1
1.333932505E1,1.738929391E0,-7.345438004E-1,7.740961909E-1
1.334847786E1,1.617218137E0,-7.392778993E-1,7.041541934E-1
1.335761796E1,1.471683741E0,-6.830799580E-1,6.267293096E-1
1.336678359E1,1.292705536E0,-6.336013079E-1,5.809157491E-1
1.337593640E1,1.103953719E0,-6.087092757E-1,5.557183027E-1
1.338507650E1,9.214630723E-1,-6.077930331E-1,5.392253995E-1
1.339424213E1,7.453863621E-1,-6.123743653E-1,5.166240931E-1
1.340339494E1,5.651864409E-1,-5.815265775E-1,4.718795121E-1
1.341253505E1,3.700207174E-1,-4.970769584E-1,4.100312293E-1
1.342170062E1,1.563768983E-1,-4.308000207E-1,3.498627543E-1
1.343085348E1,-6.230641901E-2,-4.126273096E-1,2.958027720E-1
1.344000635E1,-2.660239935E-1,-4.318690002E-1,2.545706034E-1
1.344915916E1,-4.208737612E-1,-4.781406820E-1,2.157817930E-1
1.345831203E1,-5.325061083E-1,-5.073086619E-1,1.753131598E-1
1.346746489E1,-6.328377724E-1,-4.460712075E-1,1.427855492E-1
1.347661770E1,-7.660024762E-1,-2.855710983E-1,1.282779276E-1
1.348577057E1,-9.213103652E-1,-1.556133330E-1,1.319430023E-1
1.349492338E1,-1.070967913E0,-1.678302884E-1,1.346918195E-1
1.350407624E1,-1.232689738E0,-2.079934925E-1,1.072036922E-1
1.351322911E1,-1.397771239E0,-1.736333370E-1,3.206948191E-2
1.352236916E1,-1.507418275E0,-7.727217674E-2,-7.925742865E-2
1.353153479E1,-1.555064440E0,8.612946421E-2,-1.921114624E-1
1.354068760E1,-1.558729529E0,3.298575282E-1,-3.022166789E-1
1.354982770E1,-1.538418770E0,5.230379701E-1,-3.993414044E-1
1.355899333E1,-1.470003963E0,3.461976945E-1,-4.596625566E-1
1.356814614E1,-1.266591787E0,2.443389036E-3,-4.770717025E-1
1.357728624E1,-1.007439852E0,8.551861346E-2,-4.398100376E-1
1.358645182E1,-9.979717135E-1,2.388412803E-1,-3.691044450E-1
1.359560468E1,-1.355317354E0,-1.024696305E-1,-2.730487287E-1
1.360474479E1,-1.552315593E0,-5.283828974E-1,-1.733279079E-1
1.361391036E1,-1.418081880E0,-3.374931216E-1,-1.059819981E-1
1.362306322E1,-1.482679009E0,2.252499312E-1,-1.165191159E-1
1.363220328E1,-1.798028946E0,5.625903010E-1,-1.592784226E-1
1.364136890E1,-1.931193590E0,6.455128193E-1,-1.725643575E-1
1.365052171E1,-1.729308605E0,7.189671993E-1,-1.180462316E-1
1.365966182E1,-1.593700528E0,7.007945180E-1,-7.192726433E-2
1.366882744E1,-1.620272398E0,5.184566379E-1,-1.036913246E-1
1.367798026E1,-1.659977436E0,2.687727809E-1,-1.417165697E-1
1.368712036E1,-1.694032192E0,-4.703523964E-2,-1.539335102E-1
1.369628593E1,-1.684105873E0,-3.941491842E-1,-1.670667231E-1
1.370543880E1,-1.628976941E0,-6.296308041E-1,-1.676775664E-1
1.371459161E1,-1.541778445E0,-6.174138784E-1,-1.346918195E-1
1.372374447E1,-1.416707516E0,-4.320217371E-1,-7.589777559E-2
1.373289734E1,-1.267049909E0,-3.784198761E-1,-1.878355257E-2
1.374205015E1,-1.194359064E0,-4.408790171E-1,1.359135192E-2
1.375120302E1,-1.213906169E0,-5.421269536E-1,9.162709117E-3
1.376035583E1,-1.255443811E0,-5.688515306E-1,-2.092151903E-2
1.376949593E1,-1.273005724E0,-4.401154518E-1,-6.933116168E-2
1.377866150E1,-1.264912009E0,-2.023431510E-1,-1.391204596E-1
1.378781437E1,-1.261094213E0,9.376505762E-2,-2.223484069E-1
1.379696718E1,-1.251778722E0,3.200839758E-1,-2.870981991E-1
1.380612005E1,-1.251473308E0,4.503471553E-1,-3.098522723E-1
1.381527291E1,-1.274685502E0,5.599942207E-1,-3.046600819E-1
1.382441296E1,-1.259414315E0,6.371136904E-1,-2.899997234E-1
1.383357859E1,-1.193595529E0,6.450546980E-1,-2.802261710E-1
1.384273140E1,-1.133579850E0,6.157340407E-1,-2.805316150E-1
1.385188426E1,-1.114643574E0,6.392516494E-1,-2.767138183E-1
1.386103708E1,-1.140604496E0,6.380299330E-1,-2.780882120E-1
1.387018994E1,-1.139077425E0,6.850652099E-1,-2.725905776E-1
1.387934276E1,-1.113879919E0,8.243383765E-1,-2.573194206E-1
1.388849562E1,-1.142895222E0,9.677347541E-1,-2.515163720E-1
1.389764843E1,-1.174201131E0,1.095249176E0,-2.713688910E-1
1.390680130E1,-1.132816195E0,1.181989431E0,-3.071034551E-1
1.391595411E1,-1.118614078E0,1.198176861E0,-3.431434333E-1
1.392510697E1,-1.157708287E0,1.242463350E0,-3.935383558E-1
1.393425984E1,-1.153737783E0,1.298966646E0,-4.424061179E-1
1.394341265E1,-1.111283898E0,1.323706031E0,-4.744756222E-1
1.395256552E1,-1.077839971E0,1.383874416E0,-4.802786708E-1
1.396171833E1,-1.089598775E0,1.529103398E0,-4.592044353E-1
1.397087119E1,-1.145949483E0,1.681662560E0,-4.297310412E-1
1.398002400E1,-1.181684017E0,1.720298648E0,-4.025483429E-1
1.398917687E1,-1.176186442E0,1.722283840E0,-3.830012381E-1
1.399832968E1,-1.168703556E0,1.775885701E0,-3.742966652E-1
1.400748255E1,-1.163358569E0,1.809024215E0,-3.779617548E-1
1.401663536E1,-1.149156451E0,1.752826214E0,-3.955236077E-1
1.402578822E1,-1.186265349E0,1.625617266E0,-4.190412164E-1
1.403494104E1,-1.214058876E0,1.489856482E0,-4.337015450E-1
1.404409390E1,-1.164885759E0,1.391051888E0,-4.424061179E-1
1.405324671E1,-1.069135427E0,1.298508525E0,-4.611896873E-1
1.406239958E1,-1.005301833E0,1.195428133E0,-4.924955964E-1
1.407155239E1,-9.707890153E-1,1.082115889E0,-5.257867575E-1
1.408070526E1,-9.784246087E-1,9.727742672E-1,-5.465555787E-1
1.408985807E1,-1.003163934E0,9.119949341E-1,-5.422796607E-1
1.409901093E1,-9.860602021E-1,9.193251133E-1,-5.172349215E-1
1.410816374E1,-9.281824231E-1,9.141329527E-1,-4.874561131E-1
1.411731661E1,-8.602256775E-1,8.251019120E-1,-4.839437306E-1
1.412646942E1,-8.498412371E-1,7.091936469E-1,-5.251759291E-1
1.413562229E1,-8.674030900E-1,6.450546980E-1,-5.839699507E-1
1.414477510E1,-8.247964978E-1,6.461237073E-1,-6.282563806E-1
1.415392796E1,-7.339329720E-1,6.305471063E-1,-6.500942111E-1
1.416308078E1,-6.644490957E-1,5.867187977E-1,-6.545228362E-1
1.417223364E1,-6.444438696E-1,5.464028716E-1,-6.500942111E-1
1.418138645E1,-6.760551929E-1,5.638120174E-1,-6.461237073E-1
1.419053932E1,-6.960604787E-1,5.920637250E-1,-6.449019909E-1
1.419969213E1,-6.766660213E-1,6.427640319E-1,-6.522321701E-1
1.420884499E1,-6.601731777E-1,7.252284288E-1,-6.600204706E-1
1.421799781E1,-6.817055345E-1,7.933378816E-1,-6.664343476E-1
1.422715067E1,-7.084301114E-1,8.070819378E-1,-6.635328531E-1
1.423630348E1,-7.270609736E-1,7.438592315E-1,-6.445965767E-1
1.424545635E1,-7.372926474E-1,6.505523324E-1,-6.142069101E-1
1.425460916E1,-7.469134927E-1,5.212054253E-1,-5.653391480E-1
1.426374927E1,-7.250757217E-1,2.460187376E-1,-4.982986450E-1
1.427291484E1,-6.380299330E-1,-7.162184268E-2,-4.199574888E-1
1.428206770E1,-4.779879749E-1,-3.796415627E-1,-3.399364948E-1
1.429120776E1,-2.617480457E-1,-6.719319820E-1,-2.806843221E-1
1.430037338E1,-5.436540768E-2,-9.113841057E-1,-2.657185495E-1
1.430952619E1,1.412584335E-1,-1.018282413E0,-2.727433145E-1
1.431866630E1,3.208475113E-1,-9.710944295E-1,-2.733541429E-1
1.432783187E1,4.729484916E-1,-8.218950033E-1,-2.577775419E-1
1.433698473E1,6.142069101E-1,-6.323796511E-1,-2.208212912E-1
1.434612479E1,7.634063363E-1,-4.529432356E-1,-1.466033459E-1
1.435529036E1,9.388722181E-1,-3.388675153E-1,-3.069507517E-2
1.436444322E1,1.141978979E0,-3.825430870E-1,1.142284349E-1
1.437359604E1,1.362952948E0,-5.677825212E-1,2.754921019E-1
1.438274890E1,1.604543090E0,-7.632536292E-1,4.066715539E-1
1.439190171E1,1.855601311E0,-9.698727131E-1,5.002838969E-1
1.440105458E1,2.128955364E0,-1.101662993E0,5.682406425E-1
1.441020739E1,2.338628769E0,-1.057834744E0,6.080984473E-1
1.441936026E1,2.415290117E0,-8.393041492E-1,6.610894203E-1
1.442851307E1,2.429645061E0,-7.739434838E-1,7.606575489E-1
1.443766593E1,2.443388939E0,-8.276980519E-1,8.732061386E-1
1.444681874E1,2.505084515E0,-9.626953006E-1,9.750649333E-1
1.445595885E1,2.608165026E0,-1.168856263E0,1.080894232E0
1.446512442E1,2.701166630E0,-1.349056125E0,1.181836724E0
1.447427723E1,2.769123316E0,-1.466949701E0,1.229482770E0
1.448343010E1,2.832040548E0,-1.587439299E0,1.198787689E0
1.449258291E1,2.897248507E0,-1.745496035E0,1.122431874E0
1.450173578E1,2.940465927E0,-1.924168825E0,1.044701576E0
1.451087583E1,2.923667669E0,-2.032747030E0,9.976662993E-1
1.452004145E1,2.869913101E0,-2.069703341E0,9.747595191E-1
1.452919427E1,2.797527790E0,-2.103605270E0,9.681929350E-1
1.453833437E1,2.749728918E0,-2.078407764E0,9.744541049E-1
1.454749994E1,2.746980190E0,-1.924016118E0,1.000567794E0
1.455665276E1,2.746521950E0,-1.607444525E0,1.057223916E0
1.456579286E1,2.708954811E0,-1.098608851E0,1.137855768E0
1.457495843E1,2.608317852E0,-4.807367921E-1,1.215433359E0
1.458411130E1,2.474389553E0,6.398624927E-2,1.270256877E0
1.459325135E1,2.352220058E0,3.518480062E-1,1.293010950E0
1.460241692E1,2.239976883E0,3.588727713E-1,1.287360549E0
1.461156979E1,2.110630035E0,2.935121059E-1,1.261399627E0
1.462070984E1,1.982962966E0,1.931804419E-1,1.214822531E0
1.462987546E1,1.869650722E0,7.803573459E-2,1.133427143E0
1.463902828E1,1.779092669E0,-3.023693897E-2,1.030957460E0
1.464818109E1,1.730377555E0,-1.863084137E-1,9.298622608E-1
1.465733395E1,1.719534993E0,-3.848337829E-1,8.322793841E-1
1.466648676E1,1.717397094E0,-5.839699507E-1,7.456917763E-1
1.467563963E1,1.698918939E0,-7.687512636E-1,6.797202826E-1
1.468479244E1,1.650051117E0,-9.269607067E-1,6.166502833E-1
1.469394526E1,1.564379811E0,-1.021336675E0,5.347967744E-1
1.470309812E1,1.445722699E0,-1.006829023E0,4.338542521E-1
1.471225093E1,1.309961915E0,-8.779402375E-1,3.436015844E-1
1.472140380E1,1.164885759E0,-6.740699410E-1,2.765611112E-1
1.473054385E1,1.014617324E0,-4.697415531E-1,2.283041626E-1
1.473970942E1,8.545753360E-1,-3.295520842E-1,2.008160353E-1
1.474886229E1,6.971294284E-1,-2.263189107E-1,1.959292591E-1
1.475801510E1,5.431959033E-1,-1.204896197E-1,2.064663768E-1
1.476716791E1,3.988832533E-1,-3.512371704E-2,1.870719790E-1
1.477632078E1,2.420482337E-1,2.519745007E-2,1.229330078E-1
1.478546083E1,6.108472496E-2,4.688252881E-2,4.352286831E-2
1.479462645E1,-9.880454093E-2,-3.268032894E-2,-4.062134400E-2
1.480377927E1,-2.061609477E-1,-1.270562261E-1,-1.171299592E-1
1.481293208E1,-2.525853515E-1,-2.153236568E-1,-1.685938388E-1
1.482208494E1,-2.470877171E-1,-3.449759781E-1,-1.844758689E-1
1.483123776E1,-2.367033064E-1,-4.787515402E-1,-1.792836636E-1
1.484039057E1,-2.941229641E-1,-5.546492934E-1,-1.528645307E-1
1.484954343E1,-4.411844313E-1,-5.992411375E-1,-1.067455560E-1
1.485869624E1,-6.174138784E-1,-7.000309825E-1,-6.642963737E-2
1.486783635E1,-7.504258752E-1,-8.490777016E-1,-7.452336699E-2
1.487700192E1,-8.194515705E-1,-8.970292211E-1,-1.227803007E-1
1.488615473E1,-8.247964978E-1,-8.296833038E-1,-1.490467340E-1
1.489530755E1,-7.939487100E-1,-7.663078904E-1,-1.427855492E-1
1.490446041E1,-7.447755337E-1,-6.352811456E-1,-1.162136942E-1
1.491361322E1,-6.765133142E-1,-3.465031087E-1,-8.292251825E-2
1.492275333E1,-7.408050299E-1,-6.383354217E-2,-5.986303091E-2
1.493191890E1,-1.041189194E0,2.748812549E-3,-3.054236295E-4
1.494107171E1,-1.490620017E0,2.148655206E-1,9.162709117E-3
1.495021182E1,-1.940509081E0,8.761076927E-1,-7.269082218E-2
1.495937739E1,-2.231119633E0,1.506807446E0,-1.655396074E-1
1.496853020E1,-2.224553108E0,2.327938795E0,-4.947862774E-2
1.497767031E1,-1.928750277E0,2.900760889E0,2.276933193E-1
1.498683588E1,-1.632947445E0,2.382151604E0,3.016058207E-1
1.499598869E1,-1.556591511E0,1.817728758E0,1.792836636E-1
1.500512880E1,-1.531394124E0,1.459466815E0,6.169557199E-2
1.501429437E1,-1.451373100E0,5.456393361E-1,-4.077405483E-2
1.502344718E1,-1.480693698E0,-6.681141853E-1,-1.867665499E-1
1.503260005E1,-1.572168112E0,-1.414111376E0,-2.997733057E-1
1.504175286E1,-1.584995866E0,-1.517191887E0,-2.863346636E-1
1.505090567E1,-1.464506269E0,-1.527423620E0,-1.896680743E-1
1.506004578E1,-1.318819284E0,-1.542389274E0,-6.108472496E-2
1.506921135E1,-1.213600755E0,-1.432589531E0,5.497625470E-2
1.507836416E1,-1.197871447E0,-1.354553819E0,1.267508119E-1
1.508750421E1,-1.253764033E0,-1.249793530E0,1.389677525E-1
1.509666984E1,-1.294843435E0,-9.764393568E-1,1.127013192E-1
1.510582265E1,-1.270104170E0,-6.890357137E-1,5.833591148E-2
1.511497546E1,-1.209935665E0,-4.289674759E-1,-7.330167107E-3
1.512412833E1,-1.196497083E0,-9.712471068E-2,-7.040014863E-2
1.513328114E1,-1.184432864E0,1.714953631E-1,-1.186570823E-1
1.514243395E1,-1.139688253E0,4.022429287E-1,-1.417165697E-1
1.515158677E1,-1.105938911E0,5.752654076E-1,-1.427855492E-1
1.516073963E1,-1.134954214E0,7.047650218E-1,-1.365243644E-1
1.516989244E1,-1.133732557E0,7.771504521E-1,-1.273616552E-1
1.517904526E1,-1.099983215E0,7.934905887E-1,-1.349972486E-1
1.518819812E1,-1.065470338E0,7.366818190E-1,-1.664558798E-1
1.519735093E1,-1.060430884E0,6.751389503E-1,-2.104368806E-1
1.520650374E1,-1.043479800E0,6.003101468E-1,-2.512109280E-1
1.521565661E1,-1.018435121E0,4.964661002E-1,-2.790044844E-1
1.522480942E1,-9.568922520E-1,3.669664860E-1,-2.906105816E-1
1.523396223E1,-9.014578462E-1,2.990097404E-1,-2.950392365E-1
1.524311505E1,-9.332218766E-1,3.465031087E-1,-3.045073450E-1
1.525226791E1,-9.918632507E-1,4.457657933E-1,-3.397837877E-1
1.526142072E1,-1.031568289E0,5.690042377E-1,-3.952181637E-1
1.527057354E1,-1.053406119E0,8.153283596E-1,-4.278984964E-1
1.527972635E1,-1.088224411E0,1.135259628E0,-4.253024161E-1
1.528887921E1,-1.124264359E0,1.366618037E0,-3.946073353E-1
1.529803203E1,-1.125333309E0,1.537349820E0,-3.652866483E-1
1.530718484E1,-1.105175376E0,1.699529767E0,-3.432961702E-1
1.531633765E1,-1.067913771E0,1.791309595E0,-3.242071867E-1
1.532549052E1,-1.015075445E0,1.873926640E0,-3.098522723E-1
1.533464333E1,-9.756757617E-1,1.874079347E0,-2.912214398E-1
1.534379614E1,-9.694145918E-1,1.780161619E0,-2.794626355E-1
1.535294895E1,-9.707890153E-1,1.659061193E0,-2.770192325E-1
1.536210182E1,-9.854493141E-1,1.580567241E0,-2.880144715E-1
1.537125463E1,-9.837695360E-1,1.533532023E0,-3.069507480E-1
1.538040744E1,-9.318475127E-1,1.449845910E0,-3.272614181E-1
1.538956026E1,-8.579349518E-1,1.270256877E0,-3.510844707E-1
1.539871307E1,-7.980719209E-1,1.064095974E0,-3.883461356E-1
1.540786593E1,-7.763868570E-1,9.465078115E-1,-4.454603493E-1
1.541701874E1,-7.966975570E-1,8.997780085E-1,-4.987567961E-1
1.542617156E1,-8.328902125E-1,8.906152844E-1,-5.363239050E-1
1.543532437E1,-8.313631415E-1,9.344435930E-1,-5.528167486E-1
1.544447723E1,-7.766922712E-1,1.016602516E0,-5.512896776E-1
1.545363005E1,-7.327113152E-1,1.125180602E0,-5.308262706E-1
1.546278286E1,-7.307260633E-1,1.098150611E0,-4.972296655E-1
1.547193567E1,-7.707365155E-1,9.445225596E-1,-4.595098495E-1
1.548108854E1,-7.927270532E-1,8.199097514E-1,-4.320217371E-1
1.549024135E1,-7.942541242E-1,7.272136807E-1,-4.179722369E-1
1.549939416E1,-7.672241330E-1,5.969504714E-1,-4.256078303E-1
1.550854697E1,-7.557707429E-1,5.022691488E-1,-4.657710493E-1
1.551769979E1,-7.711946368E-1,4.622586668E-1,-5.201364160E-1
1.552685265E1,-7.960866690E-1,4.402681589E-1,-5.752654076E-1
1.553600546E1,-8.254073858E-1,3.640649617E-1,-6.114581227E-1
1.554515828E1,-8.586985469E-1,2.151709497E-1,-6.177192926E-1
1.555431109E1,-8.730534315E-1,9.177979827E-2,-5.853443742E-1
1.556346390E1,-8.538117409E-1,4.688252881E-2,-5.212054253E-1
1.557261677E1,-8.151756525E-1,3.451287001E-2,-4.530959427E-1
1.558176958E1,-7.876875401E-1,4.810422286E-2,-4.124746025E-1
1.559092239E1,-7.713474035E-1,1.391204596E-1,-4.008685052E-1
1.560007520E1,-7.434011102E-1,2.655658424E-1,-4.155288339E-1
1.560921531E1,-6.867450476E-1,3.494046330E-1,-4.431696832E-1
1.561838088E1,-5.821374655E-1,3.874298632E-1,-4.724903405E-1
1.562753369E1,-4.268295169E-1,3.947600424E-1,-4.816530645E-1
1.563668650E1,-2.493783981E-1,3.776563108E-1,-4.462239146E-1
1.564583932E1,-7.834116369E-2,2.988570333E-1,-3.527642787E-1
1.565499213E1,8.154810965E-2,1.472141892E-1,-2.293731421E-1
1.566414499E1,2.443388999E-1,8.582404256E-2,-1.181989461E-1
1.567329781E1,4.430169761E-1,9.132166207E-2,-2.290677279E-2
1.568245062E1,6.994200945E-1,7.269082218E-2,4.672981426E-2
1.569159067E1,9.794935584E-1,2.015795931E-2,8.108997345E-2
1.570075624E1,1.258498073E0,-1.792836636E-1,1.113269106E-1
1.570990906E1,1.601183414E0,-4.141544402E-1,1.737860441E-1
1.571904916E1,1.909966707E0,-6.155813336E-1,2.970244884E-1
1.572821473E1,2.174005508E0,-8.699992299E-1,4.853181541E-1
1.573736755E1,2.449192047E0,-1.126096964E0,6.621584296E-1
1.574650760E1,2.737206459E0,-1.196955204E0,7.844805717E-1
1.575567317E1,2.987653971E0,-1.179851532E0,8.680139780E-1
1.576482598E1,3.121429443E0,-1.077076435E0,9.226847887E-1
1.577397885E1,3.125705481E0,-8.715263009E-1,9.475768209E-1
1.578313166E1,3.024304867E0,-7.101099491E-1,9.633061290E-1
1.579228447E1,2.914199591E0,-8.903098702E-1,9.918632507E-1
1.580142453E1,2.900150061E0,-1.315154195E0,9.933903813E-1
1.581059010E1,2.920918941E0,-1.550941229E0,9.448279738E-1
1.581974296E1,2.885184288E0,-1.519329786E0,8.834378719E-1
1.582888302E1,2.817227602E0,-1.347834468E0,8.480086923E-1
1.583804859E1,2.773857355E0,-1.112810969E0,8.506048322E-1
1.584720140E1,2.740566254E0,-7.831062078E-1,8.880192041E-1
1.585634145E1,2.685590029E0,-3.781144619E-1,9.379559755E-1
1.586550703E1,2.610303164E0,-2.076880634E-2,9.616262913E-1
1.587465984E1,2.515010834E0,2.206685692E-1,9.571976662E-1
1.588381270E1,2.418497086E0,3.350497186E-1,9.668185115E-1
1.589296552E1,2.340308666E0,3.723114133E-1,9.930849075E-1
1.590211833E1,2.272351742E0,3.610107303E-1,1.050046444E0
1.591127114E1,2.215695620E0,2.509055138E-1,1.132205367E0
1.592042395E1,2.164384604E0,1.064401343E-1,1.181989431E0
1.592957676E1,2.120861769E0,-4.367557913E-2,1.162747741E0
1.593871687E1,2.090624809E0,-2.200577259E-1,1.077839971E0
1.594788244E1,2.050614357E0,-4.465293586E-1,9.506310225E-1
1.595703526E1,1.995485306E0,-6.960604787E-1,8.093726039E-1
1.596618807E1,1.933942437E0,-9.245173335E-1,6.784985662E-1
1.597534088E1,1.866596460E0,-1.131136417E0,5.700731874E-1
1.598449369E1,1.773136854E0,-1.315917730E0,4.712686539E-1
1.599364651E1,1.645775199E0,-1.438392639E0,3.660502136E-1
1.600279932E1,1.498866439E0,-1.447860718E0,2.751866877E-1
1.601195213E1,1.342336893E0,-1.332715988E0,2.061609477E-1
1.602109223E1,1.165802002E0,-1.148851037E0,1.554606259E-1
1.603025781E1,9.668185115E-1,-9.466605186E-1,1.362189353E-1
1.603941062E1,7.759287357E-1,-7.423321605E-1,1.206423342E-1
1.604855067E1,6.033644080E-1,-5.286883116E-1,7.818844914E-2
1.605771624E1,4.344651103E-1,-3.121429384E-1,5.925218388E-2
1.606686906E1,2.573194206E-1,-1.514901221E-1,8.475505561E-2
1.607602187E1,7.895200700E-2,-7.269082218E-2,1.243074164E-1
1.608517468E1,-8.047912270E-2,-3.726168349E-2,1.452289373E-1
1.609432755E1,-2.295258641E-1,2.932066843E-2,1.360662282E-1
1.610346760E1,-3.961344361E-1,1.362189353E-1,1.049130186E-1
1.611263317E1,-5.864133835E-1,1.417165697E-1,5.955760926E-2
1.612178598E1,-7.586722970E-1,5.497625470E-2,-4.428642802E-3
1.613092604E1,-8.866447806E-1,-7.620319724E-2,-8.276980370E-2
1.614009161E1,-9.659022093E-1,-1.995943487E-1,-1.821851879E-1
1.614924442E1,-9.174925685E-1,-1.061347127E-1,-3.162661791E-1
1.615838447E1,-6.934643388E-1,3.504736125E-1,-4.677563012E-1
1.616755005E1,-5.951179266E-1,6.407787800E-1,-5.453338623E-1
1.617670286E1,-1.002094984E0,-1.957765520E-1,-3.912476599E-1
1.618584296E1,-1.792073131E0,-1.052642584E0,-2.405211031E-1
1.619500854E1,-2.601598501E0,-7.133168578E-1,-1.837123185E-1
1.620416135E1,-2.525089741E0,8.276980519E-1,-3.390202299E-2
1.621330140E1,-1.855906725E0,2.357870340E0,1.779092699E-1
1.622246697E1,-1.579803705E0,2.082378387E0,3.710897267E-2
1.623161979E1,-1.543152928E0,8.076927662E-1,-3.133646548E-1
1.624075984E1,-1.671736240E0,6.642963737E-2,-4.182776511E-1
1.624992541E1,-1.887823462E0,-1.832541823E-1,-3.779617548E-1
1.625907822E1,-1.862778664E0,-3.628432751E-1,-4.136963189E-1
1.626821833E1,-1.712815762E0,-4.840964675E-1,-4.969242513E-1
1.627738390E1,-1.512152433E0,-4.498890042E-1,-4.837910235E-1
1.628653671E1,-1.388303161E0,-4.511106908E-1,-3.614688516E-1
1.629567676E1,-1.402963400E0,-3.770454824E-1,-2.235700935E-1
1.630484234E1,-1.439003468E0,-1.760767251E-1,-1.366770715E-1
1.631399515E1,-1.398534775E0,-1.038440317E-2,-1.346918195E-1
1.632314796E1,-1.322178841E0,2.748812735E-2,-2.104368806E-1
1.633230078E1,-1.275449038E0,9.620844387E-3,-3.060344756E-1
1.634145359E1,-1.254985690E0,4.672981426E-2,-3.895678520E-1
1.635059364E1,-1.222916245E0,1.995943487E-1,-4.401154518E-1
1.635975921E1,-1.196038961E0,3.793361485E-1,-4.413371384E-1
1.636891202E1,-1.165649295E0,4.825693369E-1,-4.136963189E-1
1.637806484E1,-1.180767775E0,5.748072863E-1,-3.833066523E-1
1.638721765E1,-1.177408099E0,6.091674566E-1,-3.753656447E-1
1.639637052E1,-1.155112147E0,5.140279531E-1,-3.752129376E-1
1.640552333E1,-1.131747246E0,4.677563012E-1,-3.781144619E-1
1.641467614E1,-1.093874693E0,4.327852726E-1,-3.802524209E-1
1.642382895E1,-1.021489382E0,3.959817290E-1,-3.888042867E-1
1.643298176E1,-9.691091776E-1,4.135435820E-1,-4.098785222E-1
1.644213458E1,-9.717052579E-1,5.164713860E-1,-4.501944184E-1
1.645128739E1,-9.639169574E-1,6.374191046E-1,-5.002838969E-1
1.646044020E1,-9.352071285E-1,8.307522535E-1,-5.412106514E-1
1.646959302E1,-9.326110482E-1,9.788827300E-1,-5.821374655E-1
1.647874583E1,-9.289459586E-1,1.126860499E0,-6.317687631E-1
1.648789864E1,-9.152019024E-1,1.208714008E0,-6.700994372E-1
1.649705145E1,-9.045121074E-1,1.262773991E0,-6.963658929E-1
1.650620426E1,-9.385668039E-1,1.417012930E0,-7.046123147E-1
1.651535708E1,-9.958337545E-1,1.610346079E0,-6.966713071E-1
1.652450989E1,-1.006218195E0,1.736944199E0,-6.784985662E-1
1.653366276E1,-9.767447710E-1,1.807649732E0,-6.325323582E-1
1.654281557E1,-9.830059409E-1,1.847202063E0,-5.593833923E-1
1.655196838E1,-9.894198179E-1,1.907065153E0,-4.683671296E-1
1.656112119E1,-9.686510563E-1,1.966011882E0,-3.871244490E-1
1.657026124E1,-9.410101771E-1,2.004800797E0,-3.252761662E-1
1.657942682E1,-9.631534219E-1,1.908439517E0,-2.851129472E-1
1.658857963E1,-1.009119630E0,1.678302884E0,-2.730487287E-1
1.659771968E1,-1.055696726E0,1.437781692E0,-2.774773538E-1
1.660688526E1,-1.088529825E0,1.174353838E0,-2.927485406E-1
1.661603807E1,-1.103495598E0,9.295567870E-1,-3.176405728E-1
1.662519088E1,-1.118308663E0,6.690304875E-1,-3.506263196E-1
1.663434369E1,-1.128234863E0,3.344388604E-1,-3.724641204E-1
1.664349650E1,-1.105328083E0,-1.618745178E-2,-3.768927455E-1
1.665264932E1,-1.075549364E0,-2.463241518E-1,-3.727695346E-1
1.666180213E1,-1.122737288E0,-3.555130959E-1,-3.755183518E-1
1.667095494E1,-1.179393291E0,-4.225535989E-1,-3.845283389E-1
1.668009505E1,-1.172215939E0,-5.418215394E-1,-3.880407214E-1
1.668926062E1,-1.107924223E0,-6.242858768E-1,-3.868190348E-1
1.669841338E1,-1.046839476E0,-5.838172436E-1,-3.718532622E-1
1.670755348E1,-1.013701081E0,-4.317162931E-1,-3.521534503E-1
1.671671906E1,-9.631534219E-1,-2.936648130E-1,-3.426853120E-1
1.672587187E1,-8.878664970E-1,-2.182251811E-1,-3.532224298E-1
1.673502468E1,-8.218950033E-1,-2.079934925E-1,-3.936910629E-1
1.674417749E1,-7.603521347E-1,-2.389939874E-1,-4.494308829E-1
1.675333031E1,-6.815528274E-1,-2.774773538E-1,-4.995203316E-1
1.676248312E1,-5.798467398E-1,-2.539597452E-1,-5.311316848E-1
1.677163593E1,-4.431696832E-1,-9.345962852E-2,-5.389199853E-1
1.678078874E1,-2.754921019E-1,9.849911928E-2,-5.158604980E-1
1.678992880E1,-7.941014320E-2,2.658712566E-1,-4.608842432E-1
1.679909437E1,1.579040140E-1,3.697153032E-1,-3.651339412E-1
1.680827380E1,4.126273096E-1,3.452814221E-1,-2.333436459E-1
1.681739999E1,6.270347238E-1,2.257080674E-1,-8.643488586E-2
1.682655281E1,7.728744745E-1,1.227803007E-1,4.169032723E-2
1.683570562E1,8.950439692E-1,1.233911440E-1,1.617218107E-1
1.684485843E1,1.054780483E0,2.000524700E-1,2.733541429E-1
1.685401124E1,1.255749226E0,1.650814712E-1,3.596363366E-1
1.686316406E1,1.490314603E0,3.130592033E-2,4.126273096E-1
1.687230411E1,1.693115830E0,-6.581879407E-2,4.618005157E-1
1.688146968E1,1.843384266E0,-3.205420971E-1,5.754181147E-1
1.689062249E1,1.978534222E0,-1.075091124E0,7.907418013E-1
1.689976255E1,2.172172785E0,-1.870719671E0,1.000262380E0
1.690892812E1,2.435447931E0,-2.360313892E0,1.130067468E0
1.691808093E1,2.659628868E0,-2.565405846E0,1.167787194E0
1.692722098E1,2.788517714E0,-2.642372608E0,1.138772011E0
1.693638656E1,2.861972094E0,-2.614884377E0,1.070357084E0
1.694553937E1,2.930234194E0,-2.428117752E0,1.000567794E0
1.695467942E1,3.000634432E0,-2.281819820E0,9.489512444E-1
1.696384499E1,3.017738104E0,-2.381387949E0,9.191724062E-1
1.697299781E1,2.946727276E0,-2.577317238E0,9.139801860E-1
1.698213786E1,2.834942102E0,-2.551508904E0,9.156600237E-1
1.699130343E1,2.724378824E0,-2.052599430E0,9.437590241E-1
1.700045630E1,2.660850763E0,-1.247808218E0,1.036149621E0
1.700960906E1,2.643288851E0,-5.254813433E-1,1.171604991E0
1.701876187E1,2.626337767E0,-4.535540938E-2,1.295759797E0
1.702791468E1,2.599766016E0,3.381039500E-1,1.371046662E0
1.703705473E1,2.537306786E0,6.985038519E-1,1.383874416E0
1.704622031E1,2.418955088E0,9.344435930E-1,1.351652265E0
1.705537312E1,2.290524483E0,1.058140159E0,1.303700805E0
1.706451322E1,2.183015347E0,1.022863746E0,1.274838209E0
1.707367874E1,2.071230412E0,8.425110579E-1,1.274074674E0
1.708283156E1,1.979603291E0,5.441122055E-1,1.269493341E0
1.709197166E1,1.907523274E0,2.110477239E-1,1.222763538E0
1.710113718E1,1.859877229E0,-1.172826737E-1,1.090667725E0
1.711028999E1,1.818339586E0,-4.320217371E-1,9.148964882E-1
1.711944286E1,1.770388126E0,-7.351546884E-1,7.626428008E-1
1.712859562E1,1.721520305E0,-1.003316641E0,6.397097707E-1
1.713774843E1,1.668223858E0,-1.186876178E0,5.265503526E-1
1.714690124E1,1.586675763E0,-1.264606595E0,4.228590131E-1
1.715605406E1,1.466796994E0,-1.254374862E0,3.298575282E-1
1.716520687E1,1.317902923E0,-1.177102685E0,2.560977042E-1
1.717434697E1,1.163663983E0,-1.048672080E0,1.827960461E-1
1.718351255E1,1.000262380E0,-8.774821162E-1,1.166718230E-1
1.719266531E1,8.073873520E-1,-6.586460471E-1,7.360709459E-2
1.720181812E1,5.880932212E-1,-4.666872919E-1,5.986303091E-2
1.721097093E1,3.663556576E-1,-3.405473530E-1,6.719319522E-2
1.722012374E1,1.754658818E-1,-2.486148328E-1,9.147437662E-2
1.722927656E1,1.740914769E-2,-1.559187621E-1,1.197260618E-1
1.723842937E1,-1.269035190E-1,-1.206423342E-2,1.331647038E-1
1.724758223E1,-2.747285664E-1,1.913478971E-1,1.278197914E-1
1.725673505E1,-4.315635860E-1,3.700207174E-1,1.123958975E-1
1.726588781E1,-5.580089688E-1,4.590517282E-1,9.865183383E-2
1.727504067E1,-6.223006248E-1,4.943281412E-1,8.231166750E-2
1.728418072E1,-6.354338527E-1,5.308262706E-1,2.840439789E-2
1.729334624E1,-7.600467205E-1,5.176930428E-1,-5.909947306E-2
1.730249906E1,-1.087002754E0,3.996468186E-1,-1.902789176E-1
1.731163916E1,-1.438087106E0,3.038965166E-1,-3.434488773E-1
1.732080473E1,-1.515817523E0,4.569137394E-1,-5.108210444E-1
1.732995749E1,-1.085170150E0,9.477295280E-1,-7.505785823E-1
1.733909760E1,-4.845545888E-1,1.357149839E0,-9.645278454E-1
1.734826317E1,-5.271611810E-1,4.957025647E-1,-8.756495714E-1
1.735741593E1,-1.392426372E0,-8.562551737E-1,-7.160657048E-1
1.736655604E1,-2.449039459E0,-1.086544514E0,-6.378772259E-1
1.737572156E1,-2.436669827E0,-7.223268598E-2,-4.430169761E-1
1.738487437E1,-1.881867647E0,1.294996142E0,-1.006370857E-1
1.739401447E1,-1.759392858E0,1.407544851E0,1.068982668E-2
1.740317999E1,-1.714648247E0,3.857500553E-1,-1.079672500E-1
1.741233281E1,-1.391662717E0,-2.206685692E-1,-1.663031727E-1
1.742148562E1,-1.185959935E0,-7.592831254E-1,-1.856975704E-1
1.743063843E1,-1.319430113E0,-1.278656006E0,-3.048127890E-1
1.743979124E1,-1.398992896E0,-1.352263093E0,-4.353813827E-1
1.744893135E1,-1.242463350E0,-1.193137407E0,-4.776825607E-1
1.745809687E1,-1.156944752E0,-9.878927469E-1,-4.272876680E-1
1.746724968E1,-1.240783453E0,-6.792621613E-1,-3.431434333E-1
1.747638979E1,-1.305075169E0,-3.439069986E-1,-2.577775419E-1
1.748555531E1,-1.302784443E0,-7.559234649E-2,-2.078407854E-1
1.749470812E1,-1.295301557E0,1.287360638E-1,-2.122694254E-1
1.750386093E1,-1.280488610E0,3.497100472E-1,-2.428117841E-1
1.751301380E1,-1.222458124E0,5.063923597E-1,-2.779355049E-1
1.752216656E1,-1.174048424E0,6.148177385E-1,-3.148917556E-1
1.753130666E1,-1.167787194E0,6.751389503E-1,-3.338280320E-1
1.754047218E1,-1.157860994E0,6.673506498E-1,-3.216110766E-1
1.754962499E1,-1.118614078E0,6.795675755E-1,-2.779355049E-1
1.755877781E1,-1.091431379E0,7.637118101E-1,-2.038702667E-1
1.756793062E1,-1.083643079E0,8.231166601E-1,-1.189625040E-1
1.757708343E1,-1.063790560E0,8.467870355E-1,-5.543438718E-2
1.758623624E1,-1.008814216E0,8.199097514E-1,-2.137965336E-2
1.759538906E1,-9.866710305E-1,7.548545003E-1,-1.756185852E-2
1.760454187E1,-1.037218690E0,6.192464232E-1,-3.497100621E-2
1.761369468E1,-1.077381849E0,5.063923597E-1,-5.772506446E-2
1.762284749E1,-1.073869467E0,4.712686539E-1,-8.765657991E-2
1.763200031E1,-1.050962687E0,4.017847776E-1,-1.221694499E-1
1.764115312E1,-1.010952234E0,2.962609231E-1,-1.737860441E-1
1.765030593E1,-9.831586480E-1,2.447970361E-1,-2.363978922E-1
1.765945874E1,-9.610154629E-1,2.102841735E-1,-2.936648130E-1
1.766861156E1,-8.991671801E-1,1.945548505E-1,-3.260397315E-1
1.767776437E1,-8.101361990E-1,2.440334857E-1,-3.414636254E-1
1.768691718E1,-7.756233215E-1,3.953709006E-1,-3.425326049E-1
1.769606999E1,-7.704311013E-1,5.677825212E-1,-3.278722763E-1
1.770522281E1,-7.960866690E-1,6.679614782E-1,-3.019112647E-1
1.771437562E1,-8.415948153E-1,7.125533223E-1,-2.913741469E-1
1.772352843E1,-8.933641315E-1,8.498412371E-1,-2.880144715E-1
1.773268124E1,-9.510892034E-1,1.032331824E0,-2.941229641E-1
1.774183406E1,-9.626953006E-1,1.240172625E0,-3.046600819E-1
1.775098687E1,-9.344435930E-1,1.463742733E0,-3.022166789E-1
1.776013968E1,-9.274188280E-1,1.558424115E0,-2.802261710E-1
1.776929249E1,-9.306257963E-1,1.497033954E0,-2.502946556E-1
1.777843255E1,-9.031376839E-1,1.439919710E0,-2.354816198E-1
1.778759812E1,-8.869501948E-1,1.373031974E0,-2.536543310E-1
1.779675093E1,-8.861866593E-1,1.157097459E0,-2.987042964E-1
1.780590374E1,-8.246437907E-1,8.425110579E-1,-3.565820754E-1
1.781505656E1,-7.461498976E-1,6.410841942E-1,-4.127800465E-1
1.782420937E1,-8.098307252E-1,5.515950918E-1,-4.766135812E-1
1.783336218E1,-9.501729012E-1,4.179722369E-1,-5.257867575E-1
1.784251499E1,-9.385668039E-1,3.003841341E-1,-5.431959033E-1
1.785166781E1,-8.512156606E-1,3.245126009E-1,-5.512896776E-1
1.786082062E1,-8.855758309E-1,3.057290614E-1,-5.691569448E-1
1.786997343E1,-9.851438999E-1,1.476723254E-1,-5.929799676E-1
1.787912624E1,-1.021336675E0,1.068982761E-3,-6.157340407E-1
1.788827906E1,-1.000262380E0,-7.605048269E-2,-6.380299330E-1
1.789743187E1,-9.889616966E-1,-7.788302749E-2,-6.543701291E-1
1.790658468E1,-9.894198179E-1,-2.550287358E-2,-6.649072170E-1
1.791573749E1,-9.518527389E-1,-2.428117767E-2,-6.615476012E-1
1.792489031E1,-8.806890249E-1,-6.749862432E-2,-6.445965767E-1
1.793404312E1,-8.305995464E-1,-2.993151546E-2,-6.235223413E-1
1.794319593E1,-8.173136115E-1,1.369825006E-1,-6.033644080E-1
1.795234874E1,-7.925743461E-1,4.010212123E-1,-5.832064152E-1
1.796150156E1,-6.978929639E-1,6.152759194E-1,-5.619794726E-1
1.797064161E1,-5.170822144E-1,6.548282504E-1,-5.399889946E-1
1.797980718E1,-2.770192325E-1,4.763081372E-1,-5.051707029E-1
1.798895999E1,-4.611896724E-2,1.733279079E-1,-4.355340898E-1
1.799811281E1,1.203369126E-1,-6.826218218E-2,-3.297048211E-1
1.800726562E1,2.437280566E-1,-1.550024897E-1,-1.890572309E-1
1.801641843E1,3.987305462E-1,2.428117767E-2,-4.275930673E-2
1.802557124E1,5.971031785E-1,3.872771561E-1,8.551861346E-2
1.803472406E1,8.035695553E-1,5.561764240E-1,1.852394342E-1
1.804387687E1,1.040883780E0,4.520269632E-1,2.773246467E-1
1.805301692E1,1.309198380E0,2.855710872E-2,3.826957941E-1
1.806218249E1,1.595533013E0,-5.001311898E-1,5.212054253E-1
1.807133531E1,1.870872498E0,-1.051573515E0,7.081246972E-1
1.808047541E1,2.095664263E0,-1.466338873E0,8.877137899E-1
1.808964093E1,2.285790443E0,-1.684258580E0,9.929322004E-1
1.809879374E1,2.455300570E0,-1.760614514E0,1.006370902E0
1.810793385E1,2.584189415E0,-1.742441773E0,9.602518678E-1
1.811709942E1,2.675205469E0,-1.684716702E0,8.906152844E-1
1.812625218E1,2.749118090E0,-1.645164371E0,8.215895891E-1
1.813539229E1,2.776758909E0,-1.613247633E0,7.685985565E-1
1.814455781E1,2.710176468E0,-1.604543090E0,7.375980616E-1
1.815371062E1,2.592741251E0,-1.696933627E0,7.313368917E-1
1.816285072E1,2.489813328E0,-1.710219622E0,7.501204610E-1
1.817201630E1,2.452093601E0,-1.501157165E0,7.779139876E-1
1.818116906E1,2.427048922E0,-1.125638843E0,8.231166601E-1
1.819032187E1,2.377264738E0,-6.945333481E-1,8.933641315E-1
1.819947473E1,2.345195293E0,-3.164188862E-1,9.856020808E-1
1.820862749E1,2.365658760E0,6.001574174E-2,1.066691995E0
1.821776760E1,2.404600143E0,3.686463237E-1,1.107007980E0
1.822693312E1,2.382915258E0,4.578300118E-1,1.098914266E0
1.823608593E1,2.289608240E0,3.640649617E-1,1.058598280E0
1.824522604E1,2.171714783E0,2.017323077E-1,1.012784719E0
1.825439161E1,2.051988602E0,9.407047927E-2,9.674293399E-1
1.826354442E1,1.954863906E0,-4.489727318E-2,9.167290330E-1
1.827269723E1,1.896528006E0,-1.850867122E-1,8.528954983E-1
1.828185005E1,1.884616494E0,-3.365768492E-1,7.815790772E-1
1.829100286E1,1.898971438E0,-4.688252807E-1,7.090409398E-1
1.830015567E1,1.898360610E0,-5.722111464E-1,6.424586177E-1
1.830930848E1,1.861709714E0,-6.478035450E-1,5.697677732E-1
1.831846130E1,1.791462302E0,-6.867450476E-1,4.934118688E-1
1.832761411E1,1.695406556E0,-6.690304875E-1,4.262186885E-1
1.833676692E1,1.584690452E0,-5.954233408E-1,3.771981895E-1
1.834591973E1,1.458092451E0,-4.824166298E-1,3.347443044E-1
1.835507255E1,1.311489105E0,-3.352024257E-1,2.907632887E-1
1.836422536E1,1.146713018E0,-1.554606259E-1,2.596100867E-1
1.837337817E1,9.776610136E-1,1.542389300E-2,2.539597452E-1
1.838251822E1,8.064711094E-1,1.243074164E-1,2.654131353E-1
1.839168380E1,6.468872428E-1,1.829487532E-1,2.472404242E-1
1.840083661E1,4.851654470E-1,2.205158621E-1,2.166980654E-1
1.840998942E1,3.048127890E-1,2.153236568E-1,1.959292591E-1
1.841914223E1,1.215586066E-1,1.119377613E-1,1.769929975E-1
1.842829505E1,-2.962609194E-2,-6.551336497E-2,1.522536725E-1
1.843744786E1,-1.145338640E-1,-2.802261710E-1,1.224748790E-1
1.844660067E1,-1.429382563E-1,-4.828747511E-1,9.254335612E-2
1.845575348E1,-1.934858710E-1,-5.940489769E-1,5.864133686E-2
1.846489354E1,-3.239017725E-1,-5.456393361E-1,2.107422985E-2
1.847405911E1,-5.748072863E-1,-3.845283389E-1,-1.634016447E-2
1.848321192E1,-8.533536196E-1,-2.237228155E-1,-6.291726977E-2
1.849236473E1,-1.064248681E0,-1.212531775E-1,-1.029277667E-1
1.850151755E1,-1.246281147E0,-3.771981969E-2,-1.006370857E-1
1.851067036E1,-1.447860718E0,1.634016447E-2,-6.490252167E-2
1.851982317E1,-1.653868914E0,9.086353332E-2,-1.572931744E-2
1.852897598E1,-1.800930381E0,2.481566966E-1,2.535016090E-2
1.853812880E1,-1.723200083E0,4.448495209E-1,1.832541823E-2
1.854726885E1,-1.351804972E0,6.421532035E-1,-3.726168349E-2
1.855643442E1,-1.148240089E0,3.758237660E-1,-9.162709117E-2
1.856558723E1,-1.242463350E0,-3.119902313E-1,-1.469087601E-1
1.857472729E1,-1.647149682E0,-4.569137394E-1,-1.801999360E-1
1.858389286E1,-2.161941051E0,2.214321308E-2,-1.426328421E-1
1.859304567E1,-1.941730738E0,5.121954083E-1,-3.939964995E-2
1.860218572E1,-1.317292094E0,5.615213513E-1,1.299577504E-1
1.861135130E1,-1.084559321E0,-1.004843712E-1,1.290414780E-1
1.862050411E1,-1.286291599E0,-7.725690603E-1,-2.947338112E-2
1.862964416E1,-1.348445296E0,-8.929060102E-1,-1.032331884E-1
1.863880973E1,-1.174048424E0,-8.159392476E-1,-7.757759839E-2
1.864796255E1,-1.068371892E0,-8.521319032E-1,-9.025268257E-2
1.865710260E1,-1.114796281E0,-1.009730577E0,-1.600419879E-1
1.866626817E1,-1.237118363E0,-9.677347541E-1,-1.701209545E-1
1.867542098E1,-1.303700805E0,-7.133168578E-1,-9.819369763E-2
1.868457380E1,-1.257429123E0,-4.636330605E-1,-6.077930331E-2
1.869372661E1,-1.166260123E0,-2.901524603E-1,-1.316375881E-1
1.870287942E1,-1.115101695E0,-1.496575773E-1,-2.675510943E-1
1.871203223E1,-1.080283403E0,-5.787777901E-2,-3.938437700E-1
1.872118505E1,-1.087155461E0,1.291942000E-1,-4.746283293E-1
1.873033786E1,-1.137092113E0,4.411844313E-1,-5.160132051E-1
1.873949067E1,-1.145338655E0,7.369872332E-1,-5.340332389E-1
1.874864348E1,-1.096623540E0,9.413156509E-1,-5.277720094E-1
1.875779630E1,-1.075243831E0,1.087460876E0,-4.837910235E-1
1.876693635E1,-1.086391807E0,1.138924718E0,-4.191939235E-1
1.877610192E1,-1.092500329E0,1.103648305E0,-3.489464819E-1
1.878525473E1,-1.090362310E0,1.032179117E0,-2.799207568E-1
1.879439479E1,-1.063026905E0,9.101623893E-1,-2.185306102E-1
1.880356036E1,-1.029888511E0,7.614210844E-1,-1.754658818E-1
1.881271317E1,-9.940012097E-1,5.302154422E-1,-1.481304616E-1
1.882186598E1,-9.158127308E-1,3.098522723E-1,-1.198787764E-1
1.883101880E1,-8.631271720E-1,2.637332976E-1,-8.292251825E-2
1.884017161E1,-8.623636365E-1,2.492256761E-1,-7.559234649E-2
1.884932442E1,-8.400676847E-1,2.400629669E-1,-1.114796251E-1
1.885847723E1,-8.122741580E-1,2.681619525E-1,-1.685938388E-1
1.886763005E1,-7.983773947E-1,3.271087110E-1,-2.241809368E-1
1.887678286E1,-7.931851745E-1,4.631749392E-1,-2.699944973E-1
1.888593567E1,-7.739434838E-1,6.726955175E-1,-3.115321100E-1
1.889508848E1,-7.346965671E-1,8.553388715E-1,-3.553603888E-1
1.890424130E1,-7.160657048E-1,9.257390499E-1,-3.834593594E-1
1.891339411E1,-6.838434935E-1,9.817842841E-1,-3.869717419E-1
1.892254692E1,-6.247440577E-1,1.102579355E0,-3.571929336E-1
1.893169973E1,-5.447230339E-1,1.240783453E0,-3.084778786E-1
1.894085255E1,-4.798205197E-1,1.403116107E0,-2.739650011E-1
1.895000536E1,-4.315635860E-1,1.514748454E0,-2.646495700E-1
1.895915817E1,-3.956763148E-1,1.515359282E0,-2.863346636E-1
1.896831098E1,-4.083513916E-1,1.566365123E0,-3.280249834E-1
1.897746380E1,-4.475983381E-1,1.648676753E0,-3.735330999E-1
1.898661661E1,-4.703523815E-1,1.656923175E0,-4.193466306E-1
1.899576942E1,-4.456130862E-1,1.668834686E0,-4.639385045E-1
1.900492223E1,-4.048390090E-1,1.614469290E0,-4.934118688E-1
1.901407505E1,-4.051444530E-1,1.520398855E0,-5.141806602E-1
1.902322786E1,-4.643966258E-1,1.517344594E0,-5.108210444E-1
1.903238067E1,-5.413633585E-1,1.496270418E0,-4.692834020E-1
1.904152072E1,-5.806103349E-1,1.300035715E0,-4.162923992E-1
1.905068630E1,-5.436540842E-1,1.004996419E0,-3.694098890E-1
1.905983911E1,-4.908157587E-1,7.979192138E-1,-3.445178568E-1
1.906899192E1,-5.470137000E-1,6.688777208E-1,-3.350497186E-1
1.907814473E1,-6.749862432E-1,4.378247857E-1,-3.423798978E-1
1.908729755E1,-6.872031689E-1,2.130329758E-1,-3.393256664E-1
1.909645036E1,-6.102364063E-1,2.058555335E-1,-3.197785318E-1
1.910560317E1,-6.065713167E-1,2.084516287E-1,-3.014531136E-1
1.911475604E1,-6.864396334E-1,9.804098308E-2,-2.817533016E-1
1.912390880E1,-7.734853625E-1,-2.550287358E-2,-2.683146596E-1
1.913306161E1,-7.889092565E-1,-1.574458778E-1,-2.725905776E-1
1.914221442E1,-7.389724851E-1,-2.852656841E-1,-2.990097404E-1
1.915136723E1,-6.673506498E-1,-3.510844707E-1,-3.381039500E-1
1.916052005E1,-5.850389600E-1,-3.811686933E-1,-3.723114133E-1
1.916967286E1,-4.871506989E-1,-4.883723855E-1,-3.996468186E-1
1.917881291E1,-3.839175105E-1,-5.894675851E-1,-4.141544402E-1
1.918797848E1,-2.913741469E-1,-6.044333577E-1,-4.115583301E-1
1.919713130E1,-1.983726472E-1,-5.366293192E-1,-3.987305462E-1
1.920628411E1,-8.032641560E-2,-3.689517379E-1,-3.773508966E-1
1.921543692E1,8.643488586E-2,-1.424801201E-1,-3.390202224E-1
1.922458973E1,3.164188862E-1,4.062134400E-2,-2.875563502E-1
1.923374255E1,5.766398311E-1,1.430909634E-1,-2.313583940E-1
1.924289536E1,8.157865405E-1,1.148392856E-1,-1.740914732E-1
1.925204817E1,1.027292371E0,1.832541823E-2,-1.218640283E-1
1.926120098E1,1.213600755E0,-3.909422457E-2,-6.856760383E-2
1.927035380E1,1.341573238E0,-3.863608837E-2,-5.955760833E-3
1.927950661E1,1.381125689E0,1.269035190E-1,5.696150661E-2
1.928864666E1,1.339740753E0,5.410579443E-1,1.206423342E-1
1.929781223E1,1.280641317E0,1.026986957E0,2.284568697E-1
1.930696505E1,1.243837714E0,1.359745979E0,3.923166394E-1
1.931610510E1,1.176644564E0,1.407086611E0,5.535803437E-1
1.932527067E1,1.134037971E0,1.131747246E0,7.079719901E-1
1.933442348E1,1.160304427E0,4.790569544E-1,8.399149776E-1
1.934356354E1,1.304464340E0,-4.665345848E-1,9.393303990E-1
1.935272911E1,1.542847514E0,-1.448166132E0,9.697200060E-1
1.936188192E1,1.775274873E0,-2.130177021E0,9.268079996E-1
1.937102197E1,1.937760234E0,-2.410403252E0,8.408312798E-1
1.938018755E1,2.039313555E0,-2.489049911E0,7.481352091E-1
1.938934036E1,2.122694254E0,-2.522341013E0,6.613948941E-1
1.939848046E1,2.201798916E0,-2.446595907E0,5.844281316E-1
1.940764598E1,2.243183851E0,-2.220735312E0,5.289937258E-1
1.941679880E1,2.217986345E0,-2.007549524E0,5.028799772E-1
1.942593885E1,2.111698866E0,-1.840177417E0,4.972296655E-1
1.943510442E1,1.962041378E0,-1.590798974E0,5.320479870E-1
1.944425723E1,1.820477486E0,-1.232078910E0,6.265766025E-1
1.945341005E1,1.718007922E0,-8.564078808E-1,7.514948249E-1
1.946256286E1,1.672194362E0,-5.384618640E-1,8.645015955E-1
1.947171567E1,1.667154908E0,-2.904578745E-1,9.411629438E-1
1.948086848E1,1.691436052E0,-4.031591862E-2,9.717052579E-1
1.949002130E1,1.727628708E0,1.814216375E-1,9.674293399E-1
1.949917411E1,1.758171082E0,3.735330999E-1,9.248227477E-1
1.950831416E1,1.755422354E0,5.065450668E-1,8.629744649E-1
1.951747973E1,1.714190125E0,5.190674663E-1,8.090671897E-1
1.952663255E1,1.655854225E0,4.338542521E-1,7.812736630E-1
1.953577260E1,1.613094926E0,2.588465214E-1,7.803573608E-1
1.954493817E1,1.590951681E0,3.237490356E-2,7.876875401E-1
1.955409098E1,1.579040170E0,-1.467560530E-1,7.779139876E-1
1.956324380E1,1.585606813E0,-3.022166789E-1,7.379034758E-1
1.957239661E1,1.605612040E0,-4.465293586E-1,6.673506498E-1
1.958154942E1,1.636612535E0,-5.734328628E-1,5.833591223E-1
1.959070223E1,1.664406061E0,-6.778877378E-1,5.152496696E-1
1.959985505E1,1.671278119E0,-7.484406233E-1,4.755446017E-1
1.960900786E1,1.649592996E0,-7.931851745E-1,4.602734149E-1
1.961816067E1,1.586370349E0,-8.324320912E-1,4.598152637E-1
1.962731348E1,1.499324560E0,-8.663341403E-1,4.598152637E-1
1.963646630E1,1.410446286E0,-8.527427912E-1,4.494308829E-1
1.964561911E1,1.332715988E0,-7.696675658E-1,4.140017331E-1
1.965477192E1,1.260483265E0,-6.502469182E-1,3.510844707E-1
1.966392473E1,1.178629756E0,-5.005893111E-1,2.790044844E-1
1.967307755E1,1.076312900E0,-3.190149665E-1,2.067717910E-1
1.968223036E1,9.486457705E-1,-1.374406368E-1,1.513374150E-1
1.969138317E1,8.018897176E-1,2.244863659E-2,1.159082651E-1
1.970053598E1,6.552863717E-1,1.360662282E-1,1.043021679E-1
1.970968880E1,5.273138881E-1,1.901262105E-1,1.131594554E-1
1.971884161E1,4.085040987E-1,2.316638231E-1,1.349972486E-1
1.972799442E1,2.883199155E-1,2.809897363E-1,1.621799469E-1
1.973714723E1,1.831014603E-1,2.704526186E-1,1.412584335E-1
1.974630010E1,7.834116369E-2,2.116585821E-1,1.026223376E-1
1.975545286E1,-4.917320609E-2,1.516428292E-1,6.398624927E-2
1.976460567E1,-1.754658818E-1,2.718270384E-2,1.557660475E-2
1.977375848E1,-2.759502530E-1,-1.377460510E-1,-4.550812021E-2
1.978291130E1,-3.472666740E-1,-2.838912606E-1,-1.064401343E-1
1.979206411E1,-4.031592011E-1,-3.432961702E-1,-1.507265568E-1
1.980121692E1,-4.735593498E-1,-3.229855001E-1,-1.853921413E-1
1.981036973E1,-5.845808387E-1,-2.962609231E-1,-2.124221325E-1
1.981952255E1,-7.218687534E-1,-3.086305857E-1,-2.365505993E-1
1.982867536E1,-8.264763355E-1,-3.106158376E-1,-2.550287247E-1
1.983782817E1,-9.313893318E-1,-2.909159958E-1,-2.631224692E-1
1.984698098E1,-1.061347127E0,-2.321219593E-1,-2.945810854E-1
1.985613380E1,-1.160609841E0,-1.061347127E-1,-3.778090179E-1
1.986527385E1,-1.144727707E0,1.742441803E-1,-4.834856093E-1
1.987443942E1,-1.017976999E0,6.467345357E-1,-5.569399595E-1
1.988359223E1,-1.001178622E0,7.475243211E-1,-5.092939138E-1
1.989273229E1,-1.148851037E0,3.318427801E-1,-4.256078303E-1
1.990189786E1,-1.453052878E0,3.239017725E-1,-4.906630516E-1
1.991105067E1,-1.875148416E0,7.359182239E-1,-6.569662094E-1
1.992019072E1,-2.131704330E0,9.316948056E-1,-7.420266867E-1
1.992935630E1,-2.009229422E0,1.039051175E0,-6.325323582E-1
1.993850911E1,-1.705180168E0,1.269798756E0,-4.175141156E-1
1.994764916E1,-1.457939744E0,1.015686274E0,-3.472666740E-1
1.995681479E1,-1.387539506E0,4.779879749E-1,-4.188885093E-1
1.996596755E1,-1.368450522E0,4.156815708E-1,-4.443913698E-1
1.997510760E1,-1.356844425E0,5.444176197E-1,-3.918585181E-1
1.998427317E1,-1.379140377E0,3.407000601E-1,-3.460449576E-1
1.999342598E1,-1.374253631E0,5.818320066E-2,-3.324536085E-1
2.000257880E1,-1.319277406E0,-1.801999360E-1,-3.055763543E-1
2.001173161E1,-1.292705536E0,-4.914266169E-1,-2.490729690E-1
2.002088442E1,-1.343100429E0,-6.704048514E-1,-2.015796006E-1
2.003002447E1,-1.415333152E0,-8.162446618E-1,-1.714953631E-1
2.003919005E1,-1.453816533E0,-8.788564801E-1,-1.369825006E-1
2.004834286E1,-1.426786542E0,-6.754443645E-1,-8.628217876E-2
2.005749567E1,-1.332257867E0,-4.491254389E-1,-3.558185324E-2
2.006664848E1,-1.271173120E0,-2.663294077E-1,7.635590737E-4
2.007580130E1,-1.239714503E0,-1.282779276E-1,1.527118147E-4
2.008495411E1,-1.200467587E0,-8.796200156E-2,-4.596625641E-2
2.009410692E1,-1.175270081E0,-1.046075895E-1,-1.232384369E-1
2.010325973E1,-1.143200636E0,-6.749862432E-2,-2.024958730E-1
2.011241255E1,-1.089446068E0,1.786728203E-2,-2.687727809E-1
2.012156536E1,-1.055849433E0,1.287360638E-1,-3.008422852E-1
2.013071817E1,-1.049588323E0,1.884463727E-1,-3.009949923E-1
2.013987098E1,-1.010341406E0,2.735068500E-1,-2.738122940E-1
2.014902380E1,-9.927794933E-1,3.665083647E-1,-2.316638231E-1
2.015817661E1,-1.023016453E0,4.824166298E-1,-1.831014603E-1
2.016732942E1,-1.008508801E0,5.621321797E-1,-1.354553849E-1
2.017648223E1,-9.526162744E-1,5.745018721E-1,-1.046075895E-1
2.018563505E1,-9.251281619E-1,5.926745534E-1,-9.575030953E-2
2.019478786E1,-9.129112363E-1,5.329642296E-1,-1.030804738E-1
2.020394067E1,-8.616000414E-1,4.613423944E-1,-1.201841980E-1
2.021309348E1,-7.676823139E-1,3.793361485E-1,-1.415638477E-1
2.022224630E1,-6.838434935E-1,3.113794029E-1,-1.580567211E-1
2.023139911E1,-6.618530154E-1,3.329117596E-1,-1.815743446E-1
2.024055192E1,-6.713211536E-1,3.069507480E-1,-1.945548505E-1
2.024970473E1,-6.615476012E-1,2.492256761E-1,-1.907370538E-1
2.025885755E1,-6.700994372E-1,2.357870489E-1,-1.896680743E-1
2.026801036E1,-7.276718020E-1,3.400892019E-1,-1.944021434E-1
2.027716317E1,-7.272136807E-1,4.871506989E-1,-1.937913001E-1
2.028631593E1,-6.600204706E-1,6.329904795E-1,-1.989834905E-1
2.029546880E1,-6.029062271E-1,7.282826304E-1,-2.041756958E-1
2.030462161E1,-5.971031785E-1,8.313631415E-1,-1.944021434E-1
2.031377442E1,-6.184828281E-1,1.007439852E0,-1.776038408E-1
2.032292718E1,-5.917583108E-1,1.126707792E0,-1.701209545E-1
2.033208005E1,-5.118899941E-1,1.150378108E0,-1.774511337E-1
2.034123281E1,-4.705050886E-1,1.155264854E0,-1.876828223E-1
2.035038567E1,-4.787515402E-1,1.182294846E0,-2.047865391E-1
2.035953843E1,-4.746283293E-1,1.158013701E0,-2.261662036E-1
2.036869124E1,-4.404208660E-1,1.059209108E0,-2.564031482E-1
2.037784406E1,-4.385883212E-1,1.008356094E0,-2.965663373E-1
2.038699687E1,-4.964661002E-1,9.562813640E-1,-3.452814221E-1
2.039614968E1,-5.509842038E-1,8.716790676E-1,-3.901786804E-1
2.040530249E1,-5.670189857E-1,8.209787011E-1,-4.201101959E-1
2.041444255E1,-5.777087808E-1,7.020162344E-1,-4.500417113E-1
2.042360812E1,-6.030589342E-1,3.932329118E-1,-5.085303187E-1
2.043276093E1,-5.311316848E-1,2.550287247E-1,-4.402681589E-1
2.044191374E1,-5.456393361E-1,1.979145110E-1,-3.889569938E-1
2.045106656E1,-6.146650314E-1,2.377723008E-1,-3.437542915E-1
2.046021937E1,-6.394043565E-1,2.348707765E-1,-3.158080280E-1
2.046937218E1,-5.775560737E-1,2.047865391E-1,-3.080197275E-1
2.047852499E1,-5.027272701E-1,2.476985604E-1,-2.935121059E-1
2.048767781E1,-4.935645759E-1,3.051182032E-1,-2.684673667E-1
2.049683062E1,-5.485408306E-1,3.255815804E-1,-2.528907657E-1
2.050598343E1,-5.996993184E-1,3.158080280E-1,-2.496838123E-1
2.051513624E1,-5.848862529E-1,3.116848171E-1,-2.489202619E-1
2.052428906E1,-5.329642296E-1,3.032856584E-1,-2.502946556E-1
2.053344187E1,-4.753918648E-1,2.654131353E-1,-2.487675399E-1
2.054259468E1,-4.282039404E-1,1.714953631E-1,-2.531961799E-1
2.055174749E1,-4.025483429E-1,6.001574174E-2,-2.718270421E-1
2.056090031E1,-4.092676640E-1,-5.803049076E-3,-2.999260128E-1
2.057005312E1,-3.929274976E-1,-2.825168520E-2,-3.315373361E-1
2.057920593E1,-3.151971996E-1,-2.519745007E-2,-3.669664860E-1
2.058835874E1,-2.460187376E-1,-1.557660475E-2,-3.988832533E-1
2.059751156E1,-1.905843467E-1,-9.468132630E-3,-4.236225784E-1
2.060666437E1,-1.427855492E-1,2.428117767E-2,-4.312581718E-1
2.061581718E1,-1.102579311E-1,4.963133857E-2,-4.291202128E-1
2.062496999E1,-9.697200358E-2,7.253811508E-2,-4.260659516E-1
2.063412281E1,-1.035386100E-1,1.937913001E-1,-4.127800465E-1
2.064327562E1,-9.483403713E-2,3.807105422E-1,-3.907895386E-1
2.065242843E1,-5.665608495E-2,5.653391480E-1,-3.558185399E-1
2.066158124E1,-2.733541466E-2,7.227849960E-1,-3.191677034E-1
2.067073406E1,-2.153236605E-2,8.168554902E-1,-2.874036431E-1
2.067988687E1,-1.007897966E-2,8.435800672E-1,-2.544178963E-1
2.068903968E1,-5.344913341E-3,7.553126216E-1,-1.925695986E-1
2.069819249E1,-3.512371797E-3,5.838172436E-1,-1.088835225E-1
2.070734531E1,2.672456764E-2,3.268032968E-1,-2.229592577E-2
2.071649812E1,9.681928903E-2,-4.031591862E-2,6.505523622E-2
2.072565093E1,1.870719790E-1,-4.628695250E-1,1.693574041E-1
2.073480374E1,2.706053257E-1,-8.351809382E-1,2.806843221E-1
2.074395656E1,3.481829464E-1,-1.089751482E0,3.724641204E-1
2.075310937E1,4.445441067E-1,-1.274838209E0,4.434750974E-1
2.076226218E1,5.677825212E-1,-1.441904902E0,4.970769584E-1
2.077141499E1,6.965186000E-1,-1.648218632E0,5.340332389E-1
2.078056781E1,8.199097514E-1,-1.798028946E0,5.503733754E-1
2.078972062E1,9.271134138E-1,-1.784742951E0,5.126535892E-1
2.079887343E1,1.038440347E0,-1.749161124E0,4.895940721E-1
2.080802619E1,1.163816690E0,-1.787491798E0,5.155550838E-1
2.081717900E1,1.338213682E0,-1.798334360E0,5.589252710E-1
2.082631911E1,1.554300904E0,-1.712968469E0,5.877877474E-1
2.083548463E1,1.753131628E0,-1.556591511E0,5.916055441E-1
2.084463749E1,1.904774427E0,-1.422510505E0,5.955760479E-1
2.085377755E1,2.023431540E0,-1.320346355E0,6.140542030E-1
2.086294312E1,2.123305082E0,-1.190083146E0,6.287145615E-1
2.087209588E1,2.188054800E0,-9.856020808E-1,6.345176101E-1
2.088123598E1,2.205616713E0,-7.386670709E-1,6.387935281E-1
2.089040150E1,2.168354988E0,-5.138752460E-1,6.444438696E-1
2.089955432E1,2.089861155E0,-3.416163325E-1,6.436802745E-1
2.090870718E1,1.986933470E0,-1.942494214E-1,6.300889254E-1
2.091785994E1,1.898055196E0,-4.428642616E-2,6.189410090E-1
2.092701276E1,1.854074121E0,5.451811850E-2,6.290199757E-1
2.093616557E1,1.851783514E0,9.132166207E-2,6.539120078E-1
2.094531838E1,1.880798697E0,1.481304616E-1,6.736118197E-1
2.095447119E1,1.935927629E0,2.385358512E-1,6.862868667E-1
2.096362400E1,1.987238884E0,2.947337925E-1,6.994200945E-1
2.097277682E1,2.011367321E0,2.881672084E-1,7.000309825E-1
2.098192963E1,1.998844981E0,2.356343269E-1,6.810947061E-1
2.099108244E1,1.959139824E0,2.053973973E-1,6.546755433E-1
2.100023526E1,1.907981396E0,8.414421231E-2,6.543701291E-1
2.100938807E1,1.844453335E0,7.482878864E-3,6.575770974E-1
2.101854088E1,1.777412772E0,-2.748812549E-3,6.583406329E-1
2.102769374E1,1.712204814E0,-2.519745007E-2,6.542174220E-1
2.103684650E1,1.652189136E0,-1.362189353E-1,6.459710002E-1
2.104599932E1,1.599961638E0,-2.785463631E-1,6.348230243E-1
2.105515213E1,1.553384542E0,-3.859027624E-1,6.241331697E-1
2.106430494E1,1.519635320E0,-4.625640810E-1,6.050441861E-1
2.107345776E1,1.490161896E0,-5.170822144E-1,5.639647245E-1
2.108261057E1,1.463742733E0,-5.714476109E-1,5.088357925E-1
2.109176338E1,1.438087106E0,-6.416950226E-1,4.567610323E-1
2.110091619E1,1.404337883E0,-7.142331600E-1,4.095730782E-1
2.111006900E1,1.338977218E0,-7.566870451E-1,3.633013964E-1
2.111922182E1,1.236965656E0,-7.780666947E-1,3.272614181E-1
2.112836187E1,1.105938911E0,-7.857022882E-1,2.976353168E-1
2.113752744E1,9.796462655E-1,-7.655443549E-1,2.283041626E-1
2.114668026E1,8.667922616E-1,-7.131641507E-1,1.334701329E-1
2.115583307E1,7.565343380E-1,-6.039752364E-1,5.375456065E-2
2.116498588E1,6.474980712E-1,-4.584408700E-1,-8.246437646E-3
2.117413869E1,5.405998230E-1,-3.304683566E-1,-5.299099907E-2
2.118329150E1,4.396573007E-1,-2.687727809E-1,-8.307522535E-2
2.119244432E1,3.413109183E-1,-2.327328026E-1,-8.689302206E-2
2.120159713E1,2.389939874E-1,-1.719534993E-1,-6.566607952E-2
2.121074994E1,1.267508119E-1,-1.081199646E-1,-3.359659761E-2
2.121990276E1,3.359660041E-3,-3.359659761E-2,-1.679829881E-2
2.122905557E1,-1.136175916E-1,9.407047927E-2,-2.565558441E-2
2.123820838E1,-1.937913001E-1,2.510582209E-1,-5.008947477E-2
2.124736114E1,-2.420482337E-1,3.550549746E-1,-7.131642103E-2
2.125651395E1,-2.788517773E-1,3.471139669E-1,-9.345962852E-2
2.126565406E1,-3.393256664E-1,3.029802442E-1,-1.317902952E-1
2.127481963E1,-4.275930822E-1,2.689255178E-1,-1.695101112E-1
2.128397244E1,-5.259394646E-1,1.626380831E-1,-1.866138428E-1
2.129312520E1,-6.126797795E-1,1.481304597E-2,-1.853921413E-1
2.130227802E1,-6.815528274E-1,-8.231166750E-2,-1.852394342E-1
2.131143083E1,-7.437065244E-1,-8.475505561E-2,-1.910424829E-1
2.132058364E1,-8.251019120E-1,-1.863084175E-2,-1.869192570E-1
2.132973645E1,-9.286405444E-1,3.420744836E-2,-1.649287641E-1
2.133888927E1,-9.689564705E-1,5.787777901E-2,-1.421747059E-1
2.134802932E1,-9.206995368E-1,1.001789495E-1,-1.058292910E-1
2.135719489E1,-9.170344472E-1,2.334963679E-1,-8.994726092E-2
2.136634770E1,-9.588775039E-1,3.205420971E-1,-1.611109674E-1
2.137548776E1,-7.951704264E-1,2.678565085E-1,-2.851129472E-1
2.138465333E1,-3.454341292E-1,4.683671296E-1,-3.620797098E-1
2.139380614E1,-1.711899489E-1,9.097042680E-1,-3.660502136E-1
2.140294619E1,-7.861604095E-1,1.041341901E0,-2.295258641E-1
2.141211177E1,-1.758629203E0,1.304158926E0,-1.058292910E-1
2.142126458E1,-2.738580942E0,1.315001488E0,-1.817270555E-2
2.143040463E1,-2.688338757E0,1.174201131E0,2.028012872E-1
2.143957020E1,-1.318513751E0,1.464811683E0,2.965663373E-1
2.144872302E1,-4.715740979E-1,4.529432356E-1,6.688777357E-2
2.145786307E1,-8.913788795E-1,-1.056765795E0,-2.757975459E-1
2.146702864E1,-1.320040941E0,-1.161678791E0,-2.817533016E-1
2.147618145E1,-1.431367874E0,-4.498890042E-1,-4.795150831E-2
2.148532150E1,-1.611109614E0,-4.016320780E-2,5.497625470E-2
2.149448708E1,-1.611567736E0,-3.103103936E-1,-1.450762246E-2
2.150363989E1,-1.482373595E0,-1.058292866E0,-1.290414780E-1
2.151277994E1,-1.401894450E0,-1.624395609E0,-1.916533262E-1
2.152194552E1,-1.453511000E0,-1.716022611E0,-1.918060333E-1
2.153109833E1,-1.441599488E0,-1.669598222E0,-2.064663768E-1
2.154023838E1,-1.294232607E0,-1.639514089E0,-2.780882120E-1
2.154940395E1,-1.153737783E0,-1.533532023E0,-3.547495604E-1
2.155855677E1,-1.113727212E0,-1.280030489E0,-4.085040987E-1
2.156769682E1,-1.175117373E0,-9.506310225E-1,-4.402681589E-1
2.157686239E1,-1.223832488E0,-5.867187977E-1,-4.530959427E-1
2.158601520E1,-1.236660242E0,-6.490252167E-2,-4.401154518E-1
2.159516796E1,-1.299119353E0,5.100574493E-1,-4.184303582E-1
2.160432083E1,-1.332105160E0,1.033095479E0,-4.049917459E-1
2.161347359E1,-1.296828747E0,1.437476277E0,-4.141544402E-1
2.162261369E1,-1.268882513E0,1.702584028E0,-4.269822240E-1
2.163177921E1,-1.293469071E0,1.829029441E0,-4.332434237E-1
2.164093202E1,-1.288124204E0,1.850867152E0,-4.228590131E-1
2.165007208E1,-1.253458619E0,1.820783019E0,-3.964398801E-1
2.165923765E1,-1.247197390E0,1.734195352E0,-3.614688516E-1
2.166839046E1,-1.251320601E0,1.618592501E0,-3.254288733E-1
2.167753052E1,-1.240936160E0,1.548955917E0,-2.892361879E-1
2.168669609E1,-1.227802992E0,1.517039180E0,-2.670929730E-1
2.169584890E1,-1.207034230E0,1.388761282E0,-2.559449971E-1
2.170500171E1,-1.186876178E0,1.203827262E0,-2.513636351E-1
2.171415452E1,-1.192679286E0,1.020573020E0,-2.530434728E-1
2.172330734E1,-1.227039456E0,8.054021001E-1,-2.715215981E-1
2.173246015E1,-1.248571754E0,5.996993184E-1,-3.075616062E-1
2.174161296E1,-1.234216928E0,4.592044353E-1,-3.310792148E-1
2.175076578E1,-1.166412830E0,3.894151151E-1,-3.391729295E-1
2.175991859E1,-1.122889996E0,3.448232710E-1,-3.400892019E-1
2.176907140E1,-1.124264359E0,2.845021188E-1,-3.338280320E-1
2.177822421E1,-1.136328578E0,2.533488870E-1,-3.297048211E-1
2.178737702E1,-1.157402873E0,2.568612695E-1,-3.194731176E-1
2.179652984E1,-1.118308663E0,2.275405973E-1,-2.971771955E-1
2.180568265E1,-1.038134933E0,1.349972486E-1,-2.709107697E-1
2.181483546E1,-9.668185115E-1,8.551862091E-3,-2.501419485E-1
2.182398828E1,-9.300149679E-1,-1.220167428E-1,-2.321219593E-1
2.183314109E1,-9.206995368E-1,-2.093679011E-1,-2.246390730E-1
2.184229390E1,-8.811471462E-1,-2.063136548E-1,-2.255553454E-1
2.185144671E1,-8.223531246E-1,-1.603474021E-1,-2.209739983E-1
2.186059952E1,-7.814263701E-1,-1.994416267E-1,-2.102841735E-1
2.186975234E1,-7.608102560E-1,-2.385358512E-1,-2.038702667E-1
2.187890515E1,-7.547017932E-1,-2.258607745E-1,-2.026485801E-1
2.188805796E1,-7.482879162E-1,-1.843231618E-1,-2.112004459E-1
2.189721072E1,-7.301151752E-1,-1.488940120E-1,-2.305948436E-1
2.190636354E1,-7.175928354E-1,-8.078455180E-2,-2.495311052E-1
2.191551635E1,-7.316423059E-1,3.542914242E-2,-2.551814318E-1
2.192466916E1,-7.386670709E-1,1.313321590E-1,-2.492256761E-1
2.193382197E1,-7.275190949E-1,1.982199401E-1,-2.400629669E-1
2.194297479E1,-7.307260633E-1,2.669402659E-1,-2.290677279E-1
2.195212760E1,-7.198835015E-1,2.941229641E-1,-2.113531530E-1
2.196128041E1,-6.769714952E-1,3.110739589E-1,-2.012741715E-1
2.197043322E1,-6.291726828E-1,3.461976945E-1,-2.082989216E-1
2.197958604E1,-6.145123243E-1,3.791834414E-1,-2.260134816E-1
2.198873885E1,-6.565080881E-1,3.906368315E-1,-2.434226274E-1
2.199789166E1,-7.272136807E-1,3.765873313E-1,-2.554868758E-1
2.200704447E1,-7.776085734E-1,3.662029207E-1,-2.588465214E-1
2.201619729E1,-8.054021001E-1,3.625378609E-1,-2.547233105E-1
2.202535010E1,-8.226585388E-1,3.582619131E-1,-2.506000996E-1
2.203450291E1,-8.302941322E-1,3.330644667E-1,-2.493783981E-1
2.204365572E1,-8.226585388E-1,2.938175201E-1,-2.560977042E-1
2.205280854E1,-8.168554902E-1,2.709107697E-1,-2.675510943E-1
2.206196135E1,-8.275453448E-1,2.388412803E-1,-2.736595869E-1
2.207111416E1,-8.273926377E-1,2.081461996E-1,-2.644968629E-1
2.208026697E1,-8.063184023E-1,1.824906170E-1,-2.380777150E-1
2.208941979E1,-7.882983685E-1,1.427855492E-1,-1.983726472E-1
2.209857260E1,-7.766922712E-1,7.253811508E-2,-1.548497826E-1
2.210772541E1,-7.731798887E-1,4.581354558E-3,-1.162136942E-1
2.211687822E1,-7.580614686E-1,-5.314370990E-2,-8.383878320E-2
2.212603104E1,-7.256865501E-1,-9.636115283E-2,-5.604523420E-2
2.213518385E1,-6.879667044E-1,-1.246128380E-1,-3.374931216E-2
2.214433666E1,-6.490252018E-1,-1.328592747E-1,-3.344388679E-2
2.215348947E1,-6.183301210E-1,-1.172826737E-1,-5.467082933E-2
2.216264229E1,-5.890094638E-1,-6.856760383E-2,-8.933641016E-2
2.217179510E1,-5.650337338E-1,2.229592577E-2,-1.172826737E-1
2.218094791E1,-5.399889946E-1,1.253764033E-1,-1.366770715E-1
2.219010072E1,-5.018110275E-1,2.067717910E-1,-1.475196183E-1
2.219925354E1,-4.581354558E-1,2.918322682E-1,-1.453816444E-1
2.220840635E1,-4.062134326E-1,3.359659910E-1,-1.365243644E-1
2.221755911E1,-3.367295563E-1,3.498627543E-1,-1.317902952E-1
2.222671192E1,-2.777827978E-1,3.770454824E-1,-1.325538605E-1
2.223586473E1,-2.638860047E-1,4.144598544E-1,-1.380514801E-1
2.224501755E1,-2.979407609E-1,4.421007037E-1,-1.548497826E-1
2.225417036E1,-3.466558158E-1,4.509579837E-1,-1.710372269E-1
2.226332317E1,-3.710896969E-1,4.256078303E-1,-1.716480851E-1
2.227247598E1,-3.348970115E-1,3.643703759E-1,-1.513374150E-1
2.228162880E1,-2.370087355E-1,2.916795611E-1,-1.096470803E-1
2.229078161E1,-1.236965731E-1,2.142546773E-1,-6.978929788E-2
2.229993442E1,-3.894151375E-2,1.634016484E-1,-3.848337755E-2
2.230908723E1,-1.221694518E-3,1.453816444E-1,-1.572931744E-2
2.231824005E1,1.588202827E-2,1.383569092E-1,9.468132630E-3
2.232739286E1,3.252761811E-2,1.311794519E-1,3.588727489E-2
2.233654567E1,4.917320609E-2,1.180462316E-1,5.803048983E-2
2.234569848E1,5.864133686E-2,7.711946964E-2,7.269082218E-2
2.235485130E1,6.872031838E-2,-5.955760833E-3,7.773031294E-2
2.236400411E1,8.200624585E-2,-1.186570823E-1,7.666133344E-2
2.237315692E1,8.811471611E-2,-2.397575527E-1,7.375980914E-2
2.238230973E1,7.452336699E-2,-3.151971996E-1,6.398624927E-2
2.239146255E1,4.275930673E-2,-3.278722763E-1,4.779879749E-2
2.240061536E1,2.290677279E-3,-2.852656841E-1,2.733541466E-2
2.240976817E1,-3.588727489E-2,-2.058555335E-1,6.261184346E-3
2.241892098E1,-6.765133142E-2,-9.147437662E-2,-8.704573847E-3
2.242807380E1,-9.407047927E-2,5.360184610E-2,-2.428117767E-2
2.243722661E1,-1.206423342E-1,2.047865391E-1,-4.520269856E-2
2.244637942E1,-1.418692768E-1,3.155026138E-1,-6.200099736E-2
2.245553223E1,-1.498102844E-1,3.776563108E-1,-6.994201243E-2
2.246468505E1,-1.493521482E-1,4.028537571E-1,-7.788302749E-2
2.247383786E1,-1.432436854E-1,4.028537571E-1,-8.032641560E-2
2.248299067E1,-1.363716573E-1,3.950654566E-1,-7.666133344E-2
2.249214348E1,-1.325538605E-1,3.842229247E-1,-6.688777357E-2
2.250129630E1,-1.240019947E-1,3.733803928E-1,-5.390727147E-2
2.251044911E1,-1.029277667E-1,3.500154912E-1,-3.481829539E-2
2.251960192E1,-7.223268598E-2,2.983988822E-1,-1.572931744E-2
2.252875473E1,-4.443913698E-2,2.206685692E-1,-5.650337320E-3
2.253790755E1,-2.535016090E-2,1.478250325E-1,-3.665083554E-3
2.254706036E1,-1.130067464E-2,8.338065445E-2,-4.123218823E-3
2.255621317E1,1.023169141E-2,2.489202656E-2,-9.162708884E-4
2.256536593E1,3.894151375E-2,-2.076880634E-2,7.330167107E-3
2.257451874E1,5.696150661E-2,-5.085303262E-2,2.092151903E-2
2.258367156E1,5.405998230E-2,-6.520794332E-2,3.130592033E-2
2.259282437E1,3.603998944E-2,-5.803048983E-2,3.359659761E-2
2.260197718E1,1.435491070E-2,-4.367557913E-2,3.222219273E-2
2.261112999E1,-2.901524538E-3,-3.939964995E-2,2.840439789E-2
2.262028281E1,-1.893626526E-2,-4.184303805E-2,2.458660305E-2
2.262943562E1,-3.252761811E-2,-4.123219103E-2,1.847812906E-2
2.263858843E1,-3.313846514E-2,-3.115320951E-2,1.175880991E-2
2.264774124E1,-2.535016090E-2,6.261184346E-3,2.596100792E-3
2.265689406E1,-1.786728203E-2,7.192726433E-2,-1.328592747E-2
2.266604687E1,-1.038440317E-2,1.351499557E-1,-2.428117767E-2
2.267519968E1,-1.252236869E-2,1.646233350E-1,-3.222219273E-2
2.268435249E1,-2.657185495E-2,1.603474021E-1,-3.970507160E-2
2.269350531E1,-3.756710514E-2,1.470614821E-1,-4.459185153E-2
2.270265812E1,-4.230117425E-2,1.270562261E-1,-4.398100078E-2
2.271181093E1,-4.275930673E-2,1.043021679E-1,-3.970507160E-2
2.272096374E1,-3.741439432E-2,6.810946763E-2,-3.603998944E-2
2.273011656E1,-2.489202656E-2,2.305948362E-2,-2.977880463E-2
2.273926937E1,-1.679830020E-3,-1.725643501E-2,-2.046338283E-2
2.274842218E1,1.954711229E-2,-5.512896553E-2,-1.359135192E-2
2.275757499E1,3.023693897E-2,-7.513421029E-2,-7.941014133E-3
2.276672781E1,2.412846684E-2,-8.231166750E-2,-0.000000000E0
2.277588062E1,1.236965694E-2,-8.765657991E-2,5.344913341E-3
2.278503343E1,1.985253533E-3,-9.788827598E-2,7.788302377E-3
2.279418624E1,-3.359660041E-3,-1.148392856E-1,4.734066315E-3
2.280333906E1,-5.192201585E-3,-1.262926757E-1,3.512371797E-3
2.281249187E1,-4.428642802E-3,-1.305686086E-1,1.068982761E-3
2.282164468E1,-2.137965523E-3,-1.221694499E-1,-8.704573847E-3
2.283079749E1,-2.137965523E-3,-1.010952219E-1,-2.031067200E-2
2.283995026E1,1.527118147E-4,-7.162184268E-2,-2.519745007E-2
2.284910312E1,2.748812549E-3,-3.481829539E-2,-2.031067200E-2
2.285825588E1,-1.832541777E-3,5.650337320E-3,-1.801999472E-2
2.286740869E1,-9.620844387E-3,4.413371533E-2,-1.924168877E-2
2.287656156E1,-1.404948719E-2,6.398624927E-2,-2.122694254E-2
2.288571437E1,-1.664558798E-2,6.704048812E-2,-2.305948362E-2
2.289486713E1,-1.343864016E-2,5.680879578E-2,-2.367033064E-2
2.290401994E1,-9.009997360E-3,4.046862945E-2,-2.290677279E-2
2.291317276E1,-7.482878864E-3,1.878355257E-2,-2.412846684E-2
2.292232557E1,-4.275931045E-3,1.527118147E-4,-2.596100792E-2
2.293147838E1,-1.679830020E-3,-1.252236869E-2,-2.290677279E-2
2.294063119E1,5.803049076E-3,-2.336490713E-2,-1.664558798E-2
2.294978400E1,1.145338640E-2,-4.382828996E-2,-1.420219894E-2
2.295893682E1,1.847812906E-2,-6.490252167E-2,-1.175880991E-2
2.296808963E1,2.031067200E-2,-7.742489129E-2,-8.551862091E-3
2.297724244E1,1.725643501E-2,-7.986827940E-2,-9.773556143E-3
2.298639526E1,1.481304597E-2,-7.207997888E-2,-6.872031838E-3
2.299554807E1,1.099525020E-2,-5.757235363E-2,-3.817795310E-3
2.300470088E1,6.566607859E-3,-4.978405312E-2,-1.985253533E-3
2.301385369E1,2.748812549E-3,-4.672981426E-2,-3.206948051E-3
2.302300650E1,3.359660041E-3,-4.611896724E-2,-2.596100792E-3
2.303215932E1,1.191152167E-2,-3.649812192E-2,4.581354442E-4
2.304131213E1,2.657185495E-2,-2.015795931E-2,4.275931045E-3
2.305046494E1,3.695625812E-2,-8.093725890E-3,6.719320081E-3
2.305961776E1,3.436015919E-2,3.359660041E-3,4.886778072E-3
2.306877057E1,2.260134928E-2,1.298050396E-2,-1.527118147E-4
2.307792338E1,1.695101149E-2,1.954711229E-2,-6.872031838E-3
2.308707619E1,1.511846948E-2,2.443389036E-2,-1.175880991E-2
2.309622900E1,1.511846948E-2,2.733541466E-2,-1.175880991E-2
2.310538182E1,7.635590620E-3,3.038965166E-2,-1.236965694E-2
2.311453463E1,-3.054236295E-4,2.855710872E-2,-1.252236869E-2
2.312368744E1,-7.635590620E-3,1.832541823E-2,-1.191152167E-2
2.313284026E1,-1.114796288E-2,7.635590737E-4,-1.496575773E-2
2.314199307E1,-6.566607859E-3,-1.969982497E-2,-1.618745178E-2
2.315114588E1,8.399149403E-3,-3.649812192E-2,-1.420219894E-2
2.316029864E1,2.794626169E-2,-3.649812192E-2,-1.038440317E-2
2.316945145E1,3.787253052E-2,-3.527642787E-2,-3.665083554E-3
2.317860426E1,3.771981969E-2,-2.794626169E-2,5.497625098E-3
2.318775708E1,2.473931387E-2,-1.175880991E-2,1.206423342E-2
2.319690989E1,9.773556143E-3,3.359660041E-3,1.450762246E-2
2.320606270E1,3.970507067E-3,1.420219894E-2,1.557660475E-2
2.321521552E1,1.145338640E-2,1.298050396E-2,1.511846948E-2
2.322436833E1,2.519745007E-2,3.359660041E-3,1.450762246E-2
2.323352114E1,3.878879920E-2,-3.817795310E-3,1.343864016E-2
2.324267400E1,4.672981426E-2,-7.482878864E-3,1.099525020E-2
2.325182676E1,5.299099907E-2,-1.466033421E-2,6.872031838E-3
2.326097958E1,5.314370990E-2,-2.015795931E-2,1.985253533E-3
2.327013239E1,4.688252881E-2,-1.771457121E-2,-4.581354442E-4
2.327928520E1,3.451287001E-2,-1.236965694E-2,6.108472589E-4
2.328843802E1,2.214321308E-2,-9.162708884E-4,2.901524538E-3
2.329759083E1,1.771457121E-2,1.114796288E-2,4.734066315E-3
2.330674364E1,1.893626526E-2,1.359135192E-2,3.512371797E-3
2.331589645E1,1.954711229E-2,4.428642802E-3,1.679830020E-3
2.332504926E1,2.168507688E-2,-1.298050396E-2,1.679830020E-3
2.333420208E1,2.733541466E-2,-2.977880463E-2,2.443389036E-3
2.334335489E1,3.237490356E-2,-4.001049697E-2,1.832541777E-3
2.335250770E1,3.741439432E-2,-5.207473040E-2,-3.054236295E-3
2.336166052E1,3.497100621E-2,-6.062658876E-2,-6.719320081E-3
2.337081333E1,2.825168520E-2,-6.413896382E-2,-7.941014133E-3
2.337996614E1,2.764083818E-2,-6.062658876E-2,-6.719320081E-3
2.338911895E1,2.504473738E-2,-5.635065958E-2,-2.443389036E-3
2.339827176E1,1.221694518E-2,-5.757235363E-2,-1.374406274E-3
2.340742458E1,1.679830020E-3,-4.917320609E-2,-1.985253533E-3
2.341657739E1,5.803049076E-3,-3.588727489E-2,-1.527118147E-4
2.342573015E1,1.435491070E-2,-2.626643144E-2,5.344913341E-3
2.343488296E1,2.046338283E-2,-2.565558441E-2,7.788302377E-3
2.344403578E1,2.244863659E-2,-3.588727489E-2,4.123218823E-3
2.345318859E1,2.611372061E-2,-4.062134400E-2,-0.000000000E0
2.346234140E1,3.176405653E-2,-4.123219103E-2,-6.108472589E-4
2.347149421E1,3.848337755E-2,-4.062134400E-2,-2.443389036E-3
2.348064703E1,4.337015375E-2,-4.184303805E-2,-2.901524538E-3
2.348979984E1,4.474456236E-2,-4.489727318E-2,-1.068982761E-3
2.349895265E1,3.542914242E-2,-3.878879920E-2,1.221694518E-3
2.350810546E1,2.367033064E-2,-2.809897438E-2,2.290677279E-3
2.351725828E1,1.420219894E-2,-1.893626526E-2,5.344913341E-3
2.352641109E1,9.315420873E-3,-1.710372418E-2,3.512371797E-3
2.353556390E1,1.191152167E-2,-2.932066843E-2,1.679830020E-3
2.354471671E1,2.000524849E-2,-4.306473210E-2,-7.635590737E-4
2.355386953E1,3.008422814E-2,-5.879404768E-2,-0.000000000E0
2.356302234E1,3.206948191E-2,-7.803573459E-2,6.108472589E-4
2.357217515E1,2.901524492E-2,-8.521319181E-2,2.443389036E-3
2.358132796E1,2.962609194E-2,-8.643488586E-2,3.054236295E-3
2.359048078E1,3.206948191E-2,-8.108997345E-2,3.665083554E-3
2.359963359E1,3.145863488E-2,-7.559234649E-2,4.275931045E-3
2.360878640E1,2.458660305E-2,-7.070557028E-2,4.886778072E-3
2.361793921E1,1.710372418E-2,-6.108472496E-2,5.955760833E-3
2.362709203E1,1.389677543E-2,-5.085303262E-2,7.788302377E-3
2.363624484E1,1.191152167E-2,-4.367557913E-2,4.734066315E-3
2.364539765E1,1.007897966E-2,-3.955236077E-2,-1.527118147E-4
2.365455046E1,1.068982668E-2,-4.016320780E-2,-5.039489828E-3
2.366370328E1,1.511846948E-2,-4.611896724E-2,-8.093725890E-3
2.367285609E1,2.015795931E-2,-5.757235363E-2,-1.221694518E-2
2.368200890E1,3.023693897E-2,-6.902574003E-2,-1.282779220E-2
2.369116171E1,3.268032894E-2,-7.437065244E-2,-9.773556143E-3
2.370031453E1,3.329117596E-2,-7.620319724E-2,-6.108472589E-3
2.370946734E1,3.145863488E-2,-7.864658535E-2,-6.108472589E-4
2.371862015E1,3.145863488E-2,-7.864658535E-2,3.665083554E-3
2.372777296E1,3.268032894E-2,-8.154810965E-2,7.941014133E-3
2.373692572E1,3.084778599E-2,-8.704573661E-2,1.282779220E-2
2.374607859E1,2.718270384E-2,-8.994726092E-2,1.710372418E-2
2.375523135E1,2.290677279E-2,-9.300149232E-2,1.649287529E-2
2.376438416E1,1.801999472E-2,-1.026223376E-1,1.343864016E-2
2.377353697E1,1.313321572E-2,-1.050657257E-1,9.009997360E-3
2.378268979E1,5.650337320E-3,-9.910997003E-2,3.512371797E-3
2.379184260E1,4.275931045E-3,-7.986827940E-2,3.512371797E-3
2.380099541E1,1.038440317E-2,-6.001574174E-2,2.290677279E-3
2.381014822E1,1.389677543E-2,-4.077405483E-2,1.679830020E-3
2.381930104E1,8.704573847E-3,-2.321219631E-2,1.679830020E-3
2.382845385E1,3.665083554E-3,-2.748812549E-3,3.054236295E-4
2.383760666E1,2.290677279E-3,1.649287529E-2,-3.054236295E-4
2.384675947E1,7.024743594E-3,2.443389036E-2,1.068982761E-3
2.385591229E1,1.007897966E-2,2.443389036E-2,4.123218823E-3
2.386506510E1,1.023169141E-2,2.137965336E-2,4.123218823E-3
2.387421791E1,1.389677543E-2,1.725643501E-2,4.734066315E-3
2.388337072E1,1.389677543E-2,1.053711493E-2,5.955760833E-3
2.389252354E1,7.788302377E-3,3.970507067E-3,6.566607859E-3
2.390167635E1,1.068982761E-3,-9.162708884E-4,6.413896102E-3
2.391082916E1,3.054236295E-3,-7.482878864E-3,5.803049076E-3
2.391998197E1,6.108472589E-3,-9.926267900E-3,4.123218823E-3
2.392913479E1,7.330167107E-3,-8.093725890E-3,1.068982761E-3
2.393828760E1,1.832541777E-3,-7.024743594E-3,-2.137965523E-3
2.394744041E1,-6.108472589E-3,-1.298050396E-2,-9.162708884E-4
2.395659322E1,-6.719320081E-3,-2.092151903E-2,-2.748812549E-3
2.396574604E1,-2.290677279E-3,-2.504473738E-2,-9.162708884E-4
2.397489885E1,2.596100792E-3,-2.260134928E-2,4.734066315E-3
2.398405166E1,5.039489828E-3,-1.893626526E-2,8.399149403E-3
2.399320447E1,6.108472589E-3,-1.832541823E-2,1.145338640E-2
2.400235729E1,7.482878864E-3,-2.015795931E-2,1.023169141E-2
2.401151010E1,1.114796288E-2,-2.137965336E-2,7.788302377E-3
2.402066291E1,1.236965694E-2,-2.321219631E-2,5.955760833E-3
2.402981572E1,1.053711493E-2,-1.893626526E-2,4.123218823E-3
2.403896854E1,1.053711493E-2,-1.420219894E-2,5.344913341E-3
2.404812135E1,1.542389300E-2,-1.832541823E-2,8.399149403E-3
2.405727416E1,2.168507688E-2,-2.443389036E-2,9.009997360E-3
2.406642692E1,2.657185495E-2,-2.428117767E-2,1.160609815E-2
2.407557973E1,3.084778599E-2,-2.550287358E-2,1.466033421E-2
2.408473255E1,2.535016090E-2,-2.733541466E-2,1.710372418E-2
2.409388536E1,1.969982497E-2,-2.367033064E-2,1.695101149E-2
2.410303817E1,1.847812906E-2,-1.954711229E-2,1.389677543E-2
2.411219098E1,2.046338283E-2,-2.504473738E-2,1.206423342E-2
2.412134380E1,2.061609551E-2,-3.817795217E-2,9.620844387E-3
2.413049661E1,1.695101149E-2,-5.268557742E-2,7.177455351E-3
2.413964942E1,1.649287529E-2,-6.413896382E-2,6.566607859E-3
2.414880223E1,2.092151903E-2,-7.253811508E-2,6.108472589E-3
2.415795510E1,2.764083818E-2,-7.375980914E-2,6.719320081E-3
2.416710786E1,3.008422814E-2,-6.948387623E-2,7.941014133E-3
2.417626067E1,2.870982140E-2,-6.001574174E-2,7.941014133E-3
2.418541348E1,2.687728032E-2,-4.611896724E-2,7.330167107E-3
2.419456630E1,2.550287358E-2,-3.634541109E-2,9.162709117E-3
2.420371911E1,2.244863659E-2,-3.695625812E-2,9.162709117E-3
2.421287192E1,1.801999472E-2,-3.649812192E-2,7.788302377E-3
2.422202473E1,1.557660475E-2,-3.466558084E-2,8.399149403E-3
2.423117755E1,1.679829881E-2,-3.466558084E-2,6.566607859E-3
2.424033036E1,1.374406368E-2,-3.771981969E-2,3.512371797E-3
2.424948317E1,2.137965523E-3,-4.016320780E-2,-9.162708884E-4
2.425863598E1,-1.084253844E-2,-3.955236077E-2,-4.581354558E-3
2.426778880E1,-1.404948719E-2,-2.870982140E-2,-4.581354558E-3
2.427694161E1,-8.551862091E-3,-1.786728203E-2,-3.359660041E-3
2.428609442E1,6.108472589E-4,-7.635590620E-3,-1.527118147E-3
2.429524723E1,1.038440317E-2,5.039489828E-3,2.901524538E-3
2.430440005E1,1.450762246E-2,9.926267900E-3,7.788302377E-3
2.431355286E1,1.511846948E-2,1.053711493E-2,1.267508045E-2
2.432270567E1,1.511846948E-2,1.236965694E-2,1.450762246E-2
2.433185848E1,1.695101149E-2,8.857285604E-3,1.450762246E-2