"Time (s)","Gyroscope x (rad/s)","Gyroscope y (rad/s)","Gyroscope z (rad/s)"
1.111323898E1,-1.359135192E-2,9.849911928E-2,-9.468132630E-3
1.112238909E1,-4.581354442E-4,9.071081877E-2,-1.420219894E-2
1.113153914E1,7.024743594E-3,7.269082218E-2,-1.908897609E-2
1.114068919E1,-4.428642802E-3,5.207473040E-2,-2.458660305E-2
1.114983924E1,-2.458660305E-2,3.512371704E-2,-3.206948191E-2
1.115898929E1,-3.497100621E-2,2.061609551E-2,-3.695625812E-2
1.116813935E1,-3.497100621E-2,1.756185852E-2,-4.123219103E-2
1.117728945E1,-3.130592033E-2,2.840439789E-2,-4.550812021E-2
1.118643950E1,-3.512371704E-2,4.352286831E-2,-4.550812021E-2
1.119558956E1,-3.710897267E-2,5.741964281E-2,-4.016320780E-2
1.120473961E1,-3.298575059E-2,6.520794332E-2,-2.473931387E-2
1.121388966E1,-2.305948362E-2,6.291726977E-2,-7.635590620E-3
1.122303976E1,-1.313321572E-2,5.100574717E-2,7.635590620E-3
1.123218982E1,-6.261184346E-3,2.702999115E-2,2.183778957E-2
1.124133987E1,-9.009997360E-3,-4.886778072E-3,2.916795574E-2
1.125048992E1,-7.024743594E-3,-2.596100792E-2,3.405473381E-2
1.125963997E1,9.162708884E-4,-3.206948191E-2,3.298575059E-2
1.126879008E1,3.359660041E-3,-2.657185495E-2,2.443389036E-2
1.127794013E1,-1.527118147E-3,-8.551862091E-3,1.206423342E-2
1.128709018E1,-6.719320081E-3,1.542389300E-2,4.581354442E-4
1.129624023E1,-8.704573847E-3,3.527642787E-2,-8.093725890E-3
1.130539028E1,-1.313321572E-2,4.550812021E-2,-1.420219894E-2
1.131454039E1,-1.603474095E-2,3.878879920E-2,-1.420219894E-2
1.132369044E1,-1.908897609E-2,2.626643144E-2,-1.435491070E-2
1.133284049E1,-2.076880634E-2,1.053711493E-2,-1.435491070E-2
1.134199054E1,-1.756185852E-2,-1.527118147E-3,-1.175880991E-2
1.135114060E1,-1.695101149E-2,-2.748812549E-3,-6.261184346E-3
1.136029070E1,-2.015795931E-2,4.581354558E-3,-3.359660041E-3
1.136944075E1,-2.458660305E-2,1.359135192E-2,-2.137965523E-3
1.137859080E1,-2.840439789E-2,2.443389036E-2,-1.527118147E-3
1.138774086E1,-2.977880463E-2,4.016320780E-2,-3.054236295E-4
1.139689091E1,-2.672456764E-2,5.268557742E-2,-9.162708884E-4
1.140604101E1,-1.817270555E-2,5.940489471E-2,-2.748812549E-3
1.141519106E1,-9.620844387E-3,6.123743951E-2,-3.817795310E-3
1.142434112E1,6.566607859E-3,5.940489471E-2,-7.635590737E-4
1.143349117E1,2.504473738E-2,5.405998230E-2,3.054236295E-3
1.144264122E1,3.741439432E-2,4.260659590E-2,6.261184346E-3
1.145179127E1,3.939964995E-2,2.641914412E-2,8.704573847E-3
1.146094138E1,3.451287001E-2,1.435491070E-2,1.359135192E-2
1.147009143E1,2.718270384E-2,1.130067464E-2,1.481304597E-2
1.147924148E1,2.214321308E-2,1.969982497E-2,1.649287529E-2
1.148839153E1,2.015795931E-2,3.115320951E-2,1.771457121E-2
1.149754159E1,2.076880634E-2,4.810422286E-2,1.221694518E-2
1.150669169E1,1.695101149E-2,6.245913357E-2,1.099525020E-2
1.151584174E1,1.007897966E-2,6.734590977E-2,9.773556143E-3
1.152499179E1,5.192201585E-3,5.650337040E-2,6.566607859E-3
1.153414185E1,7.330167107E-3,3.359659761E-2,3.512371797E-3
1.154329190E1,1.618745178E-2,1.007897966E-2,-1.221694518E-3
1.155244200E1,2.809897438E-2,-1.099525020E-2,-5.955760833E-3
1.156159206E1,4.306473210E-2,-2.672456764E-2,-9.009997360E-3
1.157074211E1,4.871506989E-2,-3.390202299E-2,-1.130067464E-2
1.157989216E1,3.955236077E-2,-4.657710344E-2,-1.389677543E-2
1.158904221E1,2.611372061E-2,-5.986303091E-2,-1.572931744E-2
1.159819232E1,1.023169141E-2,-7.253811508E-2,-2.076880634E-2
1.160734237E1,4.275931045E-3,-9.193251282E-2,-2.076880634E-2
1.161649242E1,6.261184346E-3,-1.152974218E-1,-1.954711229E-2
1.162564247E1,1.634016447E-2,-1.363716573E-1,-1.328592747E-2
1.163479252E1,2.886253223E-2,-1.586675793E-1,-7.177455351E-3
1.164394258E1,3.878879920E-2,-1.736333370E-1,1.527118147E-3
1.165309268E1,4.062134400E-2,-1.766875684E-1,1.007897966E-2
1.166224273E1,3.985778242E-2,-1.676775664E-1,1.313321572E-2
1.167139278E1,4.031591862E-2,-1.513374150E-1,1.068982668E-2
1.168054284E1,4.321744293E-2,-1.212531775E-1,5.803049076E-3
1.168969289E1,4.779879749E-2,-8.154810965E-2,-1.527118147E-3
1.169884299E1,4.871506989E-2,-4.535540938E-2,-9.468132630E-3
1.170799304E1,4.123219103E-2,-2.550287358E-2,-1.695101149E-2
1.171714310E1,2.764083818E-2,-2.687728032E-2,-2.305948362E-2
1.172629315E1,1.786728203E-2,-3.527642787E-2,-3.176405653E-2
1.173544320E1,1.679829881E-2,-4.672981426E-2,-3.603998944E-2
1.174459330E1,1.817270555E-2,-5.818320066E-2,-3.649812192E-2
1.175374336E1,2.260134928E-2,-7.146912813E-2,-3.161134571E-2
1.176289341E1,2.825168520E-2,-8.292251825E-2,-2.672456764E-2
1.177204346E1,3.374931216E-2,-8.582404256E-2,-2.122694254E-2
1.178119351E1,3.985778242E-2,-8.276980370E-2,-1.740914769E-2
1.179034362E1,4.596625641E-2,-7.559234649E-2,-1.740914769E-2
1.179949367E1,4.535540938E-2,-7.131642103E-2,-1.863084175E-2
1.180864372E1,4.107947648E-2,-7.681404054E-2,-1.801999472E-2
1.181779377E1,3.741439432E-2,-8.582404256E-2,-1.557660475E-2
1.182694382E1,3.374931216E-2,-9.177979827E-2,-1.084253844E-2
1.183609393E1,3.191677108E-2,-9.666658193E-2,-9.620844387E-3
1.184524398E1,3.558185324E-2,-1.001789495E-1,-4.123218823E-3
1.185439403E1,4.367557913E-2,-1.104106456E-1,1.527118147E-3
1.186354409E1,5.299099907E-2,-1.218640283E-1,7.024743594E-3
1.187269414E1,6.108472496E-2,-1.327065676E-1,1.145338640E-2
1.188184424E1,7.162184268E-2,-1.374406368E-1,1.450762246E-2
1.189099429E1,7.345438004E-2,-1.374406368E-1,1.511846948E-2
1.190014435E1,6.978929788E-2,-1.278197914E-1,1.206423342E-2
1.190929440E1,6.154286116E-2,-1.116323397E-1,7.788302377E-3
1.191844445E1,5.772506446E-2,-9.407047927E-2,3.512371797E-3
1.192759456E1,5.207473040E-2,-7.360709459E-2,-9.162708884E-4
1.193674461E1,4.275930673E-2,-5.497625470E-2,-7.024743594E-3
1.194589466E1,3.390202299E-2,-3.329117596E-2,-1.145338640E-2
1.195504471E1,3.191677108E-2,-1.221694518E-2,-1.389677543E-2
1.196419476E1,3.787253052E-2,2.748812549E-3,-1.267508045E-2
1.197334487E1,5.008947477E-2,5.803049076E-3,-1.007897966E-2
1.198249492E1,6.123743951E-2,5.803049076E-3,-7.024743594E-3
1.199164497E1,6.734590977E-2,1.191152167E-2,-5.192201585E-3
1.200079502E1,6.978929788E-2,1.725643501E-2,-2.596100792E-3
1.200994508E1,7.207997888E-2,2.519745007E-2,-2.596100792E-3
1.201909518E1,7.085828483E-2,3.298575059E-2,-2.596100792E-3
1.202824523E1,6.765133142E-2,3.787253052E-2,-2.137965523E-3
1.203739528E1,6.704048812E-2,4.993676394E-2,3.970507067E-3
1.204654534E1,6.184828654E-2,6.261184067E-2,7.635590620E-3
1.205569539E1,6.123743951E-2,6.734590977E-2,1.130067464E-2
1.206484549E1,5.940489471E-2,6.734590977E-2,1.007897966E-2
1.207399554E1,5.696150661E-2,6.139015034E-2,8.246437646E-3
1.208314560E1,5.283828825E-2,4.810422286E-2,7.635590620E-3
1.209229565E1,5.039490014E-2,3.481829539E-2,7.024743594E-3
1.210144570E1,5.604523420E-2,3.237490356E-2,8.246437646E-3
1.211059575E1,6.459710002E-2,2.886253223E-2,1.007897966E-2
1.211974586E1,6.780404598E-2,1.863084175E-2,1.252236869E-2
1.212889591E1,6.795676053E-2,4.734066315E-3,1.634016447E-2
1.213804596E1,6.551336497E-2,-6.719320081E-3,1.679829881E-2
1.214719601E1,6.566607952E-2,-2.000524849E-2,1.878355257E-2
1.215634612E1,6.765133142E-2,-3.252761811E-2,2.122694254E-2
1.216549617E1,6.887302548E-2,-3.191677108E-2,2.244863659E-2
1.217464622E1,6.566607952E-2,-2.229592577E-2,2.229592577E-2
1.218379627E1,6.001574174E-2,-1.695101149E-2,2.290677279E-2
1.219294633E1,5.818320066E-2,-1.511846948E-2,2.107422985E-2
1.220209643E1,6.322269142E-2,-2.168507688E-2,1.985253580E-2
1.221124648E1,6.276455522E-2,-3.863608837E-2,1.863084175E-2
1.222039653E1,5.971032009E-2,-5.253286287E-2,1.740914769E-2
1.222954659E1,5.238015205E-2,-5.726693198E-2,2.168507688E-2
1.223869664E1,5.176930502E-2,-5.253286287E-2,2.779355086E-2
1.224784674E1,5.543438718E-2,-5.008947477E-2,2.840439789E-2
1.225699679E1,5.848862603E-2,-5.131116882E-2,2.535016090E-2
1.226614685E1,5.787777901E-2,-5.131116882E-2,2.290677279E-2
1.227529690E1,5.344913527E-2,-4.169032723E-2,2.046338283E-2
1.228444695E1,5.100574717E-2,-2.779355086E-2,1.801999472E-2
1.229359706E1,5.207473040E-2,-1.145338640E-2,1.801999472E-2
1.230274711E1,5.558710173E-2,-2.443389036E-3,1.618745178E-2
1.231189716E1,5.558710173E-2,1.068982761E-3,1.618745178E-2
1.232104721E1,5.436540768E-2,-2.443389036E-3,1.679829881E-2
1.233019726E1,5.008947477E-2,-9.162709117E-3,1.863084175E-2
1.233934737E1,4.963133857E-2,-1.756185852E-2,2.229592577E-2
1.234849742E1,4.840964451E-2,-2.122694254E-2,2.473931387E-2
1.235764747E1,4.581354558E-2,-1.695101149E-2,2.596100792E-2
1.236679752E1,4.642439261E-2,-3.665083554E-3,2.779355086E-2
1.237594758E1,4.932591692E-2,1.328592747E-2,3.084778599E-2
1.238509768E1,5.589252338E-2,3.069507517E-2,3.390202299E-2
1.239424773E1,5.955760926E-2,3.665083647E-2,3.512371704E-2
1.240339778E1,5.650337040E-2,3.497100621E-2,3.451287001E-2
1.241254784E1,5.085303262E-2,3.130592033E-2,3.695625812E-2
1.242169789E1,4.413371533E-2,2.473931387E-2,3.802524135E-2
1.243084799E1,4.001049697E-2,1.328592747E-2,3.497100621E-2
1.243999804E1,4.260659590E-2,1.679830020E-3,3.252761811E-2
1.244914810E1,4.459185153E-2,-5.497625098E-3,3.069507517E-2
1.245829815E1,4.275930673E-2,-1.389677543E-2,2.702999115E-2
1.246744825E1,3.680354729E-2,-3.206948191E-2,2.519745007E-2
1.247659831E1,3.619270027E-2,-4.413371533E-2,2.397575416E-2
1.248574836E1,4.062134400E-2,-4.947862774E-2,2.519745007E-2
1.249489841E1,4.245388508E-2,-4.703523964E-2,2.657185495E-2
1.250404846E1,4.046862945E-2,-3.680354729E-2,2.886253223E-2
1.251319851E1,3.680354729E-2,-2.840439789E-2,2.764083818E-2
1.252234862E1,3.237490356E-2,-1.817270555E-2,2.397575416E-2
1.253149867E1,2.733541466E-2,-1.038440317E-2,2.153236605E-2
1.254064872E1,2.428117767E-2,-7.330167107E-3,2.092151903E-2
1.254979877E1,2.596100792E-2,-1.374406274E-3,2.137965336E-2
1.255894888E1,3.145863488E-2,1.496575773E-2,2.458660305E-2
1.256809893E1,3.497100621E-2,2.397575416E-2,2.458660305E-2
1.257724898E1,3.451287001E-2,1.924168877E-2,2.214321308E-2
1.258639903E1,3.206948191E-2,1.374406368E-2,2.153236605E-2
1.259554909E1,3.329117596E-2,1.313321572E-2,2.458660305E-2
1.260469919E1,3.451287001E-2,1.252236869E-2,2.825168520E-2
1.261384924E1,3.695625812E-2,1.252236869E-2,3.130592033E-2
1.262299929E1,3.878879920E-2,8.399149403E-3,3.252761811E-2
1.263214935E1,3.817795217E-2,9.620844387E-3,3.436015919E-2
1.264129940E1,3.573456407E-2,9.009997360E-3,3.497100621E-2
1.265044950E1,3.206948191E-2,4.123218823E-3,3.313846514E-2
1.265959956E1,2.962609194E-2,-3.054236295E-3,3.130592033E-2
1.266874961E1,2.794626169E-2,-6.108472589E-3,2.886253223E-2
1.267789966E1,2.611372061E-2,-1.389677543E-2,2.519745007E-2
1.268704971E1,2.061609551E-2,-2.183778957E-2,2.076880634E-2
1.269619982E1,1.588202827E-2,-3.451287001E-2,1.588202827E-2
1.270534987E1,1.420219894E-2,-4.947862774E-2,1.466033421E-2
1.271449992E1,1.252236869E-2,-6.765133142E-2,1.221694518E-2
1.272364997E1,8.246437646E-3,-8.154810965E-2,7.330167107E-3
1.273280002E1,3.054236295E-4,-9.116895497E-2,4.275931045E-3
1.274195013E1,-1.191152167E-2,-9.193251282E-2,4.123218823E-3
1.275110018E1,-1.389677543E-2,-8.582404256E-2,3.512371797E-3
1.276025023E1,-1.145338640E-2,-7.131642103E-2,4.734066315E-3
1.276940028E1,-6.108472589E-3,-5.451811850E-2,4.734066315E-3
1.277855034E1,-0.000000000E0,-4.306473210E-2,9.162709117E-3
1.278770044E1,6.566607859E-3,-3.512371704E-2,1.466033421E-2
1.279685049E1,1.389677543E-2,-2.244863659E-2,2.321219631E-2
1.280600054E1,1.985253580E-2,-4.886778072E-3,2.626643144E-2
1.281515060E1,2.153236605E-2,1.496575773E-2,2.443389036E-2
1.282430070E1,1.588202827E-2,3.008422814E-2,2.137965336E-2
1.283345075E1,1.023169141E-2,4.092676565E-2,2.076880634E-2
1.284260080E1,1.130067464E-2,5.589252338E-2,1.893626526E-2
1.285175086E1,1.801999472E-2,7.467607409E-2,1.649287529E-2
1.286090096E1,1.603474095E-2,8.658760041E-2,1.466033421E-2
1.287005101E1,8.093725890E-3,8.292251825E-2,1.206423342E-2
1.287920106E1,2.596100792E-3,7.146912813E-2,1.145338640E-2
1.288835112E1,2.748812549E-3,5.528167635E-2,1.084253844E-2
1.289750117E1,1.068982761E-3,3.955236077E-2,1.084253844E-2
1.290665127E1,-7.635590737E-4,3.176405653E-2,1.023169141E-2
1.291580132E1,-3.206948051E-3,2.932066843E-2,9.009997360E-3
1.292495138E1,-4.428642802E-3,2.626643144E-2,8.399149403E-3
1.293410143E1,-2.443389036E-3,2.260134928E-2,8.399149403E-3
1.294325153E1,-3.054236295E-3,1.664558798E-2,9.009997360E-3
1.295240159E1,-1.832541777E-3,1.007897966E-2,7.177455351E-3
1.296155164E1,-6.108472589E-3,9.315420873E-3,4.123218823E-3
1.297070169E1,-1.221694518E-2,1.359135192E-2,-1.374406274E-3
1.297985174E1,-1.649287529E-2,1.893626526E-2,-8.093725890E-3
1.298900179E1,-2.214321308E-2,1.954711229E-2,-1.191152167E-2
1.299815190E1,-2.580829710E-2,1.588202827E-2,-1.374406368E-2
1.300730195E1,-2.764083818E-2,1.771457121E-2,-1.130067464E-2
1.301645200E1,-2.580829710E-2,2.321219631E-2,-7.635590620E-3
1.302560206E1,-2.229592577E-2,2.977880463E-2,-5.192201585E-3
1.303475216E1,-1.664558798E-2,3.161134571E-2,-2.137965523E-3
1.304390221E1,-1.236965694E-2,2.443389036E-2,-1.374406274E-3
1.305305226E1,-7.941014133E-3,1.847812906E-2,1.068982761E-3
1.306220232E1,-4.886778072E-3,1.786728203E-2,2.901524538E-3
1.307135237E1,-1.221694518E-3,1.786728203E-2,4.734066315E-3
1.308050247E1,3.054236295E-3,2.321219631E-2,4.123218823E-3
1.308965252E1,4.886778072E-3,2.748812735E-2,3.665083554E-3
1.309880258E1,1.832541777E-3,2.687728032E-2,4.734066315E-3
1.310795263E1,-3.665083554E-3,2.626643144E-2,7.177455351E-3
1.311710268E1,-9.315420873E-3,2.504473738E-2,7.788302377E-3
1.312625278E1,-1.603474095E-2,2.382304333E-2,5.192201585E-3
1.313540284E1,-2.153236605E-2,2.504473738E-2,1.527118147E-3
1.314455289E1,-2.214321308E-2,2.321219631E-2,-3.054236295E-4
1.315370294E1,-1.725643501E-2,1.893626526E-2,-3.054236295E-4
1.316285304E1,-9.773556143E-3,1.175880991E-2,-1.527118147E-4
1.317200310E1,-4.734066315E-3,2.748812549E-3,-1.985253533E-3
1.318115315E1,-3.359660041E-3,-5.650337320E-3,-2.596100792E-3
1.319030320E1,-8.246437646E-3,-9.315420873E-3,-3.817795310E-3
1.319945330E1,-1.206423342E-2,-1.298050396E-2,-5.650337320E-3
1.320860336E1,-1.267508045E-2,-1.298050396E-2,-5.039489828E-3
1.321775341E1,-1.145338640E-2,-8.093725890E-3,-3.206948051E-3
1.322690346E1,-1.206423342E-2,-2.137965523E-3,-3.817795310E-3
1.323605351E1,-1.466033421E-2,4.581354558E-3,-2.596100792E-3
1.324520362E1,-9.773556143E-3,1.420219894E-2,-1.527118147E-4
1.325435367E1,-6.719320081E-3,1.420219894E-2,-1.527118147E-4
1.326350372E1,-3.512371797E-3,6.413896102E-3,4.581354442E-4
1.327265377E1,3.054236295E-4,-5.039489828E-3,1.068982761E-3
1.328180388E1,1.527118147E-3,-1.236965694E-2,-6.108472589E-4
1.329095393E1,1.527118147E-3,-1.175880991E-2,-1.221694518E-3
1.330010398E1,-9.162708884E-4,-1.420219894E-2,-7.635590737E-4
1.330925403E1,-2.137965523E-3,-1.771457121E-2,-7.635590737E-4
1.331840409E1,-1.527118147E-4,-2.260134928E-2,1.221694518E-3
1.332755419E1,-7.635590737E-4,-2.916795574E-2,1.832541777E-3
1.333670424E1,-2.596100792E-3,-3.283303976E-2,2.901524538E-3
1.334585429E1,-3.206948051E-3,-3.283303976E-2,3.512371797E-3
1.335500435E1,-2.596100792E-3,-2.916795574E-2,2.901524538E-3
1.336415445E1,-3.359660041E-3,-1.771457121E-2,1.068982761E-3
1.337330450E1,-4.734066315E-3,-5.650337320E-3,2.290677279E-3
1.338245456E1,-3.512371797E-3,3.359660041E-3,2.290677279E-3
1.339160461E1,-2.443389036E-3,1.359135192E-2,5.344913341E-3
1.340075471E1,-1.221694518E-3,2.153236605E-2,5.344913341E-3
1.340990476E1,-2.443389036E-3,2.443389036E-2,4.734066315E-3
1.341905482E1,-4.581354442E-4,1.603474095E-2,2.901524538E-3
1.342820487E1,1.374406274E-3,7.635590620E-3,2.290677279E-3
1.343735492E1,-2.290677279E-3,3.054236295E-4,2.290677279E-3
1.344650502E1,-6.566607859E-3,-2.748812549E-3,1.068982761E-3
1.345565508E1,-7.177455351E-3,-9.162708884E-4,2.290677279E-3
1.346480513E1,-5.955760833E-3,-5.039489828E-3,2.290677279E-3
1.347395518E1,-3.054236295E-4,-1.175880991E-2,1.679830020E-3
1.348310528E1,-9.162708884E-4,-1.649287529E-2,4.734066315E-3
1.349225534E1,-3.054236295E-4,-1.893626526E-2,6.566607859E-3
1.350140539E1,9.162708884E-4,-1.893626526E-2,9.773556143E-3
1.351055544E1,5.955760833E-3,-2.489202656E-2,1.160609815E-2
1.351970554E1,9.009997360E-3,-2.794626169E-2,1.221694518E-2
1.352885560E1,1.145338640E-2,-2.916795574E-2,1.221694518E-2
1.353800565E1,1.511846948E-2,-2.489202656E-2,1.466033421E-2
1.354715570E1,1.695101149E-2,-2.000524849E-2,1.588202827E-2
1.355630581E1,1.328592747E-2,-1.939439960E-2,1.527118124E-2
1.356545586E1,3.970507067E-3,-1.343864016E-2,1.160609815E-2
1.357460591E1,-9.162708884E-4,-7.482878864E-3,7.177455351E-3
1.358375596E1,-5.344913341E-3,-9.162708884E-4,2.290677279E-3
1.359290607E1,-8.399149403E-3,2.748812549E-3,-1.374406274E-3
1.360205612E1,-1.023169141E-2,2.137965523E-3,-2.596100792E-3
1.361120617E1,-7.788302377E-3,-3.054236295E-4,-3.817795310E-3
1.362035622E1,-6.566607859E-3,3.359660041E-3,-4.428642802E-3
1.362950633E1,-1.679830020E-3,2.137965523E-3,-5.650337320E-3
1.363865638E1,1.527118147E-3,-5.650337320E-3,-5.650337320E-3
1.364780643E1,1.527118147E-3,-9.315420873E-3,-8.551862091E-3
1.365695648E1,-3.054236295E-4,-1.175880991E-2,-7.482878864E-3
1.366610659E1,-1.527118147E-3,-6.261184346E-3,-6.872031838E-3
1.367525664E1,-1.068982761E-3,3.970507067E-3,-6.261184346E-3
1.368440669E1,-4.581354442E-4,8.704573847E-3,-5.039489828E-3
1.369355674E1,-3.512371797E-3,7.482878864E-3,-3.206948051E-3
1.370270679E1,-6.566607859E-3,3.970507067E-3,-1.374406274E-3
1.371185690E1,-5.955760833E-3,-5.039489828E-3,-1.527118147E-4
1.372100695E1,-7.024743594E-3,-1.404948719E-2,-7.635590737E-4
1.373015700E1,-5.039489828E-3,-2.489202656E-2,-1.985253533E-3
1.373930706E1,-1.374406274E-3,-3.222219273E-2,-2.596100792E-3
1.374845716E1,2.443389036E-3,-3.695625812E-2,-1.221694518E-3
1.375760721E1,1.832541777E-3,-3.573456407E-2,-0.000000000E0
1.376675726E1,-1.985253533E-3,-3.344388679E-2,-1.527118147E-4
1.377590732E1,-5.039489828E-3,-2.305948362E-2,-7.635590737E-4
1.378505742E1,-5.192201585E-3,-6.261184346E-3,-7.635590737E-4
1.379420747E1,-8.399149403E-3,7.635590620E-3,-1.374406274E-3
1.380335752E1,-1.404948719E-2,1.908897609E-2,-4.428642802E-3
1.381250758E1,-1.664558798E-2,2.977880463E-2,-5.039489828E-3
1.382165768E1,-1.175880991E-2,3.771981969E-2,-3.817795310E-3
1.383080773E1,-3.817795310E-3,3.894151375E-2,-3.817795310E-3
1.383995778E1,1.221694518E-3,3.466558084E-2,-3.817795310E-3
1.384910784E1,4.275931045E-3,3.176405653E-2,-1.374406274E-3
1.385825794E1,1.221694518E-3,3.054236248E-2,-1.527118147E-4
1.386740799E1,-3.817795310E-3,2.993151546E-2,2.290677279E-3
1.387655804E1,-6.872031838E-3,2.687728032E-2,2.290677279E-3
1.388570810E1,-4.275931045E-3,2.092151903E-2,2.290677279E-3
1.389485820E1,7.635590737E-4,1.481304597E-2,1.679830020E-3
1.390400825E1,7.635590737E-4,1.053711493E-2,-1.527118147E-4
1.391315831E1,-6.566607859E-3,5.192201585E-3,-1.374406274E-3
1.392230841E1,-1.206423342E-2,1.527118147E-3,-7.635590737E-4
1.393145846E1,-9.620844387E-3,-2.748812549E-3,4.581354442E-4
1.394060851E1,-3.359660041E-3,-6.872031838E-3,1.068982761E-3
1.394975857E1,-1.527118147E-3,-1.527118124E-2,-1.527118147E-4
1.395890862E1,-3.359660041E-3,-2.015795931E-2,-7.635590737E-4
1.396805872E1,-4.581354558E-3,-2.199050039E-2,-1.985253533E-3
1.397720877E1,-7.024743594E-3,-2.199050039E-2,-3.206948051E-3
1.398635883E1,-7.024743594E-3,-1.893626526E-2,-3.817795310E-3
1.399550893E1,-4.581354558E-3,-2.015795931E-2,-4.428642802E-3
1.400465898E1,-9.162708884E-4,-1.710372418E-2,-3.206948051E-3
1.401380903E1,-2.748812549E-3,-1.236965694E-2,-2.596100792E-3
1.402295909E1,-5.803049076E-3,-1.236965694E-2,-1.374406274E-3
1.403210919E1,-7.024743594E-3,-1.053711493E-2,-1.374406274E-3
1.404125924E1,-5.344913341E-3,-3.206948051E-3,-1.527118147E-4
1.405040929E1,-4.581354442E-4,3.970507067E-3,-7.635590737E-4
1.405955935E1,5.039489828E-3,1.114796288E-2,-2.443389036E-3
1.406870945E1,9.315420873E-3,1.481304597E-2,-5.497625098E-3
1.407785950E1,6.261184346E-3,1.969982497E-2,-6.719320081E-3
1.408700956E1,6.108472589E-4,2.504473738E-2,-5.650337320E-3
1.409615961E1,-1.221694518E-3,2.809897438E-2,-3.817795310E-3
1.410530971E1,1.221694518E-3,2.626643144E-2,-3.817795310E-3
1.411445976E1,1.221694518E-3,2.076880634E-2,-3.206948051E-3
1.412360982E1,-6.108472589E-3,1.664558798E-2,-3.206948051E-3
1.413275987E1,-1.099525020E-2,1.053711493E-2,-1.374406274E-3
1.414190997E1,-1.038440317E-2,6.413896102E-3,-1.527118147E-4
1.415106002E1,-5.344913341E-3,-3.054236295E-4,2.290677279E-3
1.416021008E1,1.527118147E-3,-1.466033421E-2,3.054236295E-3
1.416936013E1,7.330167107E-3,-3.268032894E-2,2.443389036E-3
1.417851023E1,8.704573847E-3,-4.779879749E-2,1.832541777E-3
1.418766028E1,7.482878864E-3,-5.512896553E-2,1.832541777E-3
1.419681034E1,9.926267900E-3,-5.268557742E-2,1.221694518E-3
1.420596039E1,1.114796288E-2,-4.352286831E-2,1.832541777E-3
1.421511049E1,1.099525020E-2,-3.100049868E-2,6.108472589E-4
1.422426054E1,9.620844387E-3,-2.015795931E-2,6.108472589E-4
1.423341060E1,1.023169141E-2,-1.466033421E-2,-0.000000000E0
1.424256070E1,1.023169141E-2,-1.404948719E-2,-0.000000000E0
1.425171075E1,9.009997360E-3,-1.404948719E-2,-1.221694518E-3
1.426086080E1,5.955760833E-3,-1.466033421E-2,-3.054236295E-3
1.427001086E1,2.748812549E-3,-1.420219894E-2,-5.497625098E-3
1.427916096E1,2.137965523E-3,-1.527118124E-2,-6.108472589E-3
1.428831101E1,4.123218823E-3,-1.710372418E-2,-5.497625098E-3
1.429746106E1,8.399149403E-3,-2.137965336E-2,-4.886778072E-3
1.430661112E1,1.099525020E-2,-2.504473738E-2,-4.886778072E-3
1.431576122E1,1.221694518E-2,-2.382304333E-2,-6.108472589E-3
1.432491127E1,8.399149403E-3,-2.015795931E-2,-3.054236295E-3
1.433406132E1,2.901524538E-3,-1.954711229E-2,-1.832541777E-3
1.434321143E1,2.901524538E-3,-2.015795931E-2,-6.108472589E-4
1.435236148E1,9.620844387E-3,-1.710372418E-2,-1.832541777E-3
1.436151153E1,1.572931744E-2,-1.221694518E-2,1.221694518E-3
1.437066159E1,1.756185852E-2,-1.099525020E-2,1.832541777E-3
1.437981169E1,1.145338640E-2,-1.404948719E-2,-6.108472589E-4
1.438896174E1,2.748812549E-3,-1.359135192E-2,-6.108472589E-4
1.439811179E1,9.162708884E-4,-1.359135192E-2,-1.374406274E-3
1.440726185E1,5.803049076E-3,-1.175880991E-2,-1.221694518E-3
1.441641195E1,1.267508045E-2,-1.404948719E-2,-2.443389036E-3
1.442556200E1,1.328592747E-2,-1.404948719E-2,-1.221694518E-3
1.443471206E1,1.511846948E-2,-1.404948719E-2,1.832541777E-3
1.444386216E1,1.695101149E-2,-1.160609815E-2,3.665083554E-3
1.445301221E1,1.878355257E-2,-1.038440317E-2,4.275931045E-3
1.446216226E1,2.367033064E-2,-3.817795310E-3,3.817795310E-3
1.447131232E1,2.305948362E-2,-5.650337320E-3,4.886778072E-3
1.448046242E1,1.817270555E-2,-6.872031838E-3,3.054236295E-3
1.448961247E1,1.252236869E-2,-6.872031838E-3,1.832541777E-3
1.449876252E1,1.007897966E-2,-8.093725890E-3,1.832541777E-3
1.450791258E1,1.328592747E-2,-8.093725890E-3,6.108472589E-4
1.451706268E1,1.695101149E-2,-1.099525020E-2,1.221694518E-3
1.452621273E1,1.695101149E-2,-1.832541823E-2,2.443389036E-3
1.453536278E1,1.832541823E-2,-2.855710872E-2,2.443389036E-3
1.454451289E1,2.031067200E-2,-3.878879920E-2,2.443389036E-3
1.455366294E1,2.153236605E-2,-4.474456236E-2,3.206948051E-3
1.456281299E1,2.092151903E-2,-4.718795046E-2,1.374406274E-3
1.457196304E1,2.031067200E-2,-4.902049154E-2,1.374406274E-3
1.458111315E1,1.725643501E-2,-4.413371533E-2,0.000000000E0
1.459026320E1,8.551862091E-3,-3.451287001E-2,-3.054236295E-3
1.459941325E1,1.679830020E-3,-2.672456764E-2,-6.108472589E-3
1.460856330E1,1.679830020E-3,-2.137965336E-2,-7.941014133E-3
1.461771341E1,9.620844387E-3,-9.926267900E-3,-7.941014133E-3
1.462686346E1,1.191152167E-2,7.024743594E-3,-9.773556143E-3
1.463601351E1,4.428642802E-3,2.443389036E-2,-1.542389300E-2
1.464516362E1,-3.665083554E-3,3.817795217E-2,-2.092151903E-2
1.465431367E1,-8.704573847E-3,4.734066129E-2,-2.580829710E-2
1.466346372E1,-8.857285604E-3,5.451811850E-2,-2.947338112E-2
1.467261377E1,-5.803049076E-3,5.986303091E-2,-3.436015919E-2
1.468176388E1,-1.527118147E-3,6.642963737E-2,-3.497100621E-2
1.469091393E1,4.581354558E-3,7.192726433E-2,-3.252761811E-2
1.470006398E1,2.137965523E-3,7.437065244E-2,-2.825168520E-2
1.470921409E1,-3.970507067E-3,6.887302548E-2,-2.519745007E-2
1.471836414E1,-3.359660041E-3,6.719319522E-2,-2.031067200E-2
1.472751419E1,-3.054236295E-4,7.024743408E-2,-1.359135192E-2
1.473666429E1,3.359660041E-3,6.902574003E-2,-9.926267900E-3
1.474581435E1,2.748812549E-3,6.306997687E-2,-6.872031838E-3
1.475496440E1,1.527118147E-3,5.573981255E-2,-4.428642802E-3
1.476411445E1,1.679830020E-3,5.222744122E-2,-4.428642802E-3
1.477326456E1,8.399149403E-3,4.978405312E-2,-4.886778072E-3
1.478241461E1,1.527118124E-2,4.367557913E-2,-6.108472589E-3
1.479156466E1,1.527118124E-2,3.771981969E-2,-9.773556143E-3
1.480071471E1,1.298050396E-2,3.161134571E-2,-1.160609815E-2
1.480986482E1,6.872031838E-3,2.137965336E-2,-1.404948719E-2
1.481901487E1,3.206948051E-3,9.926267900E-3,-1.343864016E-2
1.482816492E1,-9.162708884E-4,-9.162708884E-4,-1.175880991E-2
1.483731502E1,-5.192201585E-3,-5.803049076E-3,-8.704573847E-3
1.484646508E1,-1.007897966E-2,-9.926267900E-3,-9.315420873E-3
1.485561513E1,-1.191152167E-2,-1.298050396E-2,-8.704573847E-3
1.486476518E1,-1.496575773E-2,-1.847812906E-2,-1.359135192E-2
1.487391528E1,-2.107422985E-2,-1.969982497E-2,-1.725643501E-2
1.488306534E1,-2.733541466E-2,-1.847812906E-2,-2.168507688E-2
1.489221539E1,-2.855710872E-2,-1.481304597E-2,-2.351761982E-2
1.490136549E1,-2.550287358E-2,-1.007897966E-2,-2.535016090E-2
1.491051554E1,-2.122694254E-2,-1.068982668E-2,-2.458660305E-2
1.491966560E1,-1.801999472E-2,-1.481304597E-2,-2.519745007E-2
1.492881565E1,-1.679829881E-2,-1.175880991E-2,-2.275406010E-2
1.493796575E1,-1.450762246E-2,-5.192201585E-3,-1.908897609E-2
1.494711581E1,-1.572931744E-2,-3.054236295E-4,-1.664558798E-2
1.495644862E1,-1.511846948E-2,5.039489828E-3,-1.298050396E-2
1.496578169E1,-1.404948719E-2,1.175880991E-2,-8.704573847E-3
1.497511471E1,-1.221694518E-2,1.236965694E-2,-6.261184346E-3
1.498444768E1,-1.160609815E-2,1.175880991E-2,-6.261184346E-3
1.499378065E1,-1.343864016E-2,7.482878864E-3,-6.261184346E-3
1.500311362E1,-1.527118124E-2,2.748812549E-3,-4.428642802E-3
1.501244664E1,-1.267508045E-2,-5.039489828E-3,-4.428642802E-3
1.502177961E1,-1.068982668E-2,-1.359135192E-2,-6.261184346E-3
1.503111258E1,-9.468132630E-3,-1.420219894E-2,-8.093725890E-3
1.504044560E1,-1.267508045E-2,-1.114796288E-2,-9.315420873E-3
1.504977856E1,-1.435491070E-2,-1.588202827E-2,-8.704573847E-3
1.505911153E1,-1.496575773E-2,-2.565558441E-2,-9.315420873E-3
1.506844456E1,-1.481304597E-2,-3.222219273E-2,-8.704573847E-3
1.507777752E1,-1.542389300E-2,-4.245388508E-2,-9.926267900E-3
1.508711049E1,-1.893626526E-2,-5.390727147E-2,-1.236965694E-2
1.509644346E1,-2.626643144E-2,-6.123743951E-2,-1.130067464E-2
1.510577648E1,-2.870982140E-2,-6.780404598E-2,-1.130067464E-2
1.511510945E1,-2.809897438E-2,-7.330167294E-2,-1.175880991E-2
1.512444242E1,-2.687728032E-2,-7.742489129E-2,-1.114796288E-2
1.513377544E1,-2.428117767E-2,-7.803573459E-2,-1.114796288E-2
1.514310841E1,-2.305948362E-2,-7.498150319E-2,-8.704573847E-3
1.515244138E1,-2.076880634E-2,-7.207997888E-2,-6.872031838E-3
1.516177440E1,-2.076880634E-2,-6.169557199E-2,-4.428642802E-3
1.517110737E1,-1.908897609E-2,-4.902049154E-2,-3.206948051E-3
1.518044034E1,-1.359135192E-2,-3.878879920E-2,-1.985253533E-3
1.518959263E1,-1.114796288E-2,-3.222219273E-2,-1.374406274E-3
1.519874268E1,-1.236965694E-2,-3.527642787E-2,-1.985253533E-3
1.520789273E1,-1.053711493E-2,-4.245388508E-2,-1.374406274E-3
1.521704278E1,-1.038440317E-2,-5.329642445E-2,1.068982761E-3
1.522619289E1,-1.221694518E-2,-5.696150661E-2,2.901524538E-3
1.523534294E1,-1.420219894E-2,-4.779879749E-2,1.068982761E-3
1.524449299E1,-1.618745178E-2,-3.222219273E-2,-1.527118147E-4
1.525364310E1,-2.000524849E-2,-1.527118124E-2,-1.985253533E-3
1.526279315E1,-2.137965336E-2,9.926267900E-3,-6.413896102E-3
1.527194320E1,-1.863084175E-2,4.016320780E-2,-8.246437646E-3
1.528109330E1,-1.572931744E-2,6.108472496E-2,-1.130067464E-2
1.529024336E1,-1.328592747E-2,7.085828483E-2,-1.252236869E-2
1.529939341E1,-1.328592747E-2,7.085828483E-2,-1.191152167E-2
1.530854346E1,-1.511846948E-2,6.062658876E-2,-1.068982668E-2
1.531769356E1,-1.924168877E-2,4.428642616E-2,-8.246437646E-3
1.532684362E1,-1.969982497E-2,2.993151546E-2,-5.192201585E-3
1.533599367E1,-1.282779220E-2,1.954711229E-2,-1.985253533E-3
1.534514377E1,-4.886778072E-3,1.725643501E-2,2.290677279E-3
1.535429383E1,4.275931045E-3,2.565558441E-2,5.955760833E-3
1.536344388E1,1.145338640E-2,4.382828996E-2,7.941014133E-3
1.537259398E1,1.130067464E-2,6.184828654E-2,1.099525020E-2
1.538174403E1,8.093725890E-3,7.574506104E-2,1.084253844E-2
1.539089409E1,-2.443389036E-3,7.986827940E-2,1.023169141E-2
1.540004414E1,-1.099525020E-2,7.742489129E-2,7.635590620E-3
1.540919424E1,-1.527118124E-2,6.902574003E-2,3.359660041E-3
1.541834429E1,-1.328592747E-2,5.879404768E-2,3.054236295E-4
1.542749435E1,-8.246437646E-3,4.672981426E-2,-3.817795310E-3
1.543664445E1,-7.635590737E-4,3.955236077E-2,-4.428642802E-3
1.544579450E1,3.665083554E-3,3.283303976E-2,-4.428642802E-3
1.545494456E1,4.886778072E-3,2.321219631E-2,-2.443389036E-3
1.546409466E1,0.000000000E0,1.481304597E-2,-1.374406274E-3
1.547324471E1,-4.734066315E-3,6.413896102E-3,1.679830020E-3
1.548239476E1,-9.009997360E-3,-3.817795310E-3,5.344913341E-3
1.549154487E1,-1.389677543E-2,-1.404948719E-2,9.009997360E-3
1.550069492E1,-1.695101149E-2,-2.260134928E-2,1.084253844E-2
1.550984497E1,-1.695101149E-2,-2.076880634E-2,1.267508045E-2
1.551899502E1,-1.572931744E-2,-1.649287529E-2,1.389677543E-2
1.552814513E1,-1.267508045E-2,-1.710372418E-2,1.450762246E-2
1.553729518E1,-1.450762246E-2,-1.466033421E-2,1.389677543E-2
1.554644523E1,-1.450762246E-2,-7.482878864E-3,1.450762246E-2
1.555559534E1,-1.527118124E-2,1.252236869E-2,1.267508045E-2
1.556474539E1,-1.313321572E-2,3.787253052E-2,1.267508045E-2
1.557389544E1,-1.511846948E-2,6.490252167E-2,1.007897966E-2
1.558304554E1,-1.649287529E-2,8.414421231E-2,8.246437646E-3
1.559219560E1,-1.603474095E-2,9.743013978E-2,7.635590620E-3
1.560134565E1,-1.053711493E-2,1.058292910E-1,5.192201585E-3
1.561049575E1,-5.803049076E-3,1.111742035E-1,4.734066315E-3
1.561964581E1,-2.748812549E-3,1.160609797E-1,1.068982761E-3
1.562879586E1,-1.527118147E-4,1.160609797E-1,-1.374406274E-3
1.563794596E1,-1.527118147E-4,1.082726792E-1,-1.985253533E-3
1.564709601E1,-1.221694518E-3,9.788827598E-2,-8.704573847E-3
1.565624607E1,-1.221694518E-3,9.498675168E-2,-1.175880991E-2
1.566539617E1,-6.108472589E-4,9.193251282E-2,-1.114796288E-2
1.567454622E1,1.527118147E-4,7.986827940E-2,-1.298050396E-2
1.568369627E1,-7.635590737E-4,5.390727147E-2,-2.092151903E-2
1.569284638E1,-4.581354442E-4,2.321219631E-2,-2.641914412E-2
1.570199643E1,3.512371797E-3,-6.872031838E-3,-3.054236248E-2
1.571114648E1,5.650337320E-3,-3.527642787E-2,-3.359659761E-2
1.572029653E1,4.123218823E-3,-6.429167092E-2,-3.970507160E-2
1.572944664E1,-6.108472589E-4,-8.780929446E-2,-4.764608666E-2
1.573859669E1,-2.443389036E-3,-9.987352788E-2,-5.253286287E-2
1.574774679E1,-1.068982761E-3,-1.130067408E-1,-4.886778072E-2
1.575689685E1,7.177455351E-3,-1.336228400E-1,-4.764608666E-2
1.576604690E1,1.725643501E-2,-1.575985998E-1,-4.871506989E-2
1.577519695E1,3.344388679E-2,-1.782146841E-1,-5.405998230E-2
1.578434706E1,4.886778072E-2,-1.769929975E-1,-5.344913527E-2
1.579349711E1,6.352811307E-2,-1.612636745E-1,-5.207473040E-2
1.580264716E1,7.437065244E-2,-1.377460510E-1,-5.070032179E-2
1.581179726E1,7.971556485E-2,-1.142284349E-1,-5.131116882E-2
1.582094732E1,8.506047726E-2,-9.300149232E-2,-5.008947477E-2
1.583009737E1,9.544488788E-2,-8.765657991E-2,-4.642439261E-2
1.583924747E1,1.036913246E-1,-9.895725548E-2,-4.321744293E-2
1.584839752E1,1.117850468E-1,-1.255291104E-1,-3.771981969E-2
1.585754758E1,1.256818175E-1,-1.623326540E-1,-3.084778599E-2
1.586669768E1,1.414111406E-1,-1.983726472E-1,-2.275406010E-2
1.587584773E1,1.588202864E-1,-2.272351831E-1,-8.551862091E-3
1.588499778E1,1.780619770E-1,-2.451024652E-1,8.093725890E-3
1.589414789E1,1.995943487E-1,-2.528907657E-1,2.886253223E-2
1.590329794E1,2.234173864E-1,-2.545706034E-1,5.971032009E-2
1.591244799E1,2.522799075E-1,-2.483094037E-1,8.918370306E-2
1.592159810E1,2.959555089E-1,-2.451024652E-1,1.285833418E-1
1.593074815E1,3.549022675E-1,-2.460187376E-1,1.777565479E-1
1.593989820E1,4.340069890E-1,-2.402156889E-1,2.388412803E-1
1.594904831E1,5.273138881E-1,-2.344126403E-1,3.090887070E-1
1.595819836E1,6.360446811E-1,-2.339545041E-1,3.959817290E-1
1.596734841E1,7.583668828E-1,-2.345653474E-1,4.976878166E-1
1.597649851E1,8.843541145E-1,-2.423536479E-1,6.079457402E-1
1.598564857E1,1.012784719E0,-2.579302490E-1,7.259919643E-1
1.599479862E1,1.151141644E0,-2.728960216E-1,8.472451568E-1
1.600394872E1,1.300646544E0,-2.903051674E-1,9.600991607E-1
1.601309877E1,1.457023382E0,-3.119902313E-1,1.056460381E0
1.602224883E1,1.610346079E0,-3.390202224E-1,1.144269586E0
1.603139893E1,1.751146436E0,-3.361186981E-1,1.234522343E0
1.604054898E1,1.869650722E0,-2.620534599E-1,1.315765023E0
1.604969903E1,1.969982386E0,-1.531699449E-1,1.401894450E0
1.605892711E1,2.042062283E0,-8.475505561E-2,1.453052878E0
1.606825950E1,2.056570053E0,-3.787253052E-2,1.407392025E0
1.607757945E1,2.022515297E0,-7.941014133E-3,1.370435834E0
1.608692544E1,1.972883940E0,2.153236605E-2,1.394564271E0
1.609625846E1,1.896375299E0,7.406523079E-2,1.434880257E0
1.610559143E1,1.800472260E0,1.029277667E-1,1.464658976E0
1.611492440E1,1.704111099E0,4.138490185E-2,1.498866439E0
1.612425742E1,1.650203824E0,-7.666133344E-2,1.513832211E0
1.613357737E1,1.642415524E0,-1.956238300E-1,1.438698053E0
1.614292336E1,1.668376565E0,-3.761292100E-1,1.359745979E0
1.615225638E1,1.712052107E0,-6.108472347E-1,1.266744494E0
1.616158935E1,1.770388126E0,-8.202151656E-1,1.185959935E0
1.617092232E1,1.832083583E0,-9.449806809E-1,1.127929449E0
1.618025534E1,1.870414257E0,-9.964445829E-1,1.071426034E0
1.618958830E1,1.866443753E0,-1.003316641E0,1.002400398E0
1.619892127E1,1.850409031E0,-1.015838981E0,1.029888511E0
1.620825429E1,1.810551286E0,-1.004843712E0,1.096165419E0
1.621757424E1,1.731599212E0,-9.313893318E-1,1.111283898E0
1.622692023E1,1.654021621E0,-7.994463444E-1,1.113727212E0
1.623625325E1,1.592784286E0,-6.322268844E-1,1.105938911E0
1.624558622E1,1.553079128E0,-4.532486796E-1,1.096928954E0
1.625491919E1,1.525132895E0,-2.899997234E-1,1.083184958E0
1.626425221E1,1.499019146E0,-1.968455315E-1,1.073258638E0
1.627358518E1,1.448929667E0,-1.798945218E-1,1.078298092E0
1.628291815E1,1.370588541E0,-1.595838517E-1,1.060583591E0
1.629217591E1,1.284611821E0,-1.206423342E-1,1.054475069E0
1.630132596E1,1.215891480E0,-8.399149776E-2,1.046686769E0
1.631047601E1,1.169467092E0,-5.879404768E-2,1.037829518E0
1.631962612E1,1.128540277E0,-1.088835225E-1,1.041800022E0
1.632877617E1,1.079977989E0,-1.885990947E-1,1.019504070E0
1.633792622E1,1.019656777E0,-2.527380586E-1,9.923213720E-1
1.634707632E1,9.665130973E-1,-3.052709103E-1,9.791881442E-1
1.635622638E1,9.344435930E-1,-3.555130959E-1,9.342908859E-1
1.636537643E1,9.046648145E-1,-4.257605374E-1,8.597674966E-1
1.637452653E1,8.544226289E-1,-5.103628635E-1,8.246437907E-1
1.638367659E1,7.899782062E-1,-6.116108298E-1,8.174663186E-1
1.639282664E1,7.192726731E-1,-6.980457306E-1,7.986828089E-1
1.640197674E1,6.540647149E-1,-7.543963790E-1,7.452336550E-1
1.641112679E1,5.867187977E-1,-7.203416228E-1,7.018635273E-1
1.642027690E1,5.192201734E-1,-6.562026739E-1,6.433748603E-1
1.642942695E1,4.596625566E-1,-6.534538269E-1,5.789304972E-1
1.643857700E1,3.981196880E-1,-7.020162344E-1,5.253286362E-1
1.644772706E1,3.263451457E-1,-7.424848676E-1,5.309789777E-1
1.645687716E1,2.577775419E-1,-7.244648337E-1,5.238015056E-1
1.646602721E1,1.986780763E-1,-6.433748603E-1,4.952444136E-1
1.647517732E1,1.476723254E-1,-5.146388412E-1,4.550811946E-1
1.648432737E1,1.070509851E-1,-4.143071473E-1,4.175141156E-1
1.649347742E1,6.154286116E-2,-3.584146202E-1,3.781144619E-1
1.650262752E1,1.435491070E-2,-3.724641204E-1,3.471139669E-1
1.651177758E1,-2.565558441E-2,-4.304946065E-1,3.280249834E-1
1.652092763E1,-7.085828483E-2,-4.578300118E-1,2.935121059E-1
1.653007773E1,-1.207950488E-1,-4.590517282E-1,3.011476994E-1
1.653922778E1,-1.676775664E-1,-4.598152637E-1,2.861819267E-1
1.654837784E1,-2.160872221E-1,-4.714213610E-1,2.606790662E-1
1.655752794E1,-2.732014358E-1,-4.866925478E-1,2.254026383E-1
1.656667799E1,-3.271087110E-1,-5.031854510E-1,1.927223057E-1
1.657582804E1,-3.732276857E-1,-5.021164417E-1,1.594311297E-1
1.658497815E1,-4.097257853E-1,-4.685198367E-1,1.334701329E-1
1.659412820E1,-3.533751369E-1,-3.726168275E-1,1.288887709E-1
1.660326554E1,-1.635543555E-1,-2.330382317E-1,1.502684206E-1
1.661242836E1,4.184303805E-2,-1.863084137E-1,1.852394342E-1
1.662157841E1,1.012479365E-1,-3.054236174E-1,2.023431510E-1
1.663071575E1,5.482354015E-2,-5.358657837E-1,1.539335102E-1
1.663987856E1,-7.925742865E-2,-6.157340407E-1,1.108687744E-1
1.664902862E1,-2.953446507E-1,-4.107947946E-1,6.459710002E-2
1.665816596E1,-5.228852630E-1,-1.015533581E-1,1.450762246E-2
1.666732877E1,-6.433748603E-1,1.727170646E-1,-4.627167806E-2
1.667647882E1,-6.389462352E-1,4.031592011E-1,-1.246128380E-1
1.668561617E1,-5.320479870E-1,5.592306852E-1,-2.144073844E-1
1.669477898E1,-3.804051280E-1,6.836907864E-1,-3.220692277E-1
1.670392903E1,-2.538070381E-1,8.467870355E-1,-4.396573007E-1
1.671306638E1,-2.014268786E-1,9.568922520E-1,-5.175403357E-1
1.672222919E1,-2.550287247E-1,9.758284688E-1,-5.772506595E-1
1.673137924E1,-5.175403357E-1,9.831586480E-1,-7.379034758E-1
1.674051659E1,-9.561286569E-1,9.535325766E-1,-9.168817401E-1
1.674967940E1,-1.491383553E0,6.230642200E-1,-1.047450304E0
1.675882945E1,-1.764737725E0,7.908945084E-1,-1.026834249E0
1.676796679E1,-1.615843654E0,1.596602082E0,-9.066500664E-1
1.677712961E1,-1.536891699E0,1.860335350E0,-1.021031141E0
1.678627966E1,-1.611567736E0,1.409682751E0,-1.396244168E0
1.679541700E1,-1.708387017E0,1.062110662E0,-1.513832211E0
1.680457982E1,-1.758934736E0,1.077534556E0,-1.242005229E0
1.681372987E1,-1.764737725E0,1.056613088E0,-1.012326598E0
1.682286721E1,-1.745190620E0,9.098569751E-1,-9.437590241E-1
1.683203002E1,-1.702431321E0,5.289937258E-1,-9.541434050E-1
1.684118008E1,-1.652952671E0,-1.450762246E-2,-9.833113551E-1
1.685031742E1,-1.652799964E0,-4.280512035E-1,-1.036149621E0
1.685948023E1,-1.695711970E0,-7.069029808E-1,-1.118614078E0
1.686863028E1,-1.688076377E0,-8.338065147E-1,-1.205201626E0
1.687776763E1,-1.628824234E0,-8.163973689E-1,-1.250098944E0
1.688693044E1,-1.590188146E0,-6.554391384E-1,-1.240019917E0
1.689608054E1,-1.582399845E0,-3.732276857E-1,-1.195733547E0
1.690521784E1,-1.564074397E0,-4.443913698E-2,-1.134037971E0
1.691438065E1,-1.535517335E0,2.589992285E-1,-1.070509791E0
1.692353070E1,-1.517497301E0,4.929537475E-1,-1.020573020E0
1.693268080E1,-1.510625243E0,6.812474132E-1,-9.749122262E-1
1.694183086E1,-1.527118206E0,8.559496999E-1,-9.622371197E-1
1.695098091E1,-1.527729034E0,9.242119193E-1,-9.397885203E-1
1.696013101E1,-1.539335132E0,9.168817401E-1,-9.391776323E-1
1.696928106E1,-1.515512109E0,8.771766424E-1,-9.555178285E-1
1.697843117E1,-1.458397865E0,9.000834227E-1,-9.581139088E-1
1.698758122E1,-1.393953443E0,9.155073166E-1,-9.193251133E-1
1.699673127E1,-1.349514365E0,8.927532434E-1,-8.884773254E-1
1.700588138E1,-1.330883503E0,8.753440976E-1,-8.826742768E-1
1.701503143E1,-1.318819284E0,8.486195803E-1,-9.095515609E-1
1.702418148E1,-1.297286868E0,8.058602214E-1,-9.399412274E-1
1.703333159E1,-1.255138397E0,7.733326554E-1,-9.646805525E-1
1.704248164E1,-1.213753462E0,7.823426127E-1,-9.967499971E-1
1.705163169E1,-1.161831498E0,7.733326554E-1,-9.865183234E-1
1.706078179E1,-1.108076930E0,7.970029712E-1,-9.422318935E-1
1.706993185E1,-1.081199646E0,8.648070097E-1,-8.699992299E-1
1.707908190E1,-1.084559321E0,9.446752667E-1,-8.133431077E-1
1.708823200E1,-1.114032745E0,9.856020808E-1,-8.153283596E-1
1.709738206E1,-1.136939406E0,1.048519373E0,-8.808417320E-1
1.710653216E1,-1.140604496E0,1.042410851E0,-9.016105533E-1
1.711568221E1,-1.139535546E0,9.738432169E-1,-8.637380004E-1
1.712483226E1,-1.128540277E0,8.921424150E-1,-8.196043372E-1
1.713398237E1,-1.080130696E0,7.802046537E-1,-7.911999226E-1
1.714313242E1,-9.733850956E-1,6.021426916E-1,-7.560762167E-1
1.715228247E1,-8.710681796E-1,4.582881629E-1,-7.343910933E-1
1.716143258E1,-8.081509471E-1,3.831539452E-1,-7.328640223E-1
1.717058263E1,-7.527165413E-1,3.839175105E-1,-7.183563709E-1
1.717973268E1,-6.592568755E-1,3.793361485E-1,-6.723901033E-1
1.718888278E1,-5.654918551E-1,2.820587158E-1,-6.357392669E-1
1.719803284E1,-5.016583204E-1,9.300149232E-2,-6.064186096E-1
1.720718294E1,-4.914266169E-1,-9.544488788E-2,-5.763344169E-1
1.721633299E1,-5.051707029E-1,-2.345653474E-1,-5.390726924E-1
1.722548304E1,-5.095993280E-1,-3.168770075E-1,-4.975350797E-1
1.723463315E1,-4.869979918E-1,-3.058817685E-1,-4.747810364E-1
1.724378320E1,-4.191939235E-1,-3.040492237E-1,-4.639385045E-1
1.725293325E1,-3.356605768E-1,-3.405473530E-1,-4.588989913E-1
1.726208336E1,-2.823641598E-1,-3.677300513E-1,-4.763081372E-1
1.727123341E1,-2.663294077E-1,-3.628432751E-1,-4.865398407E-1
1.728038351E1,-2.638860047E-1,-3.689517379E-1,-4.914266169E-1
1.728952081E1,-2.805316150E-1,-3.581092060E-1,-5.001311898E-1
1.729868362E1,-3.136700690E-1,-3.009949923E-1,-4.961606860E-1
1.730783372E1,-3.503209054E-1,-2.050919682E-1,-4.799732268E-1
1.731698377E1,-3.828485310E-1,-8.338065445E-2,-4.686725736E-1
1.732613382E1,-3.970507085E-1,3.115320951E-2,-4.388937652E-1
1.733528393E1,-3.920112252E-1,1.392731816E-1,-4.016320705E-1
1.734443398E1,-3.741439581E-1,2.683146596E-1,-3.558185399E-1
1.735358403E1,-3.431434333E-1,4.085040987E-1,-2.709107697E-1
1.736273414E1,-2.803788781E-1,5.157077909E-1,-1.600419879E-1
1.737188419E1,-1.345391124E-1,5.479300022E-1,-2.473931387E-2
1.738103429E1,1.214058921E-1,4.500417113E-1,1.462979168E-1
1.739018435E1,4.515688419E-1,2.356343269E-1,3.474193811E-1
1.739933440E1,8.043331504E-1,-1.908897609E-2,5.644228458E-1
1.740848450E1,1.129914761E0,-2.081461996E-1,7.646280527E-1
1.741763456E1,1.397007704E0,-3.118375242E-1,9.590302110E-1
1.742677190E1,1.594005942E0,-2.432699203E-1,1.157555580E0
1.743593471E1,1.727017879E0,1.756185852E-2,1.379293084E0
1.744508476E1,1.812689185E0,3.921639323E-1,1.615385532E0
1.745422211E1,1.842773438E0,8.220477104E-1,1.806428075E0
1.746338492E1,1.804137349E0,1.081657767E0,1.933484316E0
1.747253497E1,1.705180168E0,1.016602516E0,1.988460541E0
1.748167232E1,1.559034944E0,7.965448499E-1,2.018697500E0
1.749083513E1,1.406170368E0,3.697153032E-1,2.059471607E0
1.749998518E1,1.327065706E0,-3.298575282E-1,2.096122265E0
1.750912252E1,1.341267824E0,-8.973346353E-1,2.118571043E0
1.751828534E1,1.438392639E0,-1.195580840E0,2.086501598E0
1.752743544E1,1.614469290E0,-1.397160411E0,1.969371557E0
1.753658549E1,1.814674497E0,-1.609429836E0,1.853768706E0
1.754573554E1,1.991209388E0,-1.727017879E0,1.750077367E0
1.755488565E1,2.151404142E0,-1.748092175E0,1.647455096E0
1.756402294E1,2.280903578E0,-1.725796223E0,1.590951681E0
1.757318575E1,2.369476557E0,-1.703500271E0,1.592784286E0
1.758233586E1,2.382915258E0,-1.707470775E0,1.626380801E0
1.759147315E1,2.297702074E0,-1.698460817E0,1.663031697E0
1.760063596E1,2.143004894E0,-1.590188146E0,1.690519810E0
1.760978606E1,1.956543803E0,-1.387539506E0,1.644553542E0
1.761892336E1,1.801541328E0,-1.114948988E0,1.590798974E0
1.762808622E1,1.723810911E0,-7.936432958E-1,1.522078633E0
1.763723627E1,1.693115830E0,-4.521796703E-1,1.485122442E0
1.764638632E1,1.661351800E0,-1.250709742E-1,1.465117097E0
1.765553643E1,1.609887958E0,1.398840249E-1,1.443126678E0
1.766468648E1,1.534295559E0,3.096995652E-1,1.452289343E0
1.767383653E1,1.469393134E0,3.898732662E-1,1.479777455E0
1.768298664E1,1.428466320E0,4.205683470E-1,1.478861213E0
1.769213669E1,1.402657986E0,4.095730782E-1,1.460383058E0
1.770127403E1,1.371046662E0,3.799470067E-1,1.431520581E0
1.771043685E1,1.322637081E0,3.448232710E-1,1.420830727E0
1.771958690E1,1.271020412E0,3.205420971E-1,1.412584305E0
1.772872424E1,1.252542257E0,2.903051674E-1,1.350736022E0
1.773788706E1,1.263537526E0,2.072299272E-1,1.242157936E0
1.774703711E1,1.287055135E0,3.817795217E-2,1.128998399E0
1.775618721E1,1.300799251E0,-1.948602796E-1,1.013701081E0
1.776533726E1,1.257887244E0,-3.978142738E-1,9.110786915E-1
1.777448732E1,1.174811959E0,-5.616740584E-1,8.141067028E-1
1.778363742E1,1.077381849E0,-7.111788988E-1,7.017107606E-1
1.779278747E1,9.924740791E-1,-8.189934492E-1,5.796940327E-1
1.780193758E1,9.145910740E-1,-8.803836107E-1,4.656183124E-1
1.781108763E1,8.312104344E-1,-9.484930634E-1,3.521534503E-1
1.782023768E1,7.317950130E-1,-1.011715770E0,2.499892414E-1
1.782938778E1,6.065713167E-1,-1.038134933E0,1.685938388E-1
1.783853784E1,4.367557764E-1,-9.536852837E-1,7.452336699E-2
1.784768794E1,2.423536479E-1,-8.229639530E-1,-2.137965523E-3
1.785683799E1,9.239064902E-2,-7.131641507E-1,-5.818320066E-2
1.786598804E1,-3.038965166E-2,-5.894675851E-1,-1.146865711E-1
1.787513815E1,-1.640124917E-1,-4.559974670E-1,-1.548497826E-1
1.788428820E1,-3.223746419E-1,-3.057290614E-1,-1.743968874E-1
1.789343825E1,-5.172349215E-1,-1.476723254E-1,-2.040229887E-1
1.790258836E1,-7.178982496E-1,-2.702999115E-2,-2.451024652E-1
1.791173841E1,-8.903098702E-1,6.047387794E-2,-3.122956753E-1
1.792087575E1,-1.057682037E0,1.053711548E-1,-4.479037523E-1
1.793003856E1,-1.224290609E0,8.506047726E-2,-6.737645268E-1
1.793918862E1,-1.168092728E0,1.960819662E-1,-9.489512444E-1
1.794832596E1,-6.125270724E-1,8.805363178E-1,-1.096928954E0
1.795748877E1,1.685938388E-1,1.528492570E0,-1.024085402E0
1.796663882E1,-1.038440317E-2,6.704048514E-1,-9.434536099E-1
1.797577617E1,-1.060278177E0,5.047125220E-1,-8.389987350E-1
1.798493898E1,-2.079018593E0,3.880407214E-1,-9.426900148E-1
1.799408909E1,-1.618439794E0,-9.368869662E-1,-1.124569774E0
1.800322638E1,-4.877615273E-1,-7.985301018E-1,-8.457180262E-1
1.801238919E1,-4.471401870E-1,-5.474718809E-1,-6.258130074E-1
1.802153929E1,-9.764393568E-1,-7.601994276E-1,-6.867450476E-1
1.803067659E1,-1.394411564E0,-1.771457046E-1,-5.887040496E-1
1.803983940E1,-1.493063450E0,7.792884111E-1,-3.886515796E-1
1.804898950E1,-1.321262598E0,9.029849768E-1,-4.424061179E-1
1.805812679E1,-1.323095202E0,7.290462255E-1,-6.835380793E-1
1.806728966E1,-1.510625243E0,3.034383655E-1,-9.281824231E-1
1.807643971E1,-1.565448761E0,6.627693027E-2,-1.018129706E0
1.808557700E1,-1.460993886E0,7.864658535E-2,-9.900307059E-1
1.809473987E1,-1.291483760E0,9.101624042E-2,-9.619317055E-1
1.810388992E1,-1.175422788E0,4.856235534E-2,-9.310839176E-1
1.811302726E1,-1.175422788E0,1.064401343E-1,-8.903098702E-1
1.812219008E1,-1.222458124E0,3.271087110E-1,-8.883246183E-1
1.813134013E1,-1.243990421E0,5.535803437E-1,-9.167290330E-1
1.814047747E1,-1.281404853E0,7.449282408E-1,-9.599464536E-1
1.814964028E1,-1.312252641E0,9.123004079E-1,-9.962918758E-1
1.815879034E1,-1.340198874E0,1.010494113E0,-9.933903813E-1
1.816794044E1,-1.398382068E0,1.094027400E0,-1.010952234E0
1.817709049E1,-1.385401607E0,1.163358569E0,-1.000567794E0
1.818624054E1,-1.345085621E0,1.262926698E0,-9.759812355E-1
1.819539065E1,-1.328287363E0,1.308892965E0,-9.416210651E-1
1.820454070E1,-1.322789788E0,1.245670319E0,-9.294040799E-1
1.821369075E1,-1.361120462E0,1.240936160E0,-9.009997249E-1
1.822284086E1,-1.451525807E0,1.276976228E0,-8.900044560E-1
1.823199091E1,-1.508181930E0,1.280946732E0,-9.258917570E-1
1.824114096E1,-1.517191887E0,1.215738773E0,-9.782719016E-1
1.825029107E1,-1.516581059E0,1.164274931E0,-1.027139664E0
1.825944112E1,-1.495812178E0,1.066539288E0,-1.058140159E0
1.826859122E1,-1.441599488E0,9.298622608E-1,-1.067913771E0
1.827774127E1,-1.403268814E0,8.389987350E-1,-1.052947998E0
1.828689133E1,-1.408461094E0,7.902836204E-1,-1.041952729E0
1.829604143E1,-1.419761777E0,8.215895891E-1,-1.039051175E0
1.830519148E1,-1.403421521E0,8.469397426E-1,-1.035386086E0
1.831434159E1,-1.328134656E0,8.350282311E-1,-1.003622055E0
1.832349164E1,-1.218793035E0,7.262973785E-1,-9.674293399E-1
1.833264169E1,-1.120904684E0,5.928272605E-1,-9.487984776E-1
1.834179179E1,-1.079825282E0,5.212054253E-1,-9.155073166E-1
1.835094185E1,-1.039814711E0,5.176930428E-1,-8.872556686E-1
1.836009195E1,-9.706363082E-1,4.842491746E-1,-8.579349518E-1
1.836924200E1,-8.780929446E-1,4.508052766E-1,-8.139539957E-1
1.837839206E1,-7.855495811E-1,4.873034060E-1,-7.589777112E-1
1.838754216E1,-7.269082665E-1,5.273138881E-1,-7.330167294E-1
1.839669221E1,-6.890357137E-1,5.515950918E-1,-6.991146803E-1
1.840584232E1,-6.635328531E-1,5.842754245E-1,-6.836907864E-1
1.841499237E1,-6.255075932E-1,5.995466113E-1,-6.656708121E-1
1.842414242E1,-5.874823332E-1,6.279509664E-1,-6.557445526E-1
1.843329252E1,-5.515950918E-1,6.719319820E-1,-6.334486008E-1
1.844244258E1,-5.303681493E-1,6.943806410E-1,-6.051968932E-1
1.845159263E1,-5.033381581E-1,6.771242023E-1,-5.683933496E-1
1.846074273E1,-4.781406820E-1,6.899519563E-1,-5.431959033E-1
1.846989278E1,-4.532486796E-1,6.707102656E-1,-5.638120174E-1
1.847904289E1,-4.353813827E-1,6.026008129E-1,-5.795413256E-1
1.848819294E1,-4.259132445E-1,4.857762754E-1,-5.415160656E-1
1.849734299E1,-4.185830951E-1,3.298575282E-1,-4.894413650E-1
1.850649310E1,-4.077405334E-1,1.473668963E-1,-4.599680007E-1
1.851564315E1,-3.779617548E-1,-4.107947648E-2,-4.320217371E-1
1.852479325E1,-3.344388604E-1,-2.336490750E-1,-4.010212123E-1
1.853394330E1,-3.150444627E-1,-4.101839364E-1,-3.752129376E-1
1.854309336E1,-3.109212518E-1,-5.431959033E-1,-3.658975065E-1
1.855224346E1,-2.962609231E-1,-6.542174220E-1,-3.895678520E-1
1.856139351E1,-2.522799075E-1,-8.018897176E-1,-4.288147688E-1
1.857054362E1,-1.806580722E-1,-9.894198179E-1,-4.842491746E-1
1.857968091E1,-1.183516532E-1,-1.166870952E0,-5.575508475E-1
1.858884372E1,-8.490777016E-2,-1.244753957E0,-6.105418205E-1
1.859799382E1,-7.605048269E-2,-1.193442822E0,-6.189410090E-1
1.860713117E1,-1.052184403E-1,-1.038593054E0,-5.887040496E-1
1.861629398E1,-1.855448484E-1,-8.287670016E-1,-5.442649126E-1
1.862544403E1,-2.863346636E-1,-6.041279435E-1,-5.054761171E-1
1.863459414E1,-3.652866483E-1,-4.098785222E-1,-4.653128982E-1
1.864374419E1,-3.865135908E-1,-3.295520842E-1,-3.976615667E-1
1.865289424E1,-3.052709103E-1,-3.258870244E-1,-2.609844804E-1
1.866204435E1,-1.082726792E-1,-3.133646548E-1,-5.497625470E-2
1.867119440E1,1.617218107E-1,-2.880144715E-1,1.630962193E-1
1.868034445E1,4.326325655E-1,-2.585411072E-1,3.292466700E-1
1.868948179E1,6.487197876E-1,-1.548497826E-1,4.448495209E-1
1.869864461E1,8.316685557E-1,2.305948362E-2,5.370874405E-1
1.870779471E1,1.008356094E0,2.959555089E-1,6.169557571E-1
1.871693200E1,1.187487125E0,5.595360994E-1,7.296570539E-1
1.872609487E1,1.368755937E0,7.623373866E-1,8.803836107E-1
1.873524492E1,1.529561520E0,8.783983588E-1,1.075091124E0
1.874438226E1,1.647302389E0,8.982508779E-1,1.320040941E0
1.875354508E1,1.710983157E0,9.626953006E-1,1.603168607E0
1.876269513E1,1.723505497E0,1.029430389E0,1.871941447E0
1.877183247E1,1.723505497E0,8.005153537E-1,2.068176031E0
1.878099528E1,1.681967974E0,2.096733153E-1,2.162857533E0
1.879014539E1,1.590646267E0,-6.058077812E-1,2.155527353E0
1.879928268E1,1.571404576E0,-1.408766508E0,2.101009130E0
1.880844549E1,1.723810911E0,-1.910424829E0,2.090930223E0
1.881759560E1,2.030914307E0,-2.040840626E0,2.055806398E0
1.882673289E1,2.355121613E0,-1.925696015E0,1.935316801E0
1.883589570E1,2.560824394E0,-1.769777179E0,1.812078357E0
1.884504580E1,2.618855000E0,-1.672347069E0,1.733584523E0
1.885418315E1,2.597322464E0,-1.661657214E0,1.706096411E0
1.886334596E1,2.528449535E0,-1.621494055E0,1.701820493E0
1.887249601E1,2.434531689E0,-1.526965380E0,1.707928896E0
1.888163336E1,2.292509794E0,-1.423579574E0,1.714037418E0
1.889079617E1,2.126512051E0,-1.367534280E0,1.787949920E0
1.889994622E1,1.929361105E0,-1.171299577E0,1.800014138E0
1.890908356E1,1.764126897E0,-9.252808690E-1,1.735722542E0
1.891824638E1,1.654632568E0,-6.664343476E-1,1.707776189E0
1.892739648E1,1.592936993E0,-3.767400384E-1,1.704722047E0
1.893654653E1,1.564685225E0,-1.165191159E-1,1.714800954E0
1.894569659E1,1.568350315E0,8.628217876E-2,1.765348554E0
1.895484669E1,1.573389769E0,2.545706034E-1,1.811620235E0
1.896398398E1,1.560562015E0,3.689517379E-1,1.814521790E0
1.897314685E1,1.540098667E0,4.002576768E-1,1.795432806E0
1.898229690E1,1.507112861E0,3.784198761E-1,1.773900390E0
1.899143424E1,1.467560530E0,3.191677034E-1,1.759545565E0
1.900059706E1,1.449540496E0,2.454078794E-1,1.672194362E0
1.900974711E1,1.454732776E0,1.363716573E-1,1.535517335E0
1.901889721E1,1.459619522E0,-1.527118147E-3,1.389066696E0
1.902804726E1,1.457787037E0,-1.418692768E-1,1.262163162E0
1.903719737E1,1.436407328E0,-3.176405728E-1,1.144880533E0
1.904634742E1,1.394716978E0,-5.199837089E-1,1.068371892E0
1.905549747E1,1.316223145E0,-7.259919643E-1,9.721634388E-1
1.906464758E1,1.222458124E0,-8.814526200E-1,8.341119289E-1
1.907379763E1,1.116628766E0,-9.539906979E-1,6.649072170E-1
1.908294773E1,9.753703475E-1,-9.584193230E-1,5.351021886E-1
1.909209778E1,7.783721089E-1,-9.379559755E-1,4.469874799E-1
1.910124784E1,6.030589342E-1,-9.397885203E-1,3.626905680E-1
1.911039794E1,4.417952895E-1,-9.294040799E-1,2.797680497E-1
1.911954799E1,2.956500649E-1,-9.445225596E-1,1.919587553E-1
1.912869810E1,1.600419879E-1,-9.637642503E-1,9.025268257E-2
1.913784815E1,2.092151903E-2,-9.481876493E-1,-1.328592747E-2
1.914699825E1,-1.328592747E-1,-8.596147895E-1,-1.096470803E-1
1.915614831E1,-2.965663373E-1,-7.076665759E-1,-1.965401024E-1
1.916529836E1,-4.715740979E-1,-5.311316848E-1,-2.858765125E-1
1.917444846E1,-6.647545099E-1,-3.938437700E-1,-3.703261614E-1
1.918359851E1,-8.649597168E-1,-3.040492237E-1,-4.468347728E-1
1.919274862E1,-1.062263370E0,-2.582356930E-1,-5.314370990E-1
1.920189867E1,-1.262773991E0,-2.512109280E-1,-6.329904795E-1
1.921104877E1,-1.432894945E0,-2.712161839E-1,-7.507312894E-1
1.922019882E1,-1.539793253E0,-3.176405728E-1,-8.809944391E-1
1.922934888E1,-1.390746474E0,-2.510582209E-1,-1.000720501E0
1.923848622E1,-6.843016148E-1,3.862081766E-1,-8.985562921E-1
1.924764903E1,1.615691036E-1,1.193442822E0,-4.340069890E-1
1.925679914E1,-3.680354729E-2,3.329117596E-2,-2.177670449E-1
1.926593643E1,-8.449544907E-1,-6.310052276E-1,-5.483881235E-1
1.927509929E1,-1.216502309E0,5.955760926E-2,-1.171452284E0
1.928424935E1,-9.732323885E-1,-1.156639338E0,-1.640888453E0
1.929338669E1,-6.792621613E-1,-1.373795509E0,-1.333937645E0
1.930254950E1,-1.057987452E0,4.353813827E-1,-5.013529062E-1
1.931169956E1,-1.548497796E0,1.533226609E0,-1.985253543E-1
1.932083690E1,-1.550483108E0,1.630198598E0,-3.639122546E-1
1.932999971E1,-1.631114841E0,1.905996203E0,-5.454866290E-1
1.933914976E1,-1.710830450E0,1.767944694E0,-6.620057225E-1
1.934828711E1,-1.810551286E0,1.523300409E0,-7.601994276E-1
1.935744992E1,-1.938371062E0,9.290986657E-1,-9.231429100E-1
1.936660002E1,-1.794516563E0,2.449497581E-1,-1.135870457E0
1.937573732E1,-1.439461589E0,-1.278197914E-1,-1.244295835E0
1.938490018E1,-1.162900448E0,-3.830012381E-1,-1.251320601E0
1.939405023E1,-1.094332814E0,-4.970769584E-1,-1.197566032E0
1.940318758E1,-1.147781968E0,-3.814741075E-1,-1.182752967E0
1.941235039E1,-1.232842445E0,-1.491994411E-1,-1.239103675E0
1.942150044E1,-1.324316859E0,1.334701329E-1,-1.332868695E0
1.943063778E1,-1.401130915E0,4.778352678E-1,-1.394106150E0
1.943980060E1,-1.449998736E0,8.561024070E-1,-1.409377337E0
1.944895070E1,-1.460688472E0,1.128692985E0,-1.362036705E0
1.945810075E1,-1.485275149E0,1.369366884E0,-1.300035715E0
1.946725081E1,-1.519329786E0,1.630504012E0,-1.222916245E0
1.947640091E1,-1.507265568E0,1.854990363E0,-1.158319116E0
1.948553825E1,-1.457939744E0,2.031219959E0,-1.095096469E0
1.949470106E1,-1.488023877E0,2.022667885E0,-1.102732062E0
1.950385112E1,-1.549108624E0,1.970745921E0,-1.129914761E0
1.951300122E1,-1.589271903E0,1.830251098E0,-1.133121610E0
1.952215127E1,-1.564532518E0,1.679066420E0,-1.123195410E0
1.953130132E1,-1.514290333E0,1.570641041E0,-1.112352848E0
1.954045143E1,-1.478708506E0,1.440530539E0,-1.106549859E0
1.954960148E1,-1.448471546E0,1.301562786E0,-1.085475564E0
1.955875159E1,-1.385554314E0,1.204743505E0,-1.055544019E0
1.956790164E1,-1.282779217E0,1.095401883E0,-1.040120125E0
1.957705174E1,-1.150683522E0,9.912523627E-1,-1.032484531E0
1.958620179E1,-1.045465112E0,9.271134138E-1,-1.000415087E0
1.959535185E1,-9.952229261E-1,8.677085042E-1,-9.433009028E-1
1.960450195E1,-1.003622055E0,7.766922712E-1,-9.512419105E-1
1.961365200E1,-1.018587828E0,7.290462255E-1,-9.561286569E-1
1.962280211E1,-9.881981611E-1,7.750124335E-1,-9.517000318E-1
1.963195216E1,-9.123004079E-1,8.084563613E-1,-8.871029615E-1
1.964110226E1,-8.191461563E-1,8.102889061E-1,-7.850914598E-1
1.965025232E1,-7.511894107E-1,7.467607856E-1,-6.905628443E-1
1.965940242E1,-7.131641507E-1,6.730009913E-1,-6.218425035E-1
1.966855247E1,-6.896465421E-1,6.381826997E-1,-5.909947157E-1
1.967770258E1,-6.482616663E-1,6.190937161E-1,-5.590779781E-1
1.968685263E1,-5.879405141E-1,5.427377820E-1,-5.303681493E-1
1.969600268E1,-5.120427012E-1,4.610369802E-1,-5.083776116E-1
1.970515278E1,-4.181249440E-1,4.220954478E-1,-4.790569544E-1
1.971430284E1,-3.338280320E-1,4.205683470E-1,-4.479037523E-1
1.972345294E1,-2.846548259E-1,4.231644273E-1,-4.127800465E-1
1.973260299E1,-2.689255178E-1,4.220954478E-1,-3.747547865E-1
1.974175310E1,-2.783936262E-1,3.817795515E-1,-3.645231128E-1
1.975090315E1,-2.929012477E-1,2.997733057E-1,-3.901786804E-1
1.976005325E1,-2.805316150E-1,2.333436459E-1,-4.242334068E-1
1.976920330E1,-2.234173864E-1,1.261399537E-1,-4.207210541E-1
1.977835341E1,-1.638597846E-1,-4.428642802E-3,-4.098785222E-1
1.978750346E1,-1.391204596E-1,-1.359135211E-1,-4.450022280E-1
1.979665351E1,-1.282779276E-1,-2.246390730E-1,-4.790569544E-1
1.980580362E1,-1.078145429E-1,-3.083251417E-1,-4.824166298E-1
1.981495367E1,-9.315420687E-2,-4.396573007E-1,-4.779879749E-1
1.982410377E1,-1.200314835E-1,-5.958815217E-1,-4.934118688E-1
1.983325382E1,-1.831014603E-1,-7.087355256E-1,-5.028799772E-1
1.984239117E1,-2.417428046E-1,-7.649334669E-1,-5.086830258E-1
1.985155398E1,-3.042019308E-1,-7.397360206E-1,-5.256340504E-1
1.986070409E1,-3.683409095E-1,-6.537593007E-1,-5.457920432E-1
1.986984138E1,-4.063661397E-1,-5.248705149E-1,-5.589252710E-1
1.987900419E1,-4.388937652E-1,-3.393256664E-1,-5.494571328E-1
1.988815429E1,-5.095993280E-1,-9.223793447E-2,-5.294518471E-1
1.989730435E1,-6.242858768E-1,1.950129867E-1,-5.383091569E-1
1.990645445E1,-7.424848676E-1,4.634803534E-1,-5.632011890E-1
1.991560450E1,-7.910472155E-1,6.549809575E-1,-5.593833923E-1
1.992474185E1,-7.175928354E-1,6.862868667E-1,-4.776825607E-1
1.993390466E1,-4.866925478E-1,4.906630516E-1,-3.129065037E-1
1.994305476E1,-1.400367320E-1,1.510319859E-1,-9.590301663E-2
1.995220482E1,2.417428046E-1,-2.669402659E-1,1.305686086E-1
1.996135492E1,5.677825212E-1,-6.468872428E-1,3.536805511E-1
1.997050497E1,7.861604095E-1,-8.910734653E-1,5.581616759E-1
1.997964232E1,9.225320816E-1,-9.727742672E-1,7.032378912E-1
1.998880513E1,1.024696231E0,-8.716790676E-1,8.058602214E-1
1.999795523E1,1.129609346E0,-7.395833135E-1,9.481876493E-1
2.000709252E1,1.259719729E0,-6.265766025E-1,1.141368151E0
2.001625539E1,1.368145108E0,-5.187620521E-1,1.369825006E0
2.002540544E1,1.459466815E0,-3.591781855E-1,1.621952176E0
2.003454278E1,1.552621007E0,-7.299624383E-2,1.875911951E0
2.004370560E1,1.621188641E0,8.628217876E-2,2.061304092E0
2.005285565E1,1.667002201E0,-1.730224788E-1,2.147128105E0
2.006199299E1,1.704722047E0,-6.827745438E-1,2.166827917E0
2.007115580E1,1.714342833E0,-1.206423283E0,2.142241240E0
2.008030591E1,1.746412277E0,-1.740456581E0,2.078713179E0
2.008944320E1,1.861557007E0,-2.037175655E0,1.995485306E0
2.009860607E1,2.086348772E0,-1.980977654E0,1.931040883E0
2.010775612E1,2.342141151E0,-1.729614019E0,1.851478100E0
2.011689346E1,2.518370628E0,-1.492758036E0,1.792683959E0
2.012605627E1,2.569681644E0,-1.351194143E0,1.766112089E0
2.013520638E1,2.516079903E0,-1.347070932E0,1.754658699E0
2.014434367E1,2.413304806E0,-1.371352077E0,1.757102132E0
2.015350653E1,2.279681921E0,-1.400978208E0,1.796501756E0
2.016265659E1,2.099634647E0,-1.442515850E0,1.865374804E0
2.017180664E1,1.886143565E0,-1.464658976E0,1.854226828E0
2.018095674E1,1.710830450E0,-1.412584305E0,1.804137349E0
2.019010679E1,1.637681484E0,-1.289956689E0,1.772984147E0
2.019925690E1,1.660740972E0,-1.076160192E0,1.727781415E0
2.020840695E1,1.717091680E0,-7.572978735E-1,1.711441278E0
2.021755706E1,1.743052602E0,-4.275930822E-1,1.741830945E0
2.022670711E1,1.715869904E0,-1.635543555E-1,1.783063173E0
2.023585721E1,1.670209169E0,2.993151546E-2,1.817423344E0
2.024500726E1,1.614316583E0,1.618745178E-1,1.812536478E0
2.025414461E1,1.549261332E0,2.212794125E-1,1.774816751E0
2.026330742E1,1.478555799E0,2.060082406E-1,1.752368093E0
2.027245752E1,1.434269309E0,1.611109674E-1,1.689756274E0
2.028159482E1,1.432742238E0,1.093416587E-1,1.559187651E0
2.029075768E1,1.456565261E0,4.428642616E-2,1.424495816E0
2.029990773E1,1.487413049E0,-8.811471611E-2,1.287971497E0
2.030905784E1,1.499324560E0,-2.710634768E-1,1.163511276E0
2.031820789E1,1.468171358E0,-4.529432356E-1,1.052947998E0
2.032735799E1,1.391204596E0,-6.270347238E-1,9.707890153E-1
2.033650804E1,1.271783948E0,-7.379034758E-1,8.539644480E-1
2.034565815E1,1.170536041E0,-8.131904006E-1,7.397360206E-1
2.035480820E1,1.095860004E0,-8.895463347E-1,6.464291215E-1
2.036395825E1,1.012937427E0,-9.576557875E-1,5.341859460E-1
2.037310836E1,9.074136019E-1,-1.012479305E0,4.271349311E-1
2.038225841E1,7.736380696E-1,-1.047297597E0,3.445178568E-1
2.039140851E1,6.129852533E-1,-1.047297597E0,2.840439677E-1
2.040055856E1,4.315635860E-1,-1.003774762E0,2.276933193E-1
2.040970867E1,2.365505993E-1,-9.397885203E-1,1.737860441E-1
2.041885872E1,4.321744293E-2,-8.722898960E-1,1.027750522E-1
2.042800883E1,-1.491994411E-1,-8.138012886E-1,3.420744836E-2
2.043715888E1,-3.520007432E-1,-7.191199064E-1,-2.657185495E-2
2.044630898E1,-5.774033666E-1,-5.656445622E-1,-9.605573118E-2
2.045545903E1,-8.104416132E-1,-3.909422457E-1,-1.777565479E-1
2.046460914E1,-1.020725727E0,-2.704526186E-1,-2.721324563E-1
2.047375919E1,-1.194206357E0,-2.417428046E-1,-3.894151151E-1
2.048290929E1,-1.307213187E0,-2.906105816E-1,-5.221216679E-1
2.049205935E1,-1.395327806E0,-3.756710589E-1,-6.649072170E-1
2.050119669E1,-1.523605824E0,-4.295783341E-1,-8.448017836E-1
2.051035950E1,-1.523300409E0,-3.006895781E-1,-1.051726222E0
2.051950961E1,-9.121476412E-1,4.239279926E-1,-1.032179117E0
2.052864690E1,1.632489264E-1,1.478555799E0,-5.508314967E-1
2.053780976E1,1.947075576E-1,5.644228458E-1,-2.354816198E-1
2.054695982E1,-7.403468490E-1,-4.109475017E-1,-5.418215394E-1
2.055609716E1,-1.421441555E0,-3.437542915E-1,-1.145644069E0
2.056525997E1,-1.154195905E0,-1.936233044E0,-1.678150177E0
2.057441008E1,-6.765133142E-1,-1.920503736E0,-1.401283622E0
2.058354737E1,-1.150988936E0,2.327328026E-1,-5.451811552E-1
2.059271023E1,-1.650814772E0,1.669750929E0,-2.168507725E-1
2.060186028E1,-1.506654739E0,1.774816751E0,-4.034646153E-1
2.061099763E1,-1.530477762E0,2.186069727E0,-6.079457402E-1
2.062016044E1,-1.723658204E0,2.005106211E0,-7.201889157E-1
2.062931049E1,-1.813300133E0,1.582247138E0,-8.243383765E-1
2.063844784E1,-1.825058937E0,9.144383669E-1,-1.012632012E0
2.064761065E1,-1.653105378E0,2.299840003E-1,-1.174659252E0
2.065676075E1,-1.380209327E0,-1.692046970E-1,-1.204132676E0
2.066589810E1,-1.157402873E0,-4.677563012E-1,-1.211462855E0
2.067506091E1,-1.040883780E0,-6.132906675E-1,-1.190541267E0
2.068421096E1,-1.058292866E0,-5.410579443E-1,-1.187487125E0
2.069334830E1,-1.156028390E0,-3.358132839E-1,-1.240936160E0
2.070251112E1,-1.273616552E0,-1.710372418E-2,-1.331799746E0
2.071166122E1,-1.320040941E0,2.267770469E-1,-1.355470061E0
2.072081127E1,-1.350736022E0,4.727957845E-1,-1.329661727E0
2.072996138E1,-1.349819779E0,7.664605975E-1,-1.278503299E0
2.073911143E1,-1.319888234E0,1.039814711E0,-1.206423283E0
2.074826153E1,-1.321720719E0,1.267966151E0,-1.104717255E0
2.075741159E1,-1.361883998E0,1.512305140E0,-1.015380859E0
2.076656169E1,-1.399603724E0,1.735111594E0,-1.025612593E0
2.077571174E1,-1.398687482E0,1.788560748E0,-1.067608237E0
2.078486179E1,-1.394716978E0,1.834374309E0,-1.071426034E0
2.079401190E1,-1.404185176E0,1.794058442E0,-1.068371892E0
2.080314924E1,-1.429229856E0,1.748244882E0,-1.058750987E0
2.081231206E1,-1.489092946E0,1.683189631E0,-1.044396043E0
2.082146216E1,-1.545748949E0,1.534753680E0,-1.028819442E0
2.083061221E1,-1.488787532E0,1.350125194E0,-9.880454540E-1
2.083976232E1,-1.351499557E0,1.212531805E0,-9.277243018E-1
2.084891237E1,-1.237882018E0,1.092958450E0,-8.834378719E-1
2.085806247E1,-1.188708782E0,9.720106721E-1,-8.819107413E-1
2.086721252E1,-1.152516007E0,8.574768305E-1,-9.083298445E-1
2.087636258E1,-1.115865231E0,7.591304183E-1,-9.208522439E-1
2.088551268E1,-1.063637733E0,6.285618544E-1,-8.898517489E-1
2.089466273E1,-9.923213720E-1,5.525113344E-1,-8.264763355E-1
2.090381284E1,-9.562813640E-1,5.845808387E-1,-8.090671897E-1
2.091296289E1,-9.164236188E-1,6.146650314E-1,-8.191461563E-1
2.092211299E1,-8.350282311E-1,5.986303091E-1,-8.057075143E-1
2.093126310E1,-7.537854910E-1,5.210527182E-1,-7.684458494E-1
2.094041315E1,-6.939224601E-1,4.315635860E-1,-7.211052179E-1
2.094956325E1,-6.821636558E-1,3.991886973E-1,-6.885775924E-1
2.095871330E1,-7.078192830E-1,3.689517379E-1,-6.697940230E-1
2.096786341E1,-7.437065244E-1,3.130592108E-1,-6.620057225E-1
2.097701346E1,-7.653915882E-1,2.509055138E-1,-6.481089592E-1
2.098616357E1,-7.537854910E-1,1.798945218E-1,-6.314633489E-1
2.099531362E1,-7.204943299E-1,1.125486046E-1,-6.219952106E-1
2.100446372E1,-6.986565590E-1,6.978929788E-2,-6.279509664E-1
2.101361377E1,-6.916317940E-1,5.405998230E-2,-6.442911625E-1
2.102276388E1,-6.910209656E-1,6.490252167E-2,-6.552863717E-1
2.103191393E1,-6.557445526E-1,4.993676394E-2,-6.416950226E-1
2.104106403E1,-5.641174316E-1,-1.023169141E-2,-6.197045445E-1
2.105021409E1,-4.662291706E-1,-8.154810965E-2,-5.937435627E-1
2.105936419E1,-4.115583301E-1,-1.411057115E-1,-5.879405141E-1
2.106851424E1,-4.025483429E-1,-1.856975704E-1,-5.774033666E-1
2.107766435E1,-4.060607255E-1,-2.145601064E-1,-5.450284481E-1
2.108681440E1,-4.065188468E-1,-2.481566966E-1,-5.322006941E-1
2.109596450E1,-4.182776511E-1,-2.965663373E-1,-5.517477989E-1
2.110511456E1,-4.475983381E-1,-3.184041381E-1,-5.752654076E-1
2.111426466E1,-4.579827189E-1,-3.220692277E-1,-6.027535200E-1
2.112341471E1,-4.355340898E-1,-3.437542915E-1,-6.209262609E-1
2.113256482E1,-4.022429287E-1,-4.147652984E-1,-6.077930331E-1
2.114171487E1,-3.675773442E-1,-5.260922313E-1,-5.555655956E-1
2.115086497E1,-3.239017725E-1,-6.106945276E-1,-5.051707029E-1
2.116001502E1,-2.790044844E-1,-6.242858768E-1,-4.541649222E-1
2.116916513E1,-2.434226274E-1,-5.511369109E-1,-3.990359604E-1
2.117831518E1,-2.185306102E-1,-4.045335948E-1,-3.549022675E-1
2.118746528E1,-1.904316396E-1,-2.470877171E-1,-3.133646548E-1
2.119661534E1,-1.339282542E-1,-1.099525094E-1,-2.629697323E-1
2.120576544E1,-2.031067200E-2,-3.298575059E-2,-1.754658818E-1
2.121490278E1,1.600419879E-1,-1.572931744E-2,-3.008422814E-2
2.122406560E1,3.619270027E-1,-6.169557199E-2,1.533226669E-1
2.123321565E1,5.447230339E-1,-1.149920002E-1,3.365768492E-1
2.124236575E1,7.146912813E-1,-1.200314835E-1,5.198310018E-1
2.125151586E1,8.851176500E-1,-8.047912270E-2,6.858287454E-1
2.126066591E1,1.057223916E0,3.894151375E-2,8.360971808E-1
2.126980325E1,1.215433359E0,2.658712566E-1,9.962918758E-1
2.127896607E1,1.354401112E0,5.198310018E-1,1.158929944E0
2.128811617E1,1.473210931E0,7.298097610E-1,1.320193648E0
2.129725346E1,1.570030212E0,8.637380004E-1,1.481304646E0
2.130641627E1,1.702736735E0,8.881719112E-1,1.652036428E0
2.131556638E1,1.838497519E0,7.927270532E-1,1.845522285E0
2.132470372E1,1.888892412E0,4.199574888E-1,2.057333469E0
2.133386653E1,1.853005171E0,-2.116585821E-1,2.241351366E0
2.134301664E1,1.679066420E0,-8.478559852E-1,2.318165302E0
2.135215393E1,1.444959164E0,-1.459008694E0,2.216764688E0
2.136131679E1,1.346765518E0,-2.044353008E0,2.050461531E0
2.137046685E1,1.477181435E0,-2.322441339E0,1.953184128E0
2.137960419E1,1.806275368E0,-2.213099718E0,1.879118919E0
2.138876700E1,2.181946516E0,-1.911646485E0,1.754047871E0
2.139791711E1,2.476527452E0,-1.639819503E0,1.639819503E0
2.140705440E1,2.600224018E0,-1.535364628E0,1.619814277E0
2.141621726E1,2.550745487E0,-1.528950691E0,1.623784781E0
2.142536732E1,2.427659750E0,-1.538724303E0,1.635238171E0
2.143450466E1,2.296327591E0,-1.552621007E0,1.667307615E0
2.144366747E1,2.157512426E0,-1.544374585E0,1.686396599E0
2.145281758E1,2.002662659E0,-1.460841179E0,1.694948435E0
2.146196763E1,1.864153147E0,-1.259261608E0,1.652341843E0
2.147111773E1,1.767791986E0,-9.897252917E-1,1.592784286E0
2.148026778E1,1.717702508E0,-6.844543815E-1,1.550177574E0
2.148941789E1,1.695253849E0,-3.646758199E-1,1.522842169E0
2.149856794E1,1.672499776E0,-8.093725890E-2,1.523147583E0
2.150771804E1,1.621341348E0,1.090362370E-1,1.545138121E0
2.151686810E1,1.538266063E0,2.330382317E-1,1.563463569E0
2.152601820E1,1.448318839E0,2.860292196E-1,1.581636310E0
2.153516825E1,1.379903913E0,2.930539846E-1,1.579498291E0
2.154430560E1,1.338519096E0,2.906105816E-1,1.573084354E0
2.155346846E1,1.325996637E0,2.718270421E-1,1.541778445E0
2.156261851E1,1.337602735E0,2.420482337E-1,1.483900666E0
2.157175586E1,1.347987175E0,2.284568697E-1,1.380209327E0
2.158091867E1,1.369977713E0,1.592784226E-1,1.267508030E0
2.159006877E1,1.396244168E0,3.420744836E-2,1.143811464E0
2.159921882E1,1.406781197E0,-1.224748790E-1,1.016907930E0
2.160836893E1,1.380514860E0,-2.910687327E-1,8.874083757E-1
2.161751898E1,1.322331548E0,-4.911212027E-1,7.728744745E-1
2.162666909E1,1.222458124E0,-6.447492838E-1,6.581879258E-1
2.163581914E1,1.086849928E0,-7.423321605E-1,5.570927262E-1
2.164496924E1,9.663603902E-1,-7.971556783E-1,4.512633979E-1
2.165411929E1,8.782456517E-1,-8.147175312E-1,3.235963285E-1
2.166326940E1,7.890619636E-1,-8.478559852E-1,1.867665499E-1
2.167241945E1,6.705575585E-1,-9.118422270E-1,5.589252338E-2
2.168156956E1,5.244123936E-1,-9.770501852E-1,-6.841489673E-2
2.169071961E1,3.237490356E-1,-9.639169574E-1,-1.608055383E-1
2.169986971E1,8.658760041E-2,-8.849649429E-1,-2.082989216E-1
2.170901976E1,-1.337755471E-1,-8.089144826E-1,-2.765611112E-1
2.171816987E1,-3.390202224E-1,-7.704311013E-1,-3.603998721E-1
2.172731992E1,-5.346440673E-1,-7.174401283E-1,-4.491254389E-1
2.173647002E1,-7.229377031E-1,-6.216897964E-1,-5.476245880E-1
2.174562013E1,-9.148964882E-1,-4.898995161E-1,-6.499415040E-1
2.175477018E1,-1.122584581E0,-3.706315756E-1,-7.547017932E-1
2.176392028E1,-1.329814434E0,-2.973299026E-1,-8.617527485E-1
2.177307034E1,-1.484969735E0,-2.064663768E-1,-9.648332596E-1
2.178222044E1,-1.237118363E0,1.284306347E-1,-9.469659925E-1
2.179135773E1,-4.214846194E-1,6.106945276E-1,-6.661289334E-1
2.180052060E1,5.925218388E-2,7.834116220E-1,-2.664821148E-1
2.180967065E1,6.322269142E-2,-1.753131598E-1,-2.597627938E-1
2.181880799E1,-1.681357026E-1,-6.705575585E-1,-6.401679516E-1
2.182797080E1,-2.325800955E-1,6.154286116E-2,-1.072342396E0
2.183712091E1,-2.069245130E-1,2.220429778E-1,-1.345085621E0
2.184625825E1,-7.029324770E-1,-1.061041713E0,-1.340962410E0
2.185542106E1,-1.254832983E0,-4.408790171E-1,-9.423846006E-1
2.186457112E1,-1.649134874E0,1.894542813E0,-5.102101564E-1
2.187370846E1,-1.818186879E0,2.836622000E0,-3.936910629E-1
2.188287127E1,-1.633558273E0,2.566627502E0,-6.241331697E-1
2.189202138E1,-1.729919434E0,2.354663372E0,-8.811471462E-1
2.190115872E1,-1.875453830E0,1.829945683E0,-9.355126023E-1
2.191032153E1,-1.846896648E0,1.167787194E0,-9.135220647E-1
2.191947159E1,-1.769471765E0,4.504998624E-1,-9.692618847E-1
2.192860893E1,-1.566212416E0,-2.002051920E-1,-1.035691500E0
2.193777174E1,-1.264301062E0,-6.021426916E-1,-1.025307178E0
2.194692185E1,-1.147323847E0,-7.522584200E-1,-9.547542930E-1
2.195605919E1,-1.243685007E0,-7.027797699E-1,-8.797727823E-1
2.196522200E1,-1.377918720E0,-5.535803437E-1,-9.003888369E-1
2.197437206E1,-1.467102408E0,-4.120164812E-1,-1.000567794E0
2.198350940E1,-1.561936498E0,-1.378987730E-1,-1.141368151E0
2.199267226E1,-1.617218137E0,1.682884246E-1,-1.248877168E0
2.200182232E1,-1.571862698E0,4.260659516E-1,-1.299883008E0
2.201095966E1,-1.448624253E0,6.427640319E-1,-1.294996142E0
2.202012247E1,-1.328287363E0,8.926005363E-1,-1.251626015E0
2.202927252E1,-1.267202616E0,1.220625520E0,-1.201841950E0
2.203840987E1,-1.266897202E0,1.583468795E0,-1.186876178E0
2.204757273E1,-1.303242683E0,1.895306349E0,-1.229482770E0
2.205672278E1,-1.361273170E0,2.113378763E0,-1.262468576E0
2.206586013E1,-1.440072417E0,2.236769915E0,-1.266744494E0
2.207502294E1,-1.515359282E0,2.310224295E0,-1.222152710E0
2.208417304E1,-1.568655729E0,2.296174765E0,-1.115712523E0
2.209331034E1,-1.605764747E0,2.166980743E0,-9.955283403E-1
2.210247320E1,-1.597518325E0,1.905690789E0,-9.458969831E-1
2.211162325E1,-1.531852245E0,1.611109614E0,-9.567395449E-1
2.212077336E1,-1.401741743E0,1.331647038E0,-9.691091776E-1
2.212992341E1,-1.263232112E0,1.067913771E0,-9.684983492E-1
2.213907351E1,-1.183058381E0,8.667922616E-1,-9.713998437E-1
2.214822357E1,-1.149767280E0,7.299624681E-1,-9.863656163E-1
2.215737367E1,-1.134801507E0,5.780141950E-1,-1.013090134E0
2.216652372E1,-1.113269091E0,4.454603493E-1,-1.025001645E0
2.217567382E1,-1.049130201E0,3.762819171E-1,-1.008050680E0
2.218482393E1,-9.935430884E-1,3.355078697E-1,-9.593356252E-1
2.219397398E1,-9.744541049E-1,3.074088693E-1,-9.090934396E-1
2.220312409E1,-9.753703475E-1,2.707580328E-1,-9.029849768E-1
2.221227414E1,-9.683456421E-1,2.370087355E-1,-8.999307156E-1
2.222142424E1,-9.455915689E-1,2.336490750E-1,-8.502993584E-1
2.223057429E1,-9.315420985E-1,2.892361879E-1,-8.000571728E-1
2.223972440E1,-9.411629438E-1,3.206948042E-1,-7.715001106E-1
2.224887445E1,-9.643751383E-1,2.822114229E-1,-7.466080785E-1
2.225802456E1,-9.588775039E-1,2.605263591E-1,-7.124006152E-1
2.226717461E1,-9.118422270E-1,2.861819267E-1,-6.485670805E-1
2.227632471E1,-8.419002295E-1,3.058817685E-1,-5.986303091E-1
2.228547476E1,-7.733326554E-1,3.494046330E-1,-5.829010010E-1
2.229462487E1,-7.076665759E-1,3.862081766E-1,-5.824428797E-1
2.230377497E1,-6.395570636E-1,4.152234197E-1,-5.887040496E-1
2.231292502E1,-5.987830162E-1,4.092676640E-1,-5.920637250E-1
2.232207513E1,-5.774033666E-1,3.593308926E-1,-5.943543911E-1
2.233122518E1,-5.376983285E-1,2.545706034E-1,-5.700731874E-1
2.234037528E1,-4.514161348E-1,8.383878320E-2,-5.138752460E-1
2.234952534E1,-3.387148082E-1,-1.447708011E-1,-4.555393457E-1
2.235867544E1,-2.151709497E-1,-3.866663277E-1,-4.471401870E-1
2.236782549E1,-9.605573118E-2,-6.100836992E-1,-4.266768098E-1
2.237697560E1,1.328592747E-2,-8.067765236E-1,-3.683409095E-1
2.238612565E1,1.014006436E-1,-9.900307059E-1,-2.869454920E-1
2.239527575E1,1.488940120E-1,-1.157250166E0,-2.211267054E-1
2.240442586E1,1.406475753E-1,-1.299272060E0,-1.918060333E-1
2.241357591E1,6.688777357E-2,-1.374253631E0,-2.208212912E-1
2.242271325E1,-4.245388508E-2,-1.319735527E0,-2.748812735E-1
2.243187606E1,-1.524063945E-1,-1.135259628E0,-3.191677034E-1
2.244102617E1,-2.652604282E-1,-8.335011005E-1,-3.341334462E-1
2.245016346E1,-3.778090179E-1,-4.419479966E-1,-3.284831047E-1
2.245932633E1,-4.837910235E-1,-4.443913698E-2,-3.210002482E-1
2.246847638E1,-5.428904891E-1,2.499892414E-1,-3.547495604E-1
2.247761372E1,-4.999784827E-1,4.182776511E-1,-3.501681983E-1
2.248677653E1,-3.180987239E-1,4.869979918E-1,-2.347180545E-1
2.249592664E1,-1.756185852E-2,4.143071473E-1,-1.527118124E-2
2.250506398E1,3.126010895E-1,2.530434728E-1,2.400629669E-1
2.251422679E1,6.010736823E-1,6.826218218E-2,4.645493329E-1
2.252337690E1,8.157865405E-1,-3.252761811E-2,6.493306160E-1
2.253251419E1,9.666658044E-1,-3.115320951E-2,8.122741580E-1
2.254167706E1,1.083643079E0,5.222744122E-2,9.521581531E-1
2.255082711E1,1.190846682E0,1.288887709E-1,1.099983215E0
2.255996445E1,1.322026134E0,1.340809762E-1,1.290262103E0
2.256912726E1,1.494437814E0,1.068982705E-1,1.521162391E0
2.257827737E1,1.699224353E0,1.171299592E-1,1.761378050E0
2.258741471E1,1.865222096E0,2.014268786E-1,1.996248841E0
2.259657752E1,1.943868637E0,2.849602401E-1,2.195232391E0
2.260572758E1,1.970593214E0,2.571666837E-1,2.321830511E0
2.261486492E1,1.885532737E0,1.130067408E-1,2.316485405E0
2.262402778E1,1.695864677E0,-2.391466945E-1,2.167591572E0
2.263317784E1,1.579956412E0,-7.997517586E-1,2.027402163E0
2.264231518E1,1.647455096E0,-1.298203111E0,1.961125135E0
2.265147799E1,1.885074615E0,-1.522689462E0,1.936691284E0
2.266062810E1,2.174921751E0,-1.522994876E0,1.894084692E0
2.266976544E1,2.375737667E0,-1.413347840E0,1.821546555E0
2.267892825E1,2.437586069E0,-1.332715988E0,1.757865667E0
2.268807830E1,2.436364174E0,-1.314848781E0,1.732668281E0
2.269721565E1,2.420176744E0,-1.311641812E0,1.744274378E0
2.270637846E1,2.415748119E0,-1.306907654E0,1.749008417E0
2.271552857E1,2.413763046E0,-1.336533785E0,1.707012653E0
2.272467867E1,2.370392799E0,-1.356080890E0,1.667613029E0
2.273382872E1,2.247612476E0,-1.354401112E0,1.686243892E0
2.274297882E1,2.081767559E0,-1.194511771E0,1.647760510E0
2.275212888E1,1.957612753E0,-9.965972900E-1,1.605153918E0
2.276127898E1,1.866138339E0,-7.707365155E-1,1.605001211E0
2.277042903E1,1.807344317E0,-5.166240931E-1,1.598892689E0
2.277957914E1,1.773900390E0,-2.883199155E-1,1.588202834E0
2.278872919E1,1.758476496E0,-1.360662282E-1,1.564685225E0
2.279787929E1,1.750382781E0,-4.932591692E-2,1.532768488E0
2.280702935E1,1.719382286E0,-2.596100792E-3,1.502684236E0
2.281617945E1,1.682426095E0,6.261184346E-3,1.476112366E0
2.282532956E1,1.668529272E0,-1.786728203E-2,1.441141367E0
2.283446685E1,1.671278119E0,-3.130592033E-2,1.388150454E0
2.284362971E1,1.684105873E0,-4.306473210E-2,1.318055630E0
2.285277976E1,1.705485582E0,-1.104106456E-1,1.198024154E0
2.286192987E1,1.718313336E0,-3.109212518E-1,1.058903694E0
2.287107992E1,1.682273388E0,-5.706840754E-1,9.184088707E-1
2.288023002E1,1.590951681E0,-7.647807598E-1,7.823426127E-1
2.288938008E1,1.464964390E0,-8.800781965E-1,6.429167390E-1
2.289853018E1,1.333632231E0,-9.746068120E-1,5.578562617E-1
2.290768023E1,1.197566032E0,-1.049588323E0,5.172349215E-1
2.291683034E1,1.011563063E0,-1.046381354E0,4.932591617E-1
2.292598044E1,8.182299137E-1,-9.878927469E-1,4.454603493E-1
2.293513049E1,6.308525205E-1,-9.361234307E-1,3.494046330E-1
2.294428060E1,4.576773047E-1,-8.802309036E-1,2.229592502E-1
2.295343065E1,2.924431264E-1,-8.081509471E-1,7.879929990E-2
2.296258075E1,1.324011385E-1,-7.721109390E-1,-5.971032009E-2
2.297173080E1,-3.298575059E-2,-8.192988634E-1,-1.982199401E-1
2.298088091E1,-2.173089087E-1,-9.020686746E-1,-3.228327632E-1
2.299003096E1,-4.106420577E-1,-9.371923804E-1,-4.480564594E-1
2.299918107E1,-6.090146899E-1,-8.819107413E-1,-5.754181147E-1
2.300833117E1,-8.173136115E-1,-7.568397522E-1,-6.838434935E-1
2.301748122E1,-1.035996914E0,-5.954233408E-1,-7.831062078E-1
2.302663132E1,-1.259108901E0,-4.190412164E-1,-8.794673681E-1
2.303578138E1,-1.497033954E0,-2.492256761E-1,-9.698727131E-1
2.304493148E1,-1.746412277E0,-7.467607409E-2,-1.072495103E0
2.305406882E1,-1.548955917E0,2.533488870E-1,-1.100594044E0
2.306323164E1,-4.749337435E-1,9.952229261E-1,-7.687512636E-1
2.307238169E1,8.399149403E-3,1.761072636E0,-2.066190839E-1
2.308151903E1,-7.985301018E-1,4.711159468E-1,-2.466295809E-1
2.309068185E1,-1.629435062E0,3.312319219E-1,-8.570187092E-1
2.309983195E1,-1.219556570E0,3.428380191E-1,-1.462368369E0
2.310896929E1,-4.724903405E-1,-1.649440289E0,-1.815285325E0
2.311813211E1,-3.461976945E-1,-1.314848781E0,-1.365090966E0
2.312728221E1,-7.099572420E-1,1.037371397E0,-5.427377820E-1
2.313641950E1,-1.059514523E0,1.982504725E0,-2.849602401E-1
2.314558237E1,-1.127471328E0,2.160108566E0,-4.792096615E-1
2.315473242E1,-1.498255610E0,2.966732502E0,-6.827745438E-1
2.316386976E1,-1.718007922E0,3.216721773E0,-8.182299137E-1
2.317303258E1,-1.626075387E0,2.914352179E0,-9.492566586E-1
2.318218268E1,-1.594311357E0,2.090166569E0,-1.065012217E0
2.319132002E1,-1.583926916E0,1.162442327E0,-1.143658757E0
2.320048284E1,-1.390899181E0,4.475983381E-1,-1.121057391E0
2.320963294E1,-1.072342396E0,-6.566607952E-2,-1.035996914E0
2.321877023E1,-9.223793745E-1,-3.194731176E-1,-9.926267862E-1
2.322793310E1,-9.886562824E-1,-3.293993771E-1,-1.019351363E0
2.323708315E1,-1.109909415E0,-2.466295809E-1,-1.082574010E0
2.324622049E1,-1.223221660E0,-6.291726977E-2,-1.198787689E0
2.325538331E1,-1.323858738E0,1.348445266E-1,-1.310878277E0
2.326453341E1,-1.408766508E0,3.561239541E-1,-1.373337388E0
2.327367070E1,-1.425412059E0,5.581616759E-1,-1.361883998E0
2.328283356E1,-1.396549582E0,7.554653287E-1,-1.297744989E0
2.329198362E1,-1.355775476E0,1.002247691E0,-1.230551839E0
2.330113372E1,-1.280641317E0,1.241852522E0,-1.158166409E0
2.331028383E1,-1.242157936E0,1.425259352E0,-1.139535546E0
2.331943388E1,-1.233758807E0,1.661962628E0,-1.164733052E0
2.332857122E1,-1.245975733E0,1.816048861E0,-1.191304922E0
2.333773403E1,-1.274990916E0,1.876370072E0,-1.190846682E0
2.334688414E1,-1.292858243E0,1.930582762E0,-1.162900448E0
2.335602148E1,-1.295301557E0,1.913326383E0,-1.112200141E0
2.336518429E1,-1.295607090E0,1.822768211E0,-1.011410356E0
2.337433435E1,-1.276212692E0,1.682578802E0,-9.281824231E-1
2.338347169E1,-1.219861984E0,1.501615286E0,-8.829796910E-1
2.339263450E1,-1.145644069E0,1.381278396E0,-8.518264890E-1
2.340178461E1,-1.056154966E0,1.279724956E0,-8.237275481E-1
2.341093471E1,-9.370396733E-1,1.170383334E0,-7.641699314E-1
2.342008476E1,-8.142594099E-1,1.125791550E0,-6.936170459E-1
2.342923487E1,-7.290462255E-1,1.093569279E0,-6.429167390E-1
2.343838492E1,-6.975875497E-1,1.003316641E0,-6.189410090E-1
2.344753502E1,-6.838434935E-1,9.063445926E-1,-6.131379604E-1
2.345668508E1,-6.598677635E-1,8.287670016E-1,-5.854970813E-1
2.346583518E1,-6.129852533E-1,7.331694365E-1,-5.412106514E-1
2.347498528E1,-5.657972693E-1,6.062659025E-1,-4.979932308E-1
2.348413534E1,-5.607577562E-1,4.285093546E-1,-4.605788291E-1
2.349328544E1,-5.995466113E-1,2.822114229E-1,-4.326325655E-1
2.350243549E1,-6.184828281E-1,1.206423342E-1,-4.265241027E-1
2.351158560E1,-6.158867478E-1,-3.359659761E-2,-4.324798584E-1
2.352073565E1,-6.320741773E-1,-1.440072358E-1,-4.648547769E-1
2.352988575E1,-6.336013079E-1,-2.411319613E-1,-4.978405237E-1
2.353903580E1,-6.004628539E-1,-3.460449576E-1,-5.201364160E-1
2.354818591E1,-5.575508475E-1,-4.532486796E-1,-5.300627351E-1
2.355733601E1,-5.285356045E-1,-5.332696438E-1,-5.170822144E-1
2.356648607E1,-5.198310018E-1,-5.410579443E-1,-5.016583204E-1
2.357563617E1,-5.270084739E-1,-4.960079789E-1,-5.060869455E-1
2.358478622E1,-5.464028716E-1,-4.532486796E-1,-5.233433843E-1
2.359393632E1,-5.651864409E-1,-4.081986845E-1,-5.552601814E-1
2.360308638E1,-5.818319917E-1,-3.271087110E-1,-5.883986354E-1
2.361223648E1,-5.816792846E-1,-2.620534599E-1,-6.109999418E-1
2.362138659E1,-5.581616759E-1,-2.096733153E-1,-6.151232123E-1
2.363053664E1,-5.202891231E-1,-1.696628332E-1,-6.039752364E-1
2.363968674E1,-4.611896873E-1,-2.304421216E-1,-5.900784731E-1
2.364883679E1,-3.823903799E-1,-4.465293586E-1,-5.526640415E-1
2.365798690E1,-3.139754832E-1,-6.908682585E-1,-4.952444136E-1
2.366713700E1,-3.084778786E-1,-9.124531150E-1,-4.645493329E-1
2.367628706E1,-3.625378609E-1,-1.069135427E0,-4.483618736E-1
2.368543716E1,-4.414898455E-1,-1.145185947E0,-4.421007037E-1
2.369458721E1,-5.262449384E-1,-1.107924223E0,-4.488200247E-1
2.370373732E1,-6.062659025E-1,-9.683456421E-1,-4.738647640E-1
2.371288737E1,-6.676560640E-1,-7.566870451E-1,-5.355603099E-1
2.372203747E1,-7.111788988E-1,-4.766135812E-1,-5.861079693E-1
2.373118758E1,-7.301151752E-1,-1.453816444E-1,-6.079457402E-1
2.374032487E1,-7.182036638E-1,1.956238300E-1,-6.329904795E-1
2.374948773E1,-6.218425035E-1,5.134171247E-1,-6.265766025E-1
2.375863778E1,-3.947600424E-1,7.388197780E-1,-5.602996349E-1
2.376777513E1,-5.192201585E-2,8.092198968E-1,-4.181249440E-1
2.377693794E1,3.122956753E-1,7.243121266E-1,-2.231119573E-1
2.378608804E1,5.993938446E-1,5.575508475E-1,4.275931045E-3
2.379522539E1,7.809682488E-1,3.996468186E-1,2.457133085E-1
2.380438820E1,8.855758309E-1,3.037438095E-1,4.798205197E-1
2.381353830E1,9.472714067E-1,2.715215981E-1,6.806365848E-1
2.382267565E1,9.984298348E-1,2.619007528E-1,8.428165317E-1
2.383183846E1,1.053406119E0,3.174878657E-1,1.003163934E0
2.384098856E1,1.102121115E0,3.671191931E-1,1.189014196E0
2.385012586E1,1.188861489E0,3.758237660E-1,1.367992401E0
2.385928872E1,1.313627005E0,3.518480062E-1,1.525132895E0
2.386843877E1,1.413958669E0,3.484883606E-1,1.706707239E0
2.387757612E1,1.413500547E0,3.709369898E-1,1.900193095E0
2.388673893E1,1.337297320E0,1.513374150E-1,2.042673349E0
2.389588903E1,1.225664973E0,-4.341596961E-1,2.107728481E0
2.390502638E1,1.139382839E0,-1.270256877E0,2.090013981E0
2.391418919E1,1.178171635E0,-2.139492512E0,2.010909081E0
2.392333929E1,1.377918720E0,-2.752019644E0,1.990140319E0
2.393247664E1,1.677539229E0,-2.918933630E0,2.026638508E0
2.394163945E1,1.982199311E0,-2.787296057E0,2.001135588E0
2.395078956E1,2.233562946E0,-2.675663710E0,1.933178902E0
2.395992685E1,2.391772509E0,-2.628475666E0,1.882936716E0
2.396908971E1,2.442778111E0,-2.538070440E0,1.874690294E0
2.397823976E1,2.419260502E0,-2.385053158E0,1.874384761E0
2.398737711E1,2.344431877E0,-2.196606636E0,1.859113574E0
2.399653997E1,2.238449812E0,-1.991362095E0,1.831320047E0
2.400569002E1,2.110935450E0,-1.775274873E0,1.810856700E0
2.401482737E1,1.987238884E0,-1.522994876E0,1.807344317E0
2.402399018E1,1.871177912E0,-1.188403368E0,1.753742456E0
2.403314028E1,1.771915197E0,-8.289197087E-1,1.725338101E0
2.404229034E1,1.671888947E0,-4.567610323E-1,1.716328144E0
2.405144044E1,1.581789017E0,-9.758284688E-2,1.732515574E0
2.406059054E1,1.521315098E0,1.722589284E-1,1.738013148E0
2.406974060E1,1.476417780E0,3.017585576E-1,1.746259570E0
2.407889070E1,1.429993391E0,3.191677034E-1,1.768402815E0
2.408804075E1,1.391204596E0,3.077143133E-1,1.781077862E0
2.409717810E1,1.363105655E0,2.762556672E-1,1.766112089E0
2.410634096E1,1.345849276E0,2.284568697E-1,1.725185394E0
2.411549101E1,1.334395885E0,1.632489264E-1,1.667154908E0
2.412462836E1,1.347223639E0,6.413896382E-2,1.587286592E0
2.413379117E1,1.383110881E0,-3.802524135E-2,1.491688967E0
2.414294127E1,1.401894450E0,-1.565296054E-1,1.373490095E0
2.415209132E1,1.387997627E0,-3.271087110E-1,1.242768764E0
2.416124143E1,1.336381078E0,-4.987567961E-1,1.111894727E0
2.417039153E1,1.266591787E0,-6.355865598E-1,9.808679819E-1
2.417954159E1,1.195428133E0,-7.392778993E-1,8.357917666E-1
2.418869169E1,1.135565042E0,-8.212841153E-1,7.120952010E-1
2.419784174E1,1.064554095E0,-8.994725943E-1,6.065713167E-1
2.420699185E1,9.565867782E-1,-9.688037634E-1,4.946335554E-1
2.421614195E1,7.895200849E-1,-9.898779988E-1,4.001049399E-1
2.422529200E1,6.238277555E-1,-9.717052579E-1,3.164188862E-1
2.423444211E1,4.648547769E-1,-9.272661209E-1,2.261662036E-1
2.424359216E1,3.069507480E-1,-8.718317747E-1,1.455343664E-1
2.425274226E1,1.655396074E-1,-8.168554902E-1,5.894676223E-2
2.426187961E1,3.420744836E-2,-7.644753456E-1,-4.398100078E-2
2.427104242E1,-1.130067408E-1,-7.127060294E-1,-1.505738497E-1
2.428019252E1,-2.648022771E-1,-6.505523324E-1,-2.457133085E-1
2.428934258E1,-4.175141156E-1,-5.601469278E-1,-3.263451457E-1
2.429849268E1,-5.836645365E-1,-4.263713956E-1,-3.910949528E-1
2.430764278E1,-7.632536292E-1,-2.889307439E-1,-4.627167881E-1
2.431678008E1,-9.555178285E-1,-1.769929975E-1,-5.825955868E-1
2.432594294E1,-1.171146870E0,-8.826743066E-2,-7.777612805E-1
2.433509299E1,-1.418234587E0,2.305948362E-2,-1.050657272E0
2.434423034E1,-1.549872160E0,2.609844804E-1,-1.327829242E0
2.435339320E1,-7.882983685E-1,8.689302206E-1,-1.338824511E0
2.436254325E1,7.997517586E-1,2.169882059E0,-6.158867478E-1
2.437168060E1,5.789304972E-1,1.816506982E0,-1.311794519E-1
2.438084341E1,-8.544226289E-1,3.544441164E-1,-8.185353279E-1
2.438999351E1,-1.235743999E0,4.744756222E-1,-1.554759026E0
2.439913086E1,-7.977665067E-1,-1.987086177E0,-1.904010892E0
2.440829367E1,-6.218425035E-1,-2.077949762E0,-1.464200854E0
2.441744377E1,-1.074938416E0,5.205945969E-1,-6.090146899E-1
2.442658112E1,-1.263842940E0,2.011214495E0,-4.446968138E-1
2.443574393E1,-1.124569774E0,1.807649732E0,-7.672241330E-1
2.444489403E1,-1.454427361E0,2.358633995E0,-8.901571631E-1
2.445403133E1,-1.755575061E0,2.035953999E0,-8.432746530E-1
2.446319419E1,-1.625617266E0,1.378529549E0,-8.999307156E-1
2.447234424E1,-1.571251869E0,4.572191834E-1,-1.067913771E0
2.448148159E1,-1.524216652E0,-2.693836391E-1,-1.197718740E0
2.449064440E1,-1.285222650E0,-6.456655264E-1,-1.221999884E0
2.449979450E1,-1.040425539E0,-8.761076927E-1,-1.206117868E0
2.450893185E1,-9.868237376E-1,-8.939749599E-1,-1.174659252E0
2.451809466E1,-1.050657272E0,-6.565080881E-1,-1.132510781E0
2.452724476E1,-1.158319116E0,-2.608317733E-1,-1.138924718E0
2.453638211E1,-1.256207347E0,1.029277667E-1,-1.171146870E0
2.454554492E1,-1.330578089E0,4.292729199E-1,-1.198176861E0
2.455469497E1,-1.375169873E0,6.726955175E-1,-1.217571259E0
2.456384508E1,-1.375169873E0,8.661814332E-1,-1.200620294E0
2.457299518E1,-1.358066201E0,1.080283403E0,-1.149309158E0
2.458214523E1,-1.312558055E0,1.271020412E0,-1.094791055E0
2.459129534E1,-1.280488610E0,1.467560530E0,-1.074480295E0
2.460044539E1,-1.273158431E0,1.615232825E0,-1.055696726E0
2.460959549E1,-1.303395391E0,1.745496035E0,-1.038898468E0
2.461874560E1,-1.362647533E0,1.761530757E0,-1.069288135E0
2.462789565E1,-1.400214672E0,1.698155403E0,-1.083490372E0
2.463704575E1,-1.423732281E0,1.627602577E0,-1.080588818E0
2.464618310E1,-1.444653749E0,1.549872160E0,-1.078145385E0
2.465534591E1,-1.435185671E0,1.400367379E0,-1.082879424E0
2.466449601E1,-1.400214672E0,1.200467587E0,-1.061194420E0
2.467364606E1,-1.385707021E0,9.952229261E-1,-1.018740535E0
2.468279617E1,-1.357608080E0,7.965448499E-1,-9.567395449E-1
2.469194627E1,-1.302173615E0,5.763344169E-1,-9.037485123E-1
2.470109632E1,-1.240019917E0,3.680354655E-1,-8.780929446E-1
2.471024643E1,-1.142895222E0,2.464768738E-1,-8.602256775E-1
2.471939648E1,-1.052489877E0,1.971509457E-1,-8.698465228E-1
2.472854659E1,-1.012326598E0,2.073826492E-1,-8.922951221E-1
2.473769669E1,-9.952229261E-1,2.756448388E-1,-8.768712282E-1
2.474684674E1,-9.756757617E-1,3.541387022E-1,-8.463288546E-1
2.475599685E1,-9.497147799E-1,3.964398801E-1,-8.186880350E-1
2.476514690E1,-8.974873424E-1,4.086568058E-1,-7.762341499E-1
2.477429700E1,-8.177717924E-1,4.366030693E-1,-7.481352091E-1
2.478344711E1,-7.350019813E-1,4.700469673E-1,-7.214106321E-1
2.479259716E1,-6.966713071E-1,5.129590034E-1,-6.960604787E-1
2.480174726E1,-6.864396334E-1,5.384618640E-1,-6.635328531E-1
2.481089732E1,-6.891884208E-1,5.596888065E-1,-6.453601122E-1
2.482004742E1,-7.047650218E-1,5.609105229E-1,-6.271874309E-1
2.482919752E1,-7.065975666E-1,5.477772951E-1,-6.045860648E-1
2.483834758E1,-6.952968836E-1,5.031854510E-1,-5.726693273E-1
2.484749768E1,-6.887302995E-1,4.485146105E-1,-5.456393361E-1
2.485664773E1,-6.775823236E-1,3.707842827E-1,-5.309789777E-1
2.486579784E1,-6.502469182E-1,2.835858464E-1,-5.251759291E-1
2.487494794E1,-6.129852533E-1,2.305948436E-1,-5.212054253E-1
2.488409799E1,-5.688515306E-1,1.950129867E-1,-5.202891231E-1
2.489324810E1,-5.134171247E-1,1.397313178E-1,-5.320479870E-1
2.490239815E1,-4.563029110E-1,2.351761982E-2,-5.407525301E-1
2.491154825E1,-4.083513916E-1,-1.759240031E-1,-5.445703268E-1
2.492069836E1,-3.822376728E-1,-4.138490260E-1,-5.271611810E-1
2.492984841E1,-3.692571819E-1,-6.421532035E-1,-5.024218559E-1
2.493899851E1,-3.833066523E-1,-7.945595980E-1,-4.950917065E-1
2.494814862E1,-4.175141156E-1,-8.301414251E-1,-5.044071078E-1
2.495729867E1,-4.385883212E-1,-8.037222624E-1,-5.070032477E-1
2.496644877E1,-4.248442650E-1,-7.530219555E-1,-5.149442554E-1
2.497558612E1,-4.075878263E-1,-6.897992492E-1,-5.178457499E-1
2.498474893E1,-3.975088596E-1,-6.470399499E-1,-5.099047422E-1
2.499389903E1,-3.782671690E-1,-5.861079693E-1,-5.005893111E-1
2.500303638E1,-3.348970115E-1,-4.715740979E-1,-5.077667832E-1
2.501219919E1,-2.828222811E-1,-3.093941510E-1,-4.947862923E-1
2.502134929E1,-2.217375487E-1,-1.181989461E-1,-4.785988331E-1
2.503049935E1,-1.684411317E-1,4.902049154E-2,-4.563029110E-1
2.503964945E1,-1.195733473E-1,1.522536725E-1,-4.095730782E-1
2.504879956E1,-6.276455522E-2,1.766875684E-1,-3.316900730E-1
2.505794961E1,2.153236605E-2,1.400367320E-1,-2.156290859E-1
2.506709971E1,1.440072358E-1,7.864658535E-2,-6.948387623E-2
2.507624976E1,2.864873707E-1,1.832541777E-3,8.002099395E-2
2.508539987E1,4.094203711E-1,-3.542914242E-2,2.269297540E-1
2.509454997E1,5.037962794E-1,-2.870982140E-2,3.680354655E-1
2.510370002E1,5.986303091E-1,5.497625470E-2,4.963133931E-1
2.511283737E1,7.217160463E-1,2.394521236E-1,6.111527085E-1
2.512200023E1,8.713735938E-1,4.781406820E-1,7.079719901E-1
2.513115028E1,1.033400893E0,7.067502737E-1,8.353336453E-1
2.514028763E1,1.198176861E0,8.692356348E-1,1.036760569E0
2.514945044E1,1.346307397E0,1.010952234E0,1.292247415E0
2.515860054E1,1.465269804E0,1.097692490E0,1.544527292E0
2.516773789E1,1.536891699E0,1.136481285E0,1.744732499E0
2.517690070E1,1.552162886E0,1.011868477E0,1.903705478E0
2.518605080E1,1.575680494E0,5.079194903E-1,2.033052444E0
2.519518815E1,1.574306130E0,-2.631224692E-1,2.106964827E0
2.520435096E1,1.561783671E0,-1.064859509E0,2.054279327E0
2.521350107E1,1.650356531E0,-1.803373814E0,1.914395332E0
2.522263841E1,1.881256819E0,-2.302283287E0,1.830861926E0
2.523180122E1,2.191261768E0,-2.361535549E0,1.809940457E0
2.524095132E1,2.488133669E0,-2.098565817E0,1.760614514E0
2.525008867E1,2.658560038E0,-1.765959382E0,1.698002696E0
2.525925148E1,2.675510883E0,-1.501462579E0,1.657686710E0
2.526840159E1,2.587701797E0,-1.327981949E0,1.669140100E0
2.527753893E1,2.450719118E0,-1.187639832E0,1.696780920E0
2.528670174E1,2.302283287E0,-1.075854778E0,1.710219622E0
2.529585179E1,2.147128105E0,-1.009119630E0,1.715869904E0
2.530500190E1,1.993805408E0,-9.713998437E-1,1.712357521E0
2.531415200E1,1.867970943E0,-8.909206986E-1,1.732057452E0
2.532330206E1,1.784590244E0,-7.521057129E-1,1.640430331E0
2.533245216E1,1.745648742E0,-5.873296261E-1,1.598587275E0
2.534160226E1,1.723810911E0,-4.161396921E-1,1.597671032E0
2.535075232E1,1.695253849E0,-2.606790662E-1,1.608360887E0
2.535990242E1,1.649592996E0,-1.377460510E-1,1.642720938E0
2.536905247E1,1.584537745E0,-4.062134400E-2,1.675706744E0
2.537820258E1,1.506960154E0,6.872031838E-3,1.683036923E0
2.538735268E1,1.435185671E0,-2.443389036E-3,1.658144832E0
2.539650278E1,1.395785928E0,-5.436540768E-2,1.615843654E0
2.540565284E1,1.384027123E0,-1.111742035E-1,1.584537745E0
2.541480294E1,1.379445791E0,-1.462979168E-1,1.545443535E0
2.542395299E1,1.368755937E0,-1.572931707E-1,1.499629974E0
2.543310310E1,1.342795014E0,-1.507265568E-1,1.486649513E0
2.544225320E1,1.300951958E0,-1.406475753E-1,1.466796994E0
2.545140325E1,1.254222155E0,-1.386623234E-1,1.402963400E0
2.546055336E1,1.210546613E0,-1.673721522E-1,1.316528559E0
2.546970341E1,1.172674060E0,-2.281514555E-1,1.208866715E0
2.547885351E1,1.121821046E0,-3.497100472E-1,1.097539783E0
2.548800362E1,1.048824787E0,-4.847072959E-1,9.773555994E-1
2.549715367E1,9.559759498E-1,-5.961869359E-1,8.657232523E-1
2.550630377E1,8.567132950E-1,-6.743753552E-1,7.563816309E-1
2.551545388E1,7.365291119E-1,-7.027797699E-1,6.694886088E-1
2.552460393E1,6.126797795E-1,-6.742226481E-1,5.885513425E-1
2.553375403E1,4.999784827E-1,-6.427640319E-1,5.089884996E-1
2.554290414E1,3.828485310E-1,-6.024481058E-1,4.201101959E-1
2.555205419E1,2.614426315E-1,-5.558710098E-1,3.326063454E-1
2.556120429E1,1.293469071E-1,-4.973823726E-1,2.356343269E-1
2.557035440E1,-1.435491070E-2,-4.292729199E-1,1.453816444E-1
2.557950445E1,-1.638597846E-1,-3.527642787E-1,5.573981255E-2
2.558865456E1,-3.249707520E-1,-2.883199155E-1,-5.283828825E-2
2.559780461E1,-4.909684956E-1,-2.644968629E-1,-1.927223057E-1
2.560695471E1,-6.487197876E-1,-2.701472044E-1,-3.520007432E-1
2.561610482E1,-7.991409302E-1,-3.174878657E-1,-5.154023767E-1
2.562525487E1,-9.465078115E-1,-3.683409095E-1,-6.934643388E-1
2.563440497E1,-1.106397152E0,-3.904841244E-1,-8.790091872E-1
2.564355508E1,-1.314085126E0,-3.637595475E-1,-1.082726717E0
2.565270513E1,-1.379293084E0,-1.724116355E-1,-1.268271565E0
2.566184247E1,-5.303681493E-1,3.289412558E-1,-1.147934675E0
2.567100528E1,8.400676847E-1,1.477334142E0,-3.915531039E-1
2.568015539E1,7.119424939E-1,8.817580342E-1,9.590301663E-2
2.568929273E1,-4.126273096E-1,-1.146865726E0,-4.297310412E-1
2.569845554E1,-7.814263701E-1,-2.890834510E-1,-1.121668339E0
2.570760565E1,-3.048127890E-1,-8.243383765E-1,-1.533073902E0
2.571674299E1,-3.171824515E-1,-2.957722425E0,-1.713121176E0
2.572590580E1,-8.501466513E-1,-2.214473963E0,-1.115254402E0
2.573505591E1,-1.497492075E0,5.453338623E-1,-4.459185004E-1
2.574419325E1,-1.656923175E0,1.817423344E0,-3.684936166E-1
2.575335607E1,-1.466949701E0,2.186069727E0,-6.233696342E-1
2.576250617E1,-1.617828965E0,2.737970114E0,-7.634063363E-1
2.577164351E1,-1.744885206E0,2.614731789E0,-7.745543122E-1
2.578080632E1,-1.770235300E0,2.207143784E0,-7.989882231E-1
2.578995643E1,-1.794669271E0,1.453052878E0,-8.632798791E-1
2.579909377E1,-1.673874259E0,7.847860456E-1,-9.352071285E-1
2.580825659E1,-1.313474298E0,1.904316396E-1,-9.535325766E-1
2.581740669E1,-1.035844207E0,-3.200839758E-1,-9.530744553E-1
2.582654403E1,-1.008356094E0,-6.418477297E-1,-9.636115432E-1
2.583570685E1,-1.102273822E0,-6.812474132E-1,-9.741486907E-1
2.584485695E1,-1.206575990E0,-5.062396526E-1,-1.020725727E0
2.585399424E1,-1.266744494E0,-3.052709103E-1,-1.056154966E0
2.586315711E1,-1.315306902E0,-8.903098851E-2,-1.090209603E0
2.587230716E1,-1.354859233E0,1.336228400E-1,-1.116323352E0
2.588145726E1,-1.341420531E0,3.005368412E-1,-1.129151106E0
2.589060737E1,-1.287818789E0,4.398100376E-1,-1.127013206E0
2.589975742E1,-1.255596519E0,6.135960817E-1,-1.104259133E0
2.590890752E1,-1.227497578E0,8.368607163E-1,-1.064554095E0
2.591805763E1,-1.167329073E0,1.050351858E0,-1.027750492E0
2.592720768E1,-1.129456639E0,1.219861984E0,-1.004996419E0
2.593635778E1,-1.177255392E0,1.334854007E0,-1.004080176E0
2.594550784E1,-1.234980464E0,1.384179831E0,-1.015533566E0
2.595465794E1,-1.251015186E0,1.400825500E0,-1.046228647E0
2.596380804E1,-1.240172625E0,1.388150454E0,-1.090667725E0
2.597295810E1,-1.243685007E0,1.297592282E0,-1.097387075E0
2.598210820E1,-1.272089362E0,1.143353343E0,-1.073716760E0
2.599125831E1,-1.284000993E0,9.500201941E-1,-1.047908425E0
2.600040836E1,-1.253611326E0,7.748597264E-1,-1.037829518E0
2.600955846E1,-1.210546613E0,5.903838873E-1,-1.041647315E0
2.601870856E1,-1.156486630E0,4.602734149E-1,-1.042410851E0
2.602785862E1,-1.102273822E0,3.828485310E-1,-1.009730577E0
2.603700872E1,-1.072495103E0,2.721324563E-1,-9.550597072E-1
2.604615877E1,-1.045006990E0,2.000524700E-1,-9.168817401E-1
2.605530888E1,-1.013242841E0,1.670667231E-1,-9.013051391E-1
2.606445898E1,-9.988879561E-1,1.983726472E-1,-8.896990418E-1
2.607360903E1,-9.713998437E-1,2.852656841E-1,-8.699992299E-1
2.608275914E1,-9.452861547E-1,3.987305462E-1,-8.527427912E-1
2.609190924E1,-9.191724062E-1,5.181511641E-1,-8.380824327E-1
2.610105929E1,-8.855758309E-1,6.134433746E-1,-8.232693672E-1
2.611020940E1,-8.319739699E-1,6.859814525E-1,-8.180772066E-1
2.611935950E1,-7.869240046E-1,8.029587269E-1,-8.018897176E-1
2.612850956E1,-7.931851745E-1,9.326110482E-1,-7.605048418E-1
2.613765966E1,-8.151756525E-1,1.025001645E0,-7.253811359E-1
2.614680971E1,-8.182299137E-1,1.036455035E0,-7.119424939E-1
2.615595982E1,-7.989882231E-1,1.003927469E0,-7.185090780E-1
2.616510992E1,-7.911999226E-1,9.630007148E-1,-7.159129977E-1
2.617425997E1,-7.954758406E-1,8.822161555E-1,-7.006418109E-1
2.618341008E1,-7.866185308E-1,7.866185308E-1,-6.755970716E-1
2.619256018E1,-7.481352091E-1,7.204943299E-1,-6.313106418E-1
2.620171023E1,-6.746807694E-1,6.853706241E-1,-5.781669021E-1
2.621086034E1,-5.967977643E-1,6.470399499E-1,-5.378510356E-1
2.622001044E1,-5.635066032E-1,5.651864409E-1,-5.253286362E-1
2.622916049E1,-5.734328628E-1,4.494308829E-1,-5.320479870E-1
2.623831060E1,-5.909947157E-1,3.402419090E-1,-5.399889946E-1
2.624746070E1,-5.810684562E-1,2.637332976E-1,-5.479300022E-1
2.625661075E1,-5.428904891E-1,2.052446753E-1,-5.488462448E-1
2.626576086E1,-4.779879749E-1,9.345962852E-2,-5.292991400E-1
2.627491096E1,-3.965925872E-1,-5.161659420E-2,-5.176930428E-1
2.628406101E1,-3.249707520E-1,-2.034121305E-1,-5.128062963E-1
2.629321112E1,-2.762556672E-1,-3.550549746E-1,-4.866925478E-1
2.630236122E1,-2.417428046E-1,-5.163186193E-1,-4.527905285E-1
2.631151127E1,-2.133384049E-1,-6.687250137E-1,-4.237752855E-1
2.632066138E1,-1.959292591E-1,-7.661551833E-1,-4.014793634E-1
2.632981143E1,-1.921114624E-1,-7.937960029E-1,-3.788780272E-1
2.633896153E1,-1.832541823E-1,-7.586722970E-1,-3.562766612E-1
2.634811164E1,-1.594311297E-1,-6.737645268E-1,-3.439069986E-1
2.635726174E1,-1.362189353E-1,-5.128062963E-1,-3.414636254E-1
2.636641179E1,-1.432436854E-1,-2.693836391E-1,-3.417690396E-1
2.637556190E1,-1.844758689E-1,-2.443389036E-3,-3.377985358E-1
2.638471200E1,-2.481566966E-1,2.295258641E-1,-3.342861533E-1
2.639386206E1,-2.933593988E-1,3.764346242E-1,-3.255815804E-1
2.640299940E1,-2.869454920E-1,4.146125913E-1,-3.054236174E-1
2.641216221E1,-1.979145110E-1,3.545968235E-1,-2.338017821E-1
2.642131232E1,-3.100049868E-2,2.409792393E-1,-1.104106456E-1
2.643044966E1,1.769929975E-1,7.131642103E-2,4.321744293E-2
2.643961247E1,3.898732662E-1,-1.084253863E-1,2.102841735E-1
2.644876258E1,5.975613594E-1,-2.455606014E-1,3.689517379E-1
2.645789992E1,8.014315963E-1,-3.029802442E-1,5.236487985E-1
2.646706278E1,9.852966070E-1,-2.455606014E-1,6.531484127E-1
2.647621284E1,1.141673565E0,-8.338065445E-2,7.908945084E-1
2.648535018E1,1.282015681E0,1.230857223E-1,9.779664874E-1
2.649451299E1,1.415791273E0,2.947337925E-1,1.226734042E0
2.650366310E1,1.487718463E0,4.019374847E-1,1.486649513E0
2.651280044E1,1.503905892E0,3.648285270E-1,1.685174823E0
2.652196325E1,1.514290333E0,2.226538211E-1,1.850256324E0
2.653111336E1,1.533226609E0,4.474456236E-2,1.980061412E0
2.654025070E1,1.552926421E0,-2.460187376E-1,2.030456305E0
2.654941351E1,1.548192382E0,-6.704048514E-1,1.966011882E0
2.655856362E1,1.572931647E0,-1.230857253E0,1.801083088E0
2.656770096E1,1.704111099E0,-1.762141585E0,1.634474516E0
2.657686377E1,1.947991967E0,-2.053210258E0,1.557049632E0
2.658601388E1,2.252499342E0,-2.056875467E0,1.549414039E0
2.659515122E1,2.509665966E0,-1.856517553E0,1.546207070E0
2.660431403E1,2.617938757E0,-1.546054363E0,1.523453116E0
2.661346414E1,2.566169262E0,-1.279724956E0,1.553537250E0
2.662260148E1,2.419260502E0,-1.153737783E0,1.630504012E0
2.663176429E1,2.276780367E0,-1.108993173E0,1.696780920E0
2.664091440E1,2.188207626E0,-1.055544019E0,1.697849989E0
2.665005174E1,2.145753622E0,-9.959864616E-1,1.694490314E0
2.665921456E1,2.119487286E0,-9.633061290E-1,1.734500766E0
2.666836466E1,2.073062897E0,-8.687775135E-1,1.741525531E0
2.667751471E1,2.014421463E0,-8.197570443E-1,1.635390878E0
2.668666482E1,1.973189354E0,-7.817317843E-1,1.536128163E0
2.669581492E1,1.937454820E0,-6.927008033E-1,1.507723689E0
2.670496497E1,1.895459056E0,-5.595360994E-1,1.539029717E0
2.671411508E1,1.840788245E0,-3.936910629E-1,1.581330895E0
2.672326518E1,1.781535983E0,-2.570139766E-1,1.592936993E0
2.673241523E1,1.738471270E0,-1.890572309E-1,1.582857966E0
2.674156534E1,1.702584028E0,-1.608055383E-1,1.574764252E0
2.675071544E1,1.674637794E0,-1.325538605E-1,1.550635815E0
2.675986549E1,1.655854225E0,-8.215895295E-2,1.510777950E0
2.676901560E1,1.637070656E0,-3.481829539E-2,1.464811683E0
2.677816570E1,1.617981672E0,-8.399149403E-3,1.429840684E0
2.678730304E1,1.595074892E0,3.466558084E-2,1.374711752E0
2.679646586E1,1.562241912E0,7.360709459E-2,1.315917730E0
2.680561596E1,1.525132895E0,4.978405312E-2,1.245364904E0
2.681476601E1,1.503600478E0,-5.604523420E-2,1.160915256E0
2.682391612E1,1.468018651E0,-1.751604527E-1,1.067455530E0
2.683306622E1,1.405864954E0,-2.803788781E-1,9.859074950E-1
2.684221627E1,1.331799746E0,-3.837648034E-1,9.255862832E-1
2.685136638E1,1.253611326E0,-4.384356141E-1,8.718317747E-1
2.686051648E1,1.170077920E0,-4.524851143E-1,8.163973689E-1
2.686966653E1,1.085780978E0,-4.288147688E-1,7.540909648E-1
2.687881664E1,1.007287145E0,-3.799470067E-1,6.734591126E-1
2.688796674E1,9.376505613E-1,-3.284831047E-1,5.795413256E-1
2.689711679E1,8.692356348E-1,-2.886253297E-1,4.709632397E-1
2.690626690E1,7.835643291E-1,-2.492256761E-1,4.086568058E-1
2.691541695E1,6.812474132E-1,-2.286095917E-1,3.553603888E-1
2.692456706E1,5.790832043E-1,-2.180724740E-1,3.101576865E-1
2.693371716E1,4.796678126E-1,-1.821851879E-1,2.666348219E-1
2.694286726E1,3.883461356E-1,-1.481304616E-1,2.286095917E-1
2.695201732E1,2.925958335E-1,-1.195733473E-1,2.011214644E-1
2.696116742E1,1.838650256E-1,-7.757759839E-2,1.782146841E-1
2.697031752E1,5.741964281E-2,-4.718795046E-2,1.455343664E-1
2.697946758E1,-8.063183725E-2,-3.680354729E-2,9.697200358E-2
2.698861768E1,-2.232646793E-1,-4.016320780E-2,4.596625641E-2
2.699776773E1,-3.695625961E-1,-8.032641560E-2,-9.162708884E-4
2.700691784E1,-5.115845799E-1,-1.024696305E-1,-3.237490356E-2
2.701606794E1,-6.374191046E-1,-7.620319724E-2,-6.077930331E-2
2.702521799E1,-7.504258752E-1,-3.191677108E-2,-1.049130186E-1
2.703436810E1,-8.452599049E-1,-1.130067464E-2,-1.769929975E-1
2.704351820E1,-9.240592122E-1,-3.771981969E-2,-2.765611112E-1
2.705266825E1,-9.859074950E-1,-1.070509851E-1,-3.855973184E-1
2.706181836E1,-1.043785214E0,-1.983726472E-1,-4.866925478E-1
2.707096846E1,-1.118919492E0,-2.994678617E-1,-5.799994469E-1
2.708011851E1,-1.218334913E0,-3.825430870E-1,-6.710157394E-1
2.708925586E1,-1.254985690E0,-3.816268146E-1,-7.379034758E-1
2.709841872E1,-9.497147799E-1,2.840439789E-2,-6.334486008E-1
2.710756877E1,-2.993151546E-2,7.340856791E-1,-2.261662036E-1
2.711670612E1,7.383615971E-1,2.855710983E-1,2.185306102E-1
2.712586898E1,6.878139973E-1,-1.497339368E0,2.959555089E-1
2.713501903E1,7.788302377E-3,-1.972425818E0,-1.470614821E-1
2.714415638E1,-1.834068894E-1,-1.365549088E0,-8.113578558E-1
2.715331924E1,6.039752364E-1,-6.690304875E-1,-1.178782463E0
2.716246929E1,1.315459609E0,-2.625116110E-1,-1.196649790E0
2.717160664E1,6.423059106E-1,-1.064706802E0,-9.639169574E-1
2.718076950E1,-1.227497578E0,-1.488482118E0,-7.142331600E-1
2.718991956E1,-2.179961205E0,2.108950168E-1,-5.981721878E-1
2.719905690E1,-1.952878714E0,2.524326324E0,-5.360184908E-1
2.720821971E1,-1.654632568E0,3.437237501E0,-5.155550838E-1
2.721736982E1,-1.371657491E0,3.116237402E0,-5.879405141E-1
2.722650716E1,-1.218793035E0,2.045269251E0,-6.934643388E-1
2.723566997E1,-1.329203606E0,9.924740791E-1,-6.410841942E-1
2.724482008E1,-1.512305140E0,3.512371778E-1,-6.021426916E-1
2.725395742E1,-1.404337883E0,-1.232384369E-1,-6.853706241E-1
2.726312023E1,-1.145491362E0,-4.436278343E-1,-7.345438004E-1
2.727227034E1,-9.659022093E-1,-6.830799580E-1,-7.270609736E-1
2.728140768E1,-9.495620728E-1,-8.690829277E-1,-6.839962006E-1
2.729057049E1,-1.136481285E0,-9.362761378E-1,-6.589514613E-1
2.729972060E1,-1.361120462E0,-8.322793841E-1,-6.655181050E-1
2.730885794E1,-1.421899676E0,-6.450546980E-1,-6.783458591E-1
2.731802075E1,-1.381583810E0,-4.498890042E-1,-7.160657048E-1
2.732717086E1,-1.359898686E0,-2.921377122E-1,-7.660024762E-1
2.733630820E1,-1.335922956E0,-1.898207814E-1,-7.947123051E-1
2.734547101E1,-1.256360054E0,-6.077930331E-2,-8.028060198E-1
2.735462112E1,-1.173437595E0,1.760767251E-1,-8.170081973E-1
2.736377117E1,-1.120293856E0,4.098785222E-1,-8.583931327E-1
2.737292127E1,-1.069746256E0,5.383091569E-1,-8.684720993E-1
2.738207138E1,-1.056460381E0,7.232431769E-1,-8.739697337E-1
2.739122143E1,-1.056002140E0,9.336800575E-1,-8.655705452E-1
2.740037153E1,-1.047755718E0,1.112658262E0,-8.564078808E-1
2.740952164E1,-1.017824292E0,1.214517117E0,-8.588512540E-1
2.741867169E1,-9.857547879E-1,1.211615562E0,-8.628217578E-1
2.742782179E1,-9.808679819E-1,1.169314384E0,-8.762603998E-1
2.743697190E1,-9.912523627E-1,1.098761559E0,-8.933641315E-1
2.744612195E1,-9.848384857E-1,1.013090134E0,-9.145910740E-1
2.745527206E1,-9.672766328E-1,9.124531150E-1,-9.339854717E-1
2.746442216E1,-9.520054460E-1,8.015843034E-1,-9.539906979E-1
2.747357221E1,-9.546015263E-1,7.321004272E-1,-9.599464536E-1
2.748272232E1,-9.733850956E-1,7.713474035E-1,-9.571976662E-1
2.749187237E1,-1.022100210E0,7.838697433E-1,-9.587247968E-1
2.750102247E1,-1.079825282E0,7.392778993E-1,-9.431481957E-1
2.751017258E1,-1.119683027E0,7.766922712E-1,-9.026795626E-1
2.751932263E1,-1.130220175E0,8.312104344E-1,-8.525900841E-1
2.752847273E1,-1.085017443E0,7.831062078E-1,-8.034168482E-1
2.753762284E1,-9.805625677E-1,5.775560737E-1,-7.548545003E-1
2.754677289E1,-9.022213817E-1,3.607053161E-1,-7.304205894E-1
2.755592299E1,-8.890882134E-1,1.805053651E-1,-7.233958840E-1
2.756507310E1,-9.005415440E-1,-3.939964995E-2,-7.183563709E-1
2.757422315E1,-9.338327646E-1,-1.942494214E-1,-7.156075835E-1
2.758337325E1,-9.397885203E-1,-2.895416021E-1,-7.046123147E-1
2.759252336E1,-8.677085042E-1,-4.411844313E-1,-6.771242023E-1
2.760167341E1,-7.696675658E-1,-6.088619828E-1,-6.291726828E-1
2.761082351E1,-7.114843726E-1,-7.171346545E-1,-6.000047326E-1
2.761997362E1,-6.991146803E-1,-7.207997441E-1,-6.102364063E-1
2.762912367E1,-7.182036638E-1,-6.992673874E-1,-6.311579347E-1
2.763827377E1,-7.291989326E-1,-7.143858671E-1,-6.410841942E-1
2.764742388E1,-6.910209656E-1,-7.882983685E-1,-6.322268844E-1
2.765657393E1,-6.387935281E-1,-8.484668136E-1,-6.012263894E-1
2.766572403E1,-6.345176101E-1,-8.525900841E-1,-5.761816502E-1
2.767487414E1,-6.858287454E-1,-7.760814428E-1,-5.807630420E-1
2.768402419E1,-7.569924593E-1,-6.574243903E-1,-5.917583108E-1
2.769317429E1,-7.853968740E-1,-5.847335458E-1,-5.835118294E-1
2.770232440E1,-7.771504521E-1,-5.621321797E-1,-5.468609929E-1
2.771147445E1,-7.858549953E-1,-5.728220344E-1,-5.053234100E-1
2.772062456E1,-8.365553021E-1,-5.662553906E-1,-4.825693369E-1
2.772977466E1,-8.675557971E-1,-4.807367921E-1,-4.851654470E-1
2.773892471E1,-8.464815617E-1,-3.529170156E-1,-4.674508572E-1
2.774807482E1,-8.174663186E-1,-2.363978922E-1,-4.355340898E-1
2.775722492E1,-8.017370105E-1,-1.362189353E-1,-4.098785222E-1
2.776637497E1,-7.870767117E-1,-6.108472589E-4,-3.884988427E-1
2.777552508E1,-7.670714259E-1,1.718007922E-1,-3.726168275E-1
2.778467518E1,-7.689039707E-1,3.593308926E-1,-3.564293683E-1
2.779382523E1,-8.246437907E-1,5.256340504E-1,-3.507790267E-1
2.780297534E1,-8.842014074E-1,7.237012982E-1,-3.550549746E-1
2.781212544E1,-8.935168386E-1,8.678612709E-1,-3.617742956E-1
2.782127549E1,-8.635852933E-1,8.938222528E-1,-3.532224298E-1
2.783041284E1,-8.270871639E-1,7.945595980E-1,-3.216110766E-1
2.783957570E1,-8.115105629E-1,6.026008129E-1,-2.542651594E-1
2.784872575E1,-8.237275481E-1,3.484883606E-1,-1.856975704E-1
2.785787586E1,-8.122741580E-1,8.582404256E-2,-1.501157135E-1
2.786702596E1,-7.392778993E-1,-8.521319181E-2,-1.556133330E-1
2.787617601E1,-5.920637250E-1,-1.940967143E-1,-1.837123185E-1
2.788532612E1,-4.343124032E-1,-3.199312389E-1,-2.228065431E-1
2.789447617E1,-3.304683566E-1,-4.114056230E-1,-2.342599183E-1
2.790362627E1,-2.736595869E-1,-4.370612204E-1,-1.989834905E-1
2.791276362E1,-2.266243398E-1,-4.144598544E-1,-1.357607991E-1
2.792192648E1,-1.899735034E-1,-3.455868363E-1,-8.551861346E-2
2.793107653E1,-1.750077456E-1,-2.339545041E-1,-5.558710173E-2
2.794022664E1,-1.701209545E-1,-9.590301663E-2,-3.237490356E-2
2.794937674E1,-1.812689304E-1,4.581354558E-2,-1.679829881E-2
2.795852679E1,-2.015796006E-1,1.873773932E-1,-2.794626169E-2
2.796767690E1,-2.063136548E-1,3.113794029E-1,-5.803048983E-2
2.797682695E1,-1.896680743E-1,4.069769979E-1,-9.147437662E-2
2.798597706E1,-1.711899489E-1,4.775298536E-1,-1.177408099E-1
2.799512716E1,-1.818797737E-1,5.219689608E-1,-1.331647038E-1
2.800427721E1,-2.215848416E-1,5.473191738E-1,-1.426328421E-1
2.801342732E1,-2.683146596E-1,5.465555787E-1,-1.557660550E-1
2.802257742E1,-3.054236174E-1,4.952444136E-1,-1.705790907E-1
2.803172752E1,-3.162661791E-1,3.938437700E-1,-1.693574041E-1
2.804087758E1,-2.947337925E-1,2.589992285E-1,-1.527118087E-1
2.805002768E1,-2.336490750E-1,1.036913246E-1,-1.404948682E-1
2.805917778E1,-1.409530044E-1,-7.024743408E-2,-1.256818175E-1
2.806832784E1,-5.619794875E-2,-1.954711229E-1,-1.078145429E-1
2.807747794E1,-1.878355257E-2,-2.422009408E-1,-9.590301663E-2
2.808662804E1,-1.236965694E-2,-2.211267054E-1,-7.513421029E-2
2.809577810E1,-2.061609551E-2,-1.330119967E-1,-4.718795046E-2
2.810491544E1,-4.627167806E-2,-3.527642787E-2,-1.878355257E-2
2.811407831E1,-7.330167294E-2,8.826743066E-2,-1.527118147E-4
2.812322836E1,-8.506047726E-2,2.214321345E-1,9.468132630E-3
2.813237846E1,-8.780929446E-2,3.214583695E-1,1.191152167E-2
2.814152856E1,-8.948912472E-2,3.810159862E-1,5.039489828E-3
2.815067862E1,-9.223793447E-2,4.249969721E-1,-4.734066315E-3
2.815982872E1,-9.743013978E-2,4.569137394E-1,-1.389677543E-2
2.816897883E1,-1.067455560E-1,4.821111858E-1,-2.809897438E-2
2.817812888E1,-1.235438585E-1,5.025745630E-1,-4.413371533E-2
2.818727898E1,-1.383569092E-1,5.036435723E-1,-6.123743951E-2
2.819642909E1,-1.411057115E-1,4.795151055E-1,-7.711946964E-2
2.820557914E1,-1.327065676E-1,4.330907166E-1,-8.872556686E-2
2.821472924E1,-1.128540337E-1,3.631486893E-1,-8.674030751E-2
2.822387935E1,-9.300149232E-2,2.722851634E-1,-7.238540053E-2
2.823302940E1,-7.314895838E-2,1.730224788E-1,-5.573981255E-2
2.824217950E1,-5.024218559E-2,7.543963939E-2,-3.787253052E-2
2.825132961E1,-1.985253580E-2,-1.359135192E-2,-1.679829881E-2
2.826047966E1,9.773556143E-3,-1.062874198E-1,8.551862091E-3
2.826962976E1,3.634541109E-2,-1.922641695E-1,3.451287001E-2
2.827877987E1,5.344913527E-2,-2.602209449E-1,5.176930502E-2
2.828792992E1,5.573981255E-2,-3.078670204E-1,5.665608495E-2
2.829708002E1,4.169032723E-2,-3.338280320E-1,5.665608495E-2
2.830623013E1,2.275406010E-2,-3.344388604E-1,4.611896724E-2
2.831538018E1,6.719320081E-3,-3.219164908E-1,2.580829710E-2
2.832453028E1,-1.007897966E-2,-2.967190444E-1,-6.108472589E-3
2.833368039E1,-2.321219631E-2,-2.547233105E-1,-4.046862945E-2
2.834283049E1,-2.748812735E-2,-1.927223057E-1,-5.940489471E-2
2.835198054E1,-2.626643144E-2,-1.174353883E-1,-6.368082762E-2
2.836113065E1,-2.794626169E-2,-6.077930331E-2,-7.177454978E-2
2.837028075E1,-4.352286831E-2,-3.619270027E-2,-7.803573459E-2
2.837943081E1,-6.276455522E-2,-2.351761982E-2,-7.391251624E-2
2.838858091E1,-6.963659078E-2,-7.788302377E-3,-5.986303091E-2
2.839773101E1,-5.573981255E-2,1.282779220E-2,-4.627167806E-2
2.840688106E1,-2.947338112E-2,3.268032894E-2,-3.206948191E-2
2.841603117E1,-2.443389036E-3,3.527642787E-2,-1.481304597E-2
2.842518122E1,1.771457121E-2,3.176405653E-2,4.886778072E-3
2.843433133E1,2.702999115E-2,2.764083818E-2,2.321219631E-2
2.844348143E1,2.886253223E-2,2.351761982E-2,3.726168349E-2
2.845263153E1,3.130592033E-2,1.511846948E-2,4.840964451E-2
2.846178159E1,3.894151375E-2,-9.620844387E-3,5.879404768E-2
2.847093169E1,5.146388337E-2,-4.398100078E-2,6.261184067E-2
2.848008179E1,6.474980712E-2,-7.879929990E-2,6.077930331E-2
2.848923185E1,7.192726433E-2,-1.131594554E-1,5.543438718E-2
2.849838195E1,7.528692484E-2,-1.499630064E-1,4.749337584E-2
2.850753206E1,7.879929990E-2,-1.812689304E-1,3.603998944E-2
2.851668211E1,8.078455180E-2,-1.971509457E-1,2.382304333E-2
2.852583221E1,7.650861889E-2,-1.940967143E-1,1.038440317E-2
2.853498232E1,5.543438718E-2,-1.803526580E-1,-9.162708884E-4
2.854413237E1,2.886253223E-2,-1.652341783E-1,-1.206423342E-2
2.855328247E1,9.009997360E-3,-1.484358907E-1,-2.260134928E-2
2.856243258E1,-2.748812549E-3,-1.275143623E-1,-3.298575059E-2
2.857158268E1,-1.282779220E-2,-1.094943732E-1,-4.779879749E-2
2.858073273E1,-1.771457121E-2,-9.865183383E-2,-5.757235363E-2
2.858988284E1,-1.481304597E-2,-7.818844914E-2,-5.757235363E-2
2.859903294E1,3.054236295E-4,-4.978405312E-2,-5.008947477E-2
2.860818299E1,1.908897609E-2,-1.603474095E-2,-4.153761268E-2
2.861733310E1,4.092676565E-2,2.199050039E-2,-2.977880463E-2
2.862648320E1,5.528167635E-2,5.344913527E-2,-2.290677279E-2
2.863563325E1,5.818320066E-2,7.513421029E-2,-1.985253580E-2
2.864478336E1,5.497625470E-2,9.009996802E-2,-2.244863659E-2
2.865393346E1,5.864133686E-2,9.849911928E-2,-2.290677279E-2
2.866308351E1,7.284353673E-2,9.926267713E-2,-2.412846684E-2
2.867223362E1,9.498675168E-2,9.559759498E-2,-2.092151903E-2
2.868138372E1,1.152974218E-1,1.017060652E-1,-9.773556143E-3
2.869053377E1,1.206423342E-1,1.137702987E-1,1.832541777E-3
2.869968388E1,1.236965731E-1,1.127013192E-1,1.099525020E-2
2.870883398E1,1.360662282E-1,1.030804738E-1,2.031067200E-2
2.871798409E1,1.421747059E-1,1.091889441E-1,3.374931216E-2
2.872713414E1,1.305686086E-1,1.531699449E-1,4.581354558E-2
2.873628424E1,1.212531775E-1,2.195995897E-1,5.375456065E-2
2.874543435E1,1.317902952E-1,2.870981991E-1,5.436540768E-2
2.875458440E1,1.505738497E-1,3.280249834E-1,4.947862774E-2
2.876373450E1,1.603474021E-1,3.333698809E-1,4.535540938E-2
2.877288461E1,1.627907902E-1,3.443651497E-1,4.046862945E-2
2.878203466E1,1.461452097E-1,3.629959822E-1,3.665083647E-2
2.879118476E1,1.177408099E-1,3.657447994E-1,2.428117767E-2
2.880033487E1,8.414421231E-2,3.391729295E-1,7.482878864E-3
2.880948492E1,5.131116882E-2,2.925958335E-1,-9.162709117E-3
2.881863502E1,2.733541466E-2,2.347180545E-1,-2.886253223E-2
2.882778513E1,9.926267900E-3,1.762294322E-1,-4.413371533E-2
2.883693523E1,-6.108472589E-4,1.200314835E-1,-5.512896553E-2
2.884608528E1,-8.093725890E-3,6.749862432E-2,-6.368082762E-2
2.885523539E1,-1.801999472E-2,1.817270555E-2,-7.116370648E-2
2.886438549E1,-2.443389036E-2,-2.825168520E-2,-7.299624383E-2
2.887353554E1,-1.847812906E-2,-7.467607409E-2,-7.284353673E-2
2.888268565E1,-8.246437646E-3,-1.137702987E-1,-6.612421572E-2
2.889183575E1,2.290677279E-3,-1.324011385E-1,-5.680879578E-2
2.890098580E1,1.023169141E-2,-1.287360638E-1,-4.581354558E-2
2.891013591E1,1.496575773E-2,-1.058292910E-1,-3.466558084E-2
2.891928601E1,1.710372418E-2,-7.314895838E-2,-2.367033064E-2
2.892843607E1,2.275406010E-2,-3.695625812E-2,-1.328592747E-2
2.893758617E1,2.672456764E-2,7.635590620E-3,-7.330167107E-3
2.894673627E1,3.176405653E-2,5.528167635E-2,-4.734066315E-3
2.895588638E1,3.634541109E-2,9.498675168E-2,-2.901524538E-3
2.896503643E1,3.863608837E-2,1.209477559E-1,0.000000000E0
2.897418653E1,3.542914242E-2,1.385096163E-1,-1.832541777E-3
2.898333664E1,2.657185495E-2,1.559187621E-1,-3.054236295E-3
2.899248669E1,1.786728203E-2,1.745496094E-1,-5.650337320E-3
2.900163679E1,1.160609815E-2,1.872246861E-1,-9.926267900E-3
2.901078690E1,8.551862091E-3,1.876828223E-1,-1.542389300E-2
2.901993695E1,1.114796288E-2,1.737860441E-1,-2.336490713E-2
2.902908706E1,1.374406368E-2,1.557660550E-1,-3.130592033E-2
2.903823716E1,1.038440317E-2,1.328592747E-1,-3.924693540E-2
2.904738721E1,2.596100792E-3,1.001789495E-1,-4.535540938E-2
2.905653732E1,-3.206948051E-3,6.108472496E-2,-4.779879749E-2
2.906568742E1,-8.246437646E-3,1.160609815E-2,-4.352286831E-2
2.907483752E1,-1.588202827E-2,-4.428642616E-2,-3.497100621E-2
2.908398758E1,-1.725643501E-2,-9.926267713E-2,-2.702999115E-2
2.909313768E1,-1.618745178E-2,-1.443126649E-1,-2.275406010E-2
2.910228778E1,-1.603474095E-2,-1.708845198E-1,-2.031067200E-2
2.911143789E1,-1.725643501E-2,-1.672194302E-1,-1.786728203E-2
2.912058794E1,-1.817270555E-2,-1.340809762E-1,-1.603474095E-2
2.912973804E1,-1.801999472E-2,-8.826743066E-2,-1.359135192E-2
2.913888815E1,-1.832541823E-2,-4.734066129E-2,-1.236965694E-2
2.914803820E1,-1.924168877E-2,-1.175880991E-2,-1.542389300E-2
2.915718831E1,-2.137965336E-2,1.603474095E-2,-1.924168877E-2
2.916633841E1,-2.764083818E-2,3.161134571E-2,-2.290677279E-2
2.917548846E1,-2.718270384E-2,4.245388508E-2,-2.351761982E-2
2.918463856E1,-1.985253580E-2,5.146388337E-2,-1.863084175E-2
2.919378867E1,-6.413896102E-3,5.818320066E-2,-1.298050396E-2
2.920293877E1,1.527118147E-3,6.001574174E-2,-8.704573847E-3
2.921208883E1,-2.748812549E-3,5.879404768E-2,-8.093725890E-3
2.922123893E1,-1.313321572E-2,5.573981255E-2,-8.857285604E-3
2.923038903E1,-1.878355257E-2,5.696150661E-2,-6.413896102E-3
2.923953909E1,-1.817270555E-2,6.184828654E-2,-3.970507067E-3
2.924868919E1,-1.511846948E-2,6.352811307E-2,-2.748812549E-3
2.925783929E1,-1.756185852E-2,5.528167635E-2,-3.054236295E-4
2.926698935E1,-2.275406010E-2,3.161134571E-2,-2.748812549E-3
2.927613945E1,-3.054236248E-2,-3.359660041E-3,-8.857285604E-3
2.928528956E1,-3.695625812E-2,-3.955236077E-2,-1.618745178E-2
2.929443966E1,-3.863608837E-2,-6.062658876E-2,-2.290677279E-2
2.930358971E1,-4.092676565E-2,-7.024743408E-2,-2.351761982E-2
2.931273982E1,-4.153761268E-2,-7.330167294E-2,-2.229592577E-2
2.932188992E1,-4.031591862E-2,-7.085828483E-2,-2.046338283E-2
2.933103997E1,-3.970507160E-2,-7.085828483E-2,-1.985253580E-2
2.934019008E1,-4.230117425E-2,-7.085828483E-2,-1.924168877E-2
2.934934018E1,-4.474456236E-2,-6.963659078E-2,-1.924168877E-2
2.935849028E1,-4.046862945E-2,-5.818320066E-2,-1.496575773E-2
2.936764034E1,-3.451287001E-2,-3.466558084E-2,-1.007897966E-2
2.937679044E1,-2.855710872E-2,-6.872031838E-3,-2.748812549E-3
2.938594054E1,-2.947338112E-2,1.786728203E-2,2.137965523E-3
2.939509060E1,-3.161134571E-2,3.649812192E-2,3.359660041E-3
2.940424070E1,-2.855710872E-2,5.100574717E-2,4.581354558E-3
2.941339081E1,-2.565558441E-2,6.062658876E-2,5.192201585E-3
2.942254086E1,-2.076880634E-2,6.306997687E-2,7.024743594E-3
