"Time (s)","Gyroscope x (rad/s)","Gyroscope y (rad/s)","Gyroscope z (rad/s)"
9.247444407E0,3.478317022E0,-9.236010313E-1,4.679090083E-1
9.256597324E0,3.406847954E0,-6.507050395E-1,3.133646548E-1
9.265737480E0,3.230771065E0,-3.862081766E-1,1.800472289E-1
9.274903157E0,3.045684338E0,-2.186833173E-1,1.255291104E-1
9.284056074E0,2.924431324E0,-1.837123185E-1,1.606528312E-1
9.293208990E0,2.870065928E0,-2.756448388E-1,2.428117841E-1
9.302361907E0,2.818143845E0,-3.724641204E-1,3.365768492E-1
9.311514876E0,2.740260839E0,-3.776563108E-1,4.111002088E-1
9.320655032E0,2.647870064E0,-3.330644667E-1,4.359922409E-1
9.329820709E0,2.550440073E0,-3.100049794E-1,4.017847776E-1
9.338973626E0,2.458812952E0,-3.562766612E-1,3.217637837E-1
9.348126542E0,2.392383337E0,-4.627167881E-1,2.225011140E-1
9.357279459E0,2.368102074E0,-6.306998134E-1,1.618745178E-1
9.366432376E0,2.392230511E0,-8.342646360E-1,1.421747059E-1
9.375585292E0,2.443999767E0,-9.842276573E-1,1.603474021E-1
9.384738209E0,2.482025146E0,-1.050199151E0,2.050919682E-1
9.393891126E0,2.480498075E0,-1.037982225E0,2.564031482E-1
9.403031334E0,2.445527077E0,-9.999569654E-1,2.812951505E-1
9.412197011E0,2.376653910E0,-9.465078115E-1,2.776300907E-1
9.421349928E0,2.285485029E0,-8.912261724E-1,2.811424434E-1
9.430490084E0,2.188971043E0,-8.472451568E-1,2.872509360E-1
9.439655761E0,2.094442606E0,-8.138012886E-1,2.675510943E-1
9.448808678E0,2.015337706E0,-7.887565494E-1,2.438807636E-1
9.457961594E0,1.951198816E0,-7.702783942E-1,2.171562016E-1
9.467114511E0,1.883242130E0,-7.348492742E-1,1.957765520E-1
9.476267428E0,1.813300133E0,-6.887302995E-1,1.733279079E-1
9.485420344E0,1.744274378E0,-6.082511544E-1,1.433963925E-1
9.494573261E0,1.676928401E0,-5.131117105E-1,1.178935245E-1
9.503726178E0,1.599503517E0,-4.584408700E-1,9.223793447E-2
9.512879146E0,1.492910743E0,-4.491254389E-1,6.276455522E-2
9.522032063E0,1.364174604E0,-4.453076422E-1,3.390202299E-2
9.531184980E0,1.227802992E0,-4.153761268E-1,-2.596100792E-3
9.540337896E0,1.088835239E0,-3.538332880E-1,-4.566083103E-2
9.549490813E0,9.776610136E-1,-2.504473627E-1,-8.689302206E-2
9.558643730E0,9.025267959E-1,-1.681357026E-1,-1.113269106E-1
9.567796646E0,8.374716043E-1,-1.386623234E-1,-1.123958975E-1
9.576949563E0,7.802046537E-1,-1.490467340E-1,-1.000262350E-1
9.586102480E0,6.983511448E-1,-1.725643575E-1,-8.780929446E-2
9.595255449E0,6.003101468E-1,-1.696628332E-1,-7.742489129E-2
9.604408365E0,5.239542127E-1,-1.769929975E-1,-6.688777357E-2
9.613561282E0,4.671454430E-1,-2.342599183E-1,-5.818320066E-2
9.622714199E0,4.103366435E-1,-2.994678617E-1,-4.688252881E-2
9.631867115E0,3.651339412E-1,-3.573456407E-1,-2.764083818E-2
9.641020032E0,3.171824515E-1,-3.897205591E-1,-4.581354442E-4
9.650172949E0,2.608317733E-1,-3.807105422E-1,2.473931387E-2
9.659325865E0,1.994416267E-1,-3.487937748E-1,4.199574888E-2
9.668478782E0,1.369825006E-1,-3.223746419E-1,5.436540768E-2
9.677631699E0,7.330167294E-2,-3.092414141E-1,6.856760383E-2
9.686784667E0,1.649287529E-2,-3.074088693E-1,8.154810965E-2
9.695937584E0,-3.390202299E-2,-3.122956753E-1,9.162709117E-2
9.705090501E0,-8.276980370E-2,-2.965663373E-1,9.987352788E-2
9.714243417E0,-1.201841980E-1,-2.564031482E-1,1.007898003E-1
9.723396334E0,-1.488940120E-1,-2.058555335E-1,9.804098308E-2
9.732549251E0,-1.782146841E-1,-1.672194302E-1,1.015533581E-1
9.741702167E0,-2.038702667E-1,-1.389677525E-1,1.110214889E-1
9.750855084E0,-2.312056869E-1,-1.322484314E-1,1.291942000E-1
9.760008001E0,-2.614426315E-1,-1.322484314E-1,1.510319859E-1
9.769160917E0,-2.962609231E-1,-1.093416587E-1,1.684411317E-1
9.778313834E0,-3.355078697E-1,-6.536065787E-2,1.797417998E-1
9.787466803E0,-3.672719002E-1,-2.321219631E-2,1.818797737E-1
9.796619719E0,-3.848337829E-1,6.261184346E-3,1.737860441E-1
9.805772636E0,-3.976615667E-1,1.221694518E-2,1.565296054E-1
9.814925553E0,-4.239279926E-1,-1.496575773E-2,1.349972486E-1
9.824078469E0,-4.549284875E-1,-3.924693540E-2,1.134648770E-1
9.833231386E0,-4.888305068E-1,-4.001049697E-2,9.437590092E-2
9.842384303E0,-5.253286362E-1,-2.015795931E-2,8.185353130E-2
9.851537219E0,-5.606050491E-1,5.650337320E-3,7.482878864E-2
9.860690188E0,-5.946598053E-1,2.122694254E-2,7.650861889E-2
9.869843105E0,-6.325323582E-1,4.291202128E-2,8.475505561E-2
9.878996021E0,-6.778877378E-1,7.360709459E-2,9.773556143E-2
9.888148938E0,-7.207997441E-1,1.192679256E-1,1.072036922E-1
9.897301855E0,-7.316423059E-1,1.663031727E-1,9.300149232E-2
9.906454771E0,-6.716265678E-1,2.211267054E-1,5.375456065E-2
9.915607688E0,-4.978405237E-1,2.728960216E-1,-2.260134928E-2
9.924747844E0,-2.440334857E-1,3.225273490E-1,-8.551861346E-2
9.933913521E0,1.038440317E-2,3.367295563E-1,-8.506047726E-2
9.943066490E0,1.896680743E-1,2.377723008E-1,-1.527118124E-2
9.952206646E0,2.860292196E-1,-3.344388679E-2,6.673506647E-2
9.961372324E0,3.188622594E-1,-3.747547865E-1,1.424801201E-1
9.970525240E0,2.718270421E-1,-5.114318728E-1,1.904316396E-1
9.979665396E0,1.586675793E-1,-2.363978922E-1,1.673721522E-1
9.988831074E0,6.826218218E-2,2.680092454E-1,6.688777357E-2
9.997983990E0,2.000524849E-2,6.780404449E-1,-2.901524492E-2
1.000712420E1,-1.186570823E-1,8.964183331E-1,-6.001574174E-2
1.001628982E1,-3.695625961E-1,8.984035850E-1,-5.329642445E-2
1.002544279E1,-5.317425132E-1,6.693359017E-1,-2.443389036E-3
1.003458295E1,-4.659237564E-1,2.962609231E-1,1.125486046E-1
1.004374863E1,-3.086305857E-1,-1.679830020E-3,2.764083743E-1
1.005290154E1,-3.063398898E-1,6.230641901E-2,4.497362971E-1
1.006204170E1,-4.747810364E-1,2.516690791E-1,5.674771070E-1
1.007120738E1,-6.085565686E-1,1.218640283E-1,5.543438792E-1
1.008036029E1,-7.576032877E-1,-1.337755471E-1,4.491254389E-1
1.008950050E1,-9.471186996E-1,-2.119639963E-1,3.868190348E-1
1.009866618E1,-9.929322004E-1,-2.011214644E-1,4.207210541E-1
1.010781909E1,-9.549070001E-1,-1.392731816E-1,4.672981501E-1
1.011695925E1,-9.817842841E-1,-9.895725548E-2,4.737120569E-1
1.012612493E1,-9.202414155E-1,-1.065928489E-1,5.157077909E-1
1.013527784E1,-7.418739796E-1,-1.143811494E-1,6.171084642E-1
1.014443076E1,-5.867187977E-1,-1.890572309E-1,7.007945180E-1
1.015358368E1,-4.824166298E-1,-2.996205688E-1,7.296570539E-1
1.016273659E1,-3.933856487E-1,-3.834593594E-1,6.894938350E-1
1.017187680E1,-3.413109183E-1,-4.308000207E-1,5.657972693E-1
1.018104248E1,-3.191677034E-1,-5.363239050E-1,3.920112252E-1
1.019019540E1,-3.229855001E-1,-6.164975762E-1,2.498365343E-1
1.019933555E1,-3.613161445E-1,-5.302154422E-1,1.261399537E-1
1.020850123E1,-4.020902216E-1,-3.269560039E-1,1.389677543E-2
1.021765415E1,-4.526378214E-1,-3.206948051E-3,-8.444963396E-2
1.022679430E1,-4.903576374E-1,3.254288733E-1,-1.617218107E-1
1.023595998E1,-5.306735635E-1,5.783196688E-1,-1.977618039E-1
1.024511290E1,-6.050441861E-1,9.035958052E-1,-1.930277348E-1
1.025425310E1,-6.804838181E-1,1.213753462E0,-1.870719790E-1
1.026341878E1,-7.608102560E-1,1.433658481E0,-1.858502775E-1
1.027257170E1,-8.211314082E-1,1.511236072E0,-2.058555335E-1
1.028171186E1,-8.475505710E-1,1.515817523E0,-2.373141646E-1
1.029087753E1,-8.909206986E-1,1.550635815E0,-2.596100867E-1
1.030003045E1,-9.637642503E-1,1.572778940E0,-2.851129472E-1
1.030918336E1,-1.022252917E0,1.552773714E0,-2.721324563E-1
1.031833628E1,-1.066691995E0,1.527729034E0,-1.985253543E-1
1.032748920E1,-1.094791055E0,1.470003963E0,-1.375933439E-1
1.033664217E1,-1.131899953E0,1.349361539E0,-1.346918195E-1
1.034579508E1,-1.241241574E0,1.369214177E0,-1.275143623E-1
1.035494800E1,-1.367228866E0,1.404032469E0,-1.107160673E-1
1.036410092E1,-1.456107140E0,1.404490590E0,-1.247655526E-1
1.037325383E1,-1.510472536E0,1.427091956E0,-1.606528312E-1
1.038240675E1,-1.577360392E0,1.480999231E0,-1.977618039E-1
1.039155967E1,-1.640583038E0,1.476112366E0,-2.220429778E-1
1.040071258E1,-1.702736735E0,1.488940239E0,-2.817533016E-1
1.040986555E1,-1.763821483E0,1.590493560E0,-3.310792148E-1
1.041901847E1,-1.818339586E0,1.612789512E0,-3.126010895E-1
1.042817139E1,-1.870719671E0,1.510472536E0,-2.646495700E-1
1.043732430E1,-1.898055196E0,1.382805467E0,-2.415900975E-1
1.044647722E1,-1.918976665E0,1.194664478E0,-2.623589039E-1
1.045563014E1,-1.912562728E0,9.648332596E-1,-2.999260128E-1
1.046478305E1,-1.906759739E0,7.424848676E-1,-3.449759781E-1
1.047393597E1,-1.934553266E0,5.644228458E-1,-3.987305462E-1
1.048308894E1,-1.935774922E0,4.540122151E-1,-4.382829070E-1
1.049224186E1,-1.907523274E0,3.924693763E-1,-4.582881629E-1
1.050139477E1,-1.891793966E0,3.773508966E-1,-4.727957845E-1
1.051054769E1,-1.931346297E0,3.356605768E-1,-4.992149174E-1
1.051970060E1,-1.960208893E0,2.596100867E-1,-5.312843919E-1
1.052885352E1,-1.985253572E0,1.887518018E-1,-5.746545792E-1
1.053800644E1,-1.988613248E0,1.693574041E-1,-6.369609833E-1
1.054715936E1,-1.944784999E0,1.334701329E-1,-7.105680704E-1
1.055631227E1,-1.852241635E0,1.649287529E-2,-7.598940134E-1
1.056546524E1,-1.745801449E0,-1.175880954E-1,-7.589777112E-1
1.057461816E1,-1.633405566E0,-2.125748396E-1,-7.324058414E-1
1.058375831E1,-1.509250879E0,-2.683146596E-1,-6.986565590E-1
1.059292399E1,-1.368297815E0,-2.547233105E-1,-6.725428104E-1
1.060207691E1,-1.215891480E0,-1.152974218E-1,-6.942279339E-1
1.061121706E1,-1.054169655E0,7.284353673E-2,-7.127060294E-1
1.062038274E1,-8.293778896E-1,1.511846930E-1,-6.671979427E-1
1.062953566E1,-4.840964675E-1,8.933641016E-2,-5.822901726E-1
1.063867587E1,-4.214845970E-2,-1.985253580E-2,-4.850127101E-1
1.064784154E1,4.384356141E-1,-2.591519356E-1,-3.849864900E-1
1.065699446E1,9.752176404E-1,-4.254551232E-1,-3.023693860E-1
1.066613462E1,1.507265568E0,-4.825693369E-1,-3.272614181E-1
1.067530029E1,1.934553266E0,-4.588989913E-1,-4.506525695E-1
1.068445321E1,2.265021563E0,-2.409792393E-1,-4.845545888E-1
1.069359336E1,2.514858246E0,-2.580829561E-1,-3.495573401E-1
1.070275904E1,2.714299679E0,-5.215108395E-1,-1.484358907E-1
1.071191201E1,2.878464937E0,-6.549809575E-1,5.253286287E-2
1.072105217E1,3.012698650E0,-5.757235289E-1,2.305948436E-1
1.073021784E1,3.093941450E0,-4.314108789E-1,3.978142738E-1
1.073937076E1,3.138075113E0,-3.946073353E-1,5.305208564E-1
1.074851092E1,3.204657316E0,-6.418477297E-1,6.264238358E-1
1.075767659E1,3.281013250E0,-1.165802002E0,6.890357137E-1
1.076682951E1,3.305905342E0,-1.685022116E0,7.287407517E-1
1.077598248E1,3.290023327E0,-1.925390601E0,7.459971905E-1
1.078513540E1,3.279791594E0,-1.940050840E0,7.024743557E-1
1.079428831E1,3.275973797E0,-1.811009407E0,6.082511544E-1
1.080342847E1,3.302545786E0,-1.637070656E0,5.112791657E-1
1.081259415E1,3.349428177E0,-1.390899181E0,4.277457893E-1
1.082174706E1,3.364088535E0,-9.252808690E-1,3.926220834E-1
1.083088727E1,3.292772055E0,-3.393256664E-1,4.216373265E-1
1.084005295E1,3.163119793E0,2.244863659E-1,4.587462842E-1
1.084920586E1,3.079586506E0,5.812211633E-1,4.995203316E-1
1.085834602E1,3.028428078E0,6.380299330E-1,5.448757410E-1
1.086751170E1,2.969786644E0,5.633538961E-1,5.793886185E-1
1.087666462E1,2.932830334E0,3.959817290E-1,6.358919740E-1
1.088581753E1,2.941229582E0,1.039967462E-1,7.059867382E-1
1.089497045E1,2.967801332E0,-2.634278834E-1,7.368345261E-1
1.090412342E1,2.943825722E0,-6.221479177E-1,7.296570539E-1
1.091326357E1,2.870829344E0,-8.979454637E-1,6.371136904E-1
1.092242925E1,2.734152317E0,-1.065623045E0,4.970769584E-1
1.093158217E1,2.535016060E0,-1.108687758E0,3.460449576E-1
1.094072232E1,2.295563936E0,-1.111283898E0,2.392994165E-1
1.094988800E1,2.052752256E0,-1.136023164E0,1.710372269E-1
1.095904092E1,1.833305359E0,-1.188403368E0,1.104106456E-1
1.096818113E1,1.606986403E0,-1.219098449E0,6.169557199E-2
1.097734680E1,1.367534280E0,-1.243226886E0,2.519745007E-2
1.098649972E1,1.116934180E0,-1.269493341E0,3.359660041E-3
1.099565264E1,8.767185211E-1,-1.283237338E0,9.620844387E-3
1.100480555E1,6.407787800E-1,-1.247960925E0,3.588727489E-2
1.101395847E1,3.848337829E-1,-1.104717255E0,6.398624927E-2
1.102309868E1,1.030804738E-1,-8.936695457E-1,7.406523079E-2
1.103226436E1,-1.918060333E-1,-6.494833231E-1,7.482878864E-2
1.104141727E1,-4.734066129E-1,-3.715478480E-1,7.146912813E-2
1.105055743E1,-7.426375747E-1,-4.764608666E-2,8.032641560E-2
1.105972311E1,-9.929322004E-1,2.925958335E-1,1.233911440E-1
1.106887602E1,-1.179087877E0,5.317425132E-1,1.989834905E-1
1.107801618E1,-1.267813444E0,5.734328628E-1,2.635805905E-1
1.108718186E1,-1.267966151E0,4.254551232E-1,3.174878657E-1
1.109633482E1,-1.225817680E0,1.592784226E-1,3.704788685E-1
1.110547498E1,-1.191763043E0,-9.055810422E-2,4.100312293E-1
1.111464066E1,-1.120446563E0,-2.574721277E-1,3.825430870E-1
1.112379357E1,-8.858812451E-1,-9.849911928E-2,2.643441558E-1
1.113293373E1,-6.326850653E-1,6.152759194E-1,8.735115826E-2
1.114209941E1,-6.126797795E-1,1.195275426E0,-2.229592577E-2
1.115125238E1,-6.015318632E-1,4.895940721E-1,-1.679829881E-2
1.116039253E1,-6.534538269E-1,-1.423426867E0,7.223268598E-2
1.116955821E1,-1.106855273E0,-2.144226551E0,3.773508966E-1
1.117871113E1,-1.520551562E0,-9.333745837E-1,7.588250041E-1
1.118785128E1,-1.608819008E0,2.023431510E-1,9.124531150E-1
1.119701696E1,-1.688839912E0,9.130639434E-1,8.588512540E-1
1.120616988E1,-1.705485582E0,1.043937922E0,7.243121266E-1
1.121532284E1,-1.471683741E0,5.691569448E-1,6.383354068E-1
1.122447576E1,-1.478861213E0,2.278460264E-1,6.018372774E-1
1.123362868E1,-1.677844763E0,1.537808031E-1,5.529694557E-1
1.124276883E1,-1.673110604E0,1.230857223E-1,5.395308137E-1
1.125193451E1,-1.594158649E0,1.070509851E-1,5.688515306E-1
1.126108743E1,-1.525896430E0,1.072036922E-1,5.796940327E-1
1.127024034E1,-1.451678514E0,3.955236077E-2,5.241069198E-1
1.127939331E1,-1.387386799E0,-8.047912270E-2,4.194993675E-1
1.128854623E1,-1.300493836E0,-2.302894145E-1,3.225273490E-1
1.129768639E1,-1.234369636E0,-3.484883606E-1,2.565558553E-1
1.130685206E1,-1.235591292E0,-3.258870244E-1,1.850867122E-1
1.131600498E1,-1.260483265E0,-2.461714447E-1,8.170082420E-2
1.132515790E1,-1.269951463E0,-1.038440317E-1,-2.779355086E-2
1.133431086E1,-1.291178346E0,1.020114943E-1,-9.590301663E-2
1.134346378E1,-1.340962410E0,3.755183518E-1,-1.043021679E-1
1.135260394E1,-1.393189907E0,6.038225293E-1,-7.620319724E-2
1.136176962E1,-1.433658481E0,8.347227573E-1,-3.878879920E-2
1.137092253E1,-1.460993886E0,1.080588818E0,-3.115320951E-2
1.138006269E1,-1.451220393E0,1.226275921E0,-4.413371533E-2
1.138922837E1,-1.443737507E0,1.377002478E0,-5.451811850E-2
1.139838128E1,-1.473516345E0,1.532921195E0,-7.131642103E-2
1.140753425E1,-1.518260837E0,1.651578307E0,-6.077930331E-2
1.141668717E1,-1.559493065E0,1.757102132E0,-3.542914242E-2
1.142584008E1,-1.566823244E0,1.818645000E0,-1.542389300E-2
1.143499300E1,-1.564837933E0,1.852547050E0,1.206423342E-2
1.144414592E1,-1.577818513E0,1.767639279E0,6.200099736E-2
1.145329883E1,-1.608819008E0,1.613705754E0,1.377460510E-1
1.146243904E1,-1.702125907E0,1.476265073E0,1.725643575E-1
1.147160472E1,-1.745190620E0,1.273158431E0,1.766875684E-1
1.148075764E1,-1.757254839E0,1.029735804E0,1.725643575E-1
1.148991055E1,-1.796501756E0,8.669449687E-1,1.577513069E-1
1.149906347E1,-1.829182148E0,7.617265582E-1,1.123958975E-1
1.150821639E1,-1.837886691E0,6.445965767E-1,5.253286287E-2
1.151736930E1,-1.828418612E0,5.799994469E-1,-3.512371797E-3
1.152652227E1,-1.816965222E0,6.453601122E-1,-7.437065244E-2
1.153567519E1,-1.836359620E0,7.084301114E-1,-1.411057115E-1
1.154481534E1,-1.881562233E0,7.502731681E-1,-1.835595965E-1
1.155398102E1,-1.926306844E0,8.139539957E-1,-2.296785712E-1
1.156313394E1,-1.904163599E0,9.203941226E-1,-2.997733057E-1
1.157228686E1,-1.837886691E0,1.099525094E0,-4.326325655E-1
1.158143977E1,-1.801235914E0,1.210393786E0,-6.010736823E-1
1.159059274E1,-1.815285325E0,1.182752967E0,-7.470661998E-1
1.159973290E1,-1.795585513E0,1.098608851E0,-8.463288546E-1
1.160889857E1,-1.705943704E0,1.024390817E0,-9.078717232E-1
1.161805149E1,-1.574458838E0,9.527690411E-1,-9.552124143E-1
1.162720441E1,-1.436712742E0,7.997517586E-1,-9.834640622E-1
1.163635732E1,-1.301715493E0,5.806103349E-1,-9.762866497E-1
1.164551029E1,-1.151599765E0,3.290939629E-1,-9.500201941E-1
1.165466321E1,-9.978190064E-1,1.456870735E-1,-9.145910740E-1
1.166381613E1,-8.851176500E-1,2.596100792E-3,-8.721371889E-1
1.167296904E1,-8.145648241E-1,-1.218640283E-1,-8.208259940E-1
1.168212196E1,-7.498149872E-1,-1.637070626E-1,-7.623373866E-1
1.169127488E1,-6.358919740E-1,-3.436015919E-2,-7.169819474E-1
1.170042784E1,-5.042544007E-1,1.299577504E-1,-6.862868667E-1
1.170956800E1,-3.324536085E-1,1.766875684E-1,-6.325323582E-1
1.171873368E1,-9.468132630E-3,1.998997629E-1,-5.381564498E-1
1.172788659E1,5.021164417E-1,2.867927849E-1,-4.124746025E-1
1.173703951E1,1.083643079E0,2.122694254E-1,-3.106158376E-1
1.174619243E1,1.623021126E0,-6.291726977E-2,-3.206948042E-1
1.175534540E1,1.987849712E0,-3.084778786E-1,-3.855973184E-1
1.176448555E1,2.171103954E0,-4.043808877E-1,-3.556658030E-1
1.177365123E1,2.270366669E0,-5.141806602E-1,-2.632751763E-1
1.178280415E1,2.386274815E0,-5.303681493E-1,-1.255291104E-1
1.179195706E1,2.549065590E0,-5.630484819E-1,9.162709117E-2
1.180110998E1,2.776148081E0,-7.750124335E-1,3.506263196E-1
1.181026290E1,3.073783398E0,-1.287818789E0,5.557183027E-1
1.181940311E1,3.372793198E0,-1.821088433E0,6.088619828E-1
1.182856878E1,3.496795177E0,-1.930735469E0,5.311316848E-1
1.183772170E1,3.439986229E0,-1.794058442E0,3.981196880E-1
1.184687462E1,3.318733215E0,-1.668834686E0,2.725905776E-1
1.185602753E1,3.267574787E0,-1.573848009E0,2.000524700E-1
1.186518050E1,3.341181755E0,-1.510625243E0,1.682884246E-1
1.187432066E1,3.481829405E0,-1.313474298E0,1.495048702E-1
1.188348633E1,3.585215330E0,-8.021951914E-1,1.571404636E-1
1.189263925E1,3.532835007E0,-1.062874198E-1,1.575985998E-1
1.190177941E1,3.345915794E0,4.808894992E-1,1.325538605E-1
1.191094508E1,3.177016497E0,8.336538076E-1,1.043021679E-1
1.192009805E1,3.076226711E0,9.246700406E-1,1.408002973E-1
1.192925097E1,3.093177795E0,7.314895988E-1,1.989834905E-1
1.193840389E1,3.177169323E0,4.876088202E-1,2.101314515E-1
1.194755680E1,3.259633780E0,2.990097404E-1,1.986780763E-1
1.195669696E1,3.306974411E0,1.236965731E-1,1.759240031E-1
1.196586264E1,3.283456802E0,-6.337540597E-2,1.313321590E-1
1.197501561E1,3.219775915E0,-2.925958335E-1,8.704573661E-2
1.198415576E1,3.117000818E0,-4.923428893E-1,3.466558084E-2
1.199332144E1,2.954820871E0,-6.670452356E-1,-1.771457121E-2
1.200247436E1,2.736901045E0,-8.063184023E-1,-8.383878320E-2
1.201161451E1,2.484163046E0,-9.165763259E-1,-1.514901221E-1
1.202078024E1,2.228676319E0,-9.877400398E-1,-2.101314515E-1
1.202993316E1,1.979908705E0,-9.981244206E-1,-2.637332976E-1
1.203907331E1,1.739082098E0,-1.004080176E0,-3.014531136E-1
1.204823899E1,1.492147088E0,-1.012937427E0,-3.293993771E-1
1.205739191E1,1.236660242E0,-1.037524104E0,-3.446705639E-1
1.206653212E1,9.730796814E-1,-1.065012217E0,-3.501681983E-1
1.207569779E1,6.719319820E-1,-1.025765300E0,-3.651339412E-1
1.208485071E1,3.323009014E-1,-8.901571631E-1,-3.461976945E-1
1.209399086E1,4.886778072E-3,-6.939224601E-1,-2.864873707E-1
1.210315654E1,-2.693836391E-1,-4.517215490E-1,-2.073826492E-1
1.211230951E1,-5.152496696E-1,-1.070509851E-1,-7.620319724E-2
1.212146243E1,-7.481352091E-1,2.808370292E-1,9.773556143E-2
1.213061534E1,-9.246700406E-1,5.167768002E-1,2.641914487E-1
1.213976826E1,-1.025307178E0,4.712686539E-1,4.071297050E-1
1.214890842E1,-1.062416077E0,1.624853760E-1,5.097520351E-1
1.215807409E1,-1.064095974E0,-2.518217862E-1,5.935907960E-1
1.216722706E1,-1.021794796E0,-6.714738607E-1,6.522321701E-1
1.217636722E1,-8.356390595E-1,-9.419264793E-1,6.274928451E-1
1.218553290E1,-5.270084739E-1,-6.416950226E-1,4.749337435E-1
1.219468581E1,-3.770454824E-1,4.289674759E-1,2.455606014E-1
1.220382602E1,-5.807630420E-1,1.206117868E0,1.262926757E-1
1.221299170E1,-7.395833135E-1,4.256078303E-1,1.447708011E-1
1.222214462E1,-1.015991688E0,-1.342642307E0,2.350234836E-1
1.223128477E1,-1.356080890E0,-2.171256542E0,4.958552718E-1
1.224045045E1,-1.153585076E0,-1.569877505E0,9.078717232E-1
1.224960336E1,-8.070819378E-1,-3.906368315E-1,1.344169378E0
1.225874357E1,-1.329661727E0,1.189777732E0,1.502989650E0
1.226790925E1,-2.060387850E0,1.684716702E0,1.255749226E0
1.227706217E1,-1.664406061E0,8.990144730E-1,9.567395449E-1
1.228621508E1,-1.475196123E0,2.559449971E-1,8.339592218E-1
1.229536800E1,-1.767181158E0,1.059819981E-1,8.150229454E-1
1.230452092E1,-1.775122166E0,6.276455522E-2,8.832851648E-1
1.231366113E1,-1.595533013E0,8.383878320E-2,9.510892034E-1
1.232282680E1,-1.408002973E0,-5.039489828E-3,9.695672989E-1
1.233197972E1,-1.345849276E0,-1.870719790E-1,9.066500664E-1
1.234111988E1,-1.309961915E0,-4.182776511E-1,7.777612805E-1
1.235028555E1,-1.249182701E0,-6.151232123E-1,6.817055345E-1
1.235943852E1,-1.215127945E0,-6.911736727E-1,6.349757314E-1
1.236857868E1,-1.167634487E0,-7.328640223E-1,5.914528370E-1
1.237774436E1,-1.121668339E0,-7.336275578E-1,5.092939138E-1
1.238689727E1,-1.110978484E0,-6.328377724E-1,3.872771561E-1
1.239603748E1,-1.121210098E0,-5.344913602E-1,2.562504113E-1
1.240520316E1,-1.218182087E0,-2.489202619E-1,1.455343664E-1
1.241435607E1,-1.367381573E0,1.409530044E-1,5.436540768E-2
1.242349623E1,-1.497339368E0,4.811949134E-1,2.214321308E-2
1.243266191E1,-1.566059709E0,7.162184119E-1,7.452336699E-2
1.244181482E1,-1.548192382E0,8.811471462E-1,1.539335102E-1
1.245095503E1,-1.495354056E0,1.084406614E0,2.043284029E-1
1.246012071E1,-1.435796499E0,1.259261608E0,2.057028115E-1
1.246927363E1,-1.406170368E0,1.398534775E0,1.893626451E-1
1.247842654E1,-1.393037200E0,1.514901161E0,2.119639963E-1
1.248757946E1,-1.442363143E0,1.627755284E0,2.640387416E-1
1.249673243E1,-1.544374585E0,1.777107358E0,2.901524603E-1
1.250588534E1,-1.636612535E0,1.924932480E0,2.411319613E-1
1.251503826E1,-1.688076377E0,1.916838646E0,1.863084137E-1
1.252419118E1,-1.697086453E0,1.756338596E0,1.449235082E-1
1.253333133E1,-1.711593986E0,1.550635815E0,7.895200700E-2
1.254249701E1,-1.742136359E0,1.289956689E0,-1.450762246E-2
1.255164998E1,-1.756185889E0,1.030957460E0,-1.163664013E-1
1.256080290E1,-1.754811406E0,8.467870355E-1,-2.028012872E-1
1.256995581E1,-1.732210159E0,8.423583508E-1,-2.771719396E-1
1.257910873E1,-1.688534498E0,9.542961121E-1,-3.379512429E-1
1.258824894E1,-1.664406061E0,1.097539783E0,-3.831539452E-1
1.259741462E1,-1.715717196E0,1.282321095E0,-4.361449480E-1
1.260656753E1,-1.827654958E0,1.570488334E0,-4.950917065E-1
1.261572045E1,-1.896069884E0,1.782910466E0,-5.282301903E-1
1.262487337E1,-1.891793966E0,1.872704983E0,-5.447230339E-1
1.263402628E1,-1.844453335E0,1.905690789E0,-5.877877474E-1
1.264316649E1,-1.814216375E0,1.866291046E0,-6.705575585E-1
1.265233217E1,-1.800930381E0,1.802762985E0,-7.687512636E-1
1.266148508E1,-1.764890432E0,1.668681979E0,-8.385405540E-1
1.267063800E1,-1.646080613E0,1.419456363E0,-8.498412371E-1
1.267979092E1,-1.514595747E0,1.039356589E0,-8.565605879E-1
1.268894383E1,-1.440988660E0,5.995466113E-1,-8.605310917E-1
1.269809680E1,-1.419914484E0,2.918322682E-1,-8.309049606E-1
1.270724972E1,-1.372726560E0,1.780619770E-1,-7.846332788E-1
1.271640264E1,-1.291636586E0,1.188097894E-1,-7.485933304E-1
1.272555555E1,-1.212379098E0,6.413896382E-2,-7.157602906E-1
1.273470852E1,-1.171757698E0,-9.055810422E-2,-6.774296165E-1
1.274386144E1,-1.139230132E0,-2.892361879E-1,-6.496360302E-1
1.275300159E1,-1.092347622E0,-4.523324072E-1,-6.326850653E-1
1.276216727E1,-1.048672080E0,-5.227325559E-1,-6.102364063E-1
1.277132019E1,-1.015228152E0,-4.147652984E-1,-6.004628539E-1
1.278047310E1,-9.733850956E-1,-1.887518018E-1,-6.123743653E-1
1.278962607E1,-8.968765140E-1,2.229592577E-2,-6.163448691E-1
1.279877899E1,-7.487460375E-1,1.962346882E-1,-5.824428797E-1
1.280791915E1,-5.364766121E-1,2.582356930E-1,-5.076140761E-1
1.281708482E1,-2.901524603E-1,1.531699449E-1,-3.678827584E-1
1.282623774E1,1.863084175E-2,-1.068982761E-3,-1.812689304E-1
1.283539071E1,4.263713956E-1,-2.565558553E-1,-1.756185852E-2
1.284454363E1,9.527690411E-1,-6.531484127E-1,7.986827940E-2
1.285369654E1,1.563310862E0,-1.042410851E0,1.137702987E-1
1.286283670E1,2.177975893E0,-1.265064716E0,8.903098851E-2
1.287200238E1,2.716437817E0,-1.262163162E0,1.832541823E-2
1.288115534E1,3.084931374E0,-1.027903199E0,-2.015795931E-2
1.289029550E1,3.312319279E0,-7.597413063E-1,2.702999115E-2
1.289946118E1,3.465031147E0,-7.725690603E-1,8.735115826E-2
1.290861409E1,3.596974134E0,-1.032942772E0,1.647760421E-1
1.291775430E1,3.663098335E0,-1.319124699E0,3.003841341E-1
1.292691998E1,3.659433126E0,-1.528950691E0,4.416425824E-1
1.293607290E1,3.643703938E0,-1.603932142E0,5.435013771E-1
1.294522581E1,3.619117260E0,-1.557355046E0,5.751127005E-1
1.295437873E1,3.583382845E0,-1.345543742E0,5.514423847E-1
1.296353165E1,3.558948755E0,-1.075702071E0,5.193728805E-1
1.297268462E1,3.602319002E0,-8.816053271E-1,5.024218559E-1
1.298183753E1,3.719907045E0,-7.863131166E-1,4.824166298E-1
1.299099045E1,3.878880024E0,-6.963658929E-1,4.468347728E-1
1.300013060E1,4.013724804E0,-5.131117105E-1,3.920112252E-1
1.300929628E1,4.038616657E0,-2.055501044E-1,2.930539846E-1
1.301844925E1,3.923624754E0,1.469087601E-1,1.803526580E-1
1.302758941E1,3.712882280E0,4.506525695E-1,1.229330078E-1
1.303675508E1,3.520770788E0,6.239804626E-1,1.580567211E-1
1.304590800E1,3.401502848E0,6.230642200E-1,2.568612695E-1
1.305506092E1,3.348970175E0,5.227325559E-1,3.414636254E-1
1.306421389E1,3.302851200E0,4.286620617E-1,3.564293683E-1
1.307336680E1,3.248791218E0,2.916795611E-1,3.312319219E-1
1.308250696E1,3.187095642E0,8.658760041E-2,3.107685447E-1
1.309167264E1,3.099133492E0,-2.021904439E-1,2.962609231E-1
1.310082560E1,2.967801332E0,-5.291464329E-1,2.722851634E-1
1.310996576E1,2.820587158E0,-8.121214509E-1,2.391466945E-1
1.311913144E1,2.649091959E0,-9.944593310E-1,2.093679011E-1
1.312828436E1,2.445068836E0,-1.095096469E0,1.597365588E-1
1.313742451E1,2.235090017E0,-1.154806733E0,9.055810422E-2
1.314659019E1,2.008465767E0,-1.163816690E0,3.955236077E-2
1.315574316E1,1.769013643E0,-1.119683027E0,1.023169141E-2
1.316489607E1,1.526354551E0,-1.061652541E0,-1.160609815E-2
1.317404899E1,1.281710267E0,-9.964445829E-1,-1.588202827E-2
1.318320191E1,1.022863746E0,-9.292513728E-1,-1.466033421E-2
1.319234212E1,7.446228266E-1,-8.489249945E-1,1.084253844E-2
1.320150779E1,4.421007037E-1,-7.221741676E-1,1.221694518E-2
1.321066071E1,1.404948682E-1,-5.409052372E-1,-1.145338640E-2
1.321980087E1,-1.673721522E-1,-2.834331393E-1,-4.795150831E-2
1.322896654E1,-4.416425824E-1,-7.635590737E-4,-6.719319522E-2
1.323811951E1,-6.500942111E-1,2.677038014E-1,-2.428117767E-2
1.324727243E1,-7.867712975E-1,4.895940721E-1,4.734066129E-2
1.325642534E1,-8.550334573E-1,5.741963983E-1,1.328592747E-1
1.326557826E1,-8.608365059E-1,4.949389994E-1,2.293731421E-1
1.327471847E1,-7.560762167E-1,2.544178963E-1,3.072561622E-1
1.328388415E1,-4.831801951E-1,-8.735115826E-2,3.251234591E-1
1.329303706E1,-2.527380586E-1,-3.962871730E-1,2.562504113E-1
1.330217722E1,-2.379250079E-1,-4.804313779E-1,1.525591016E-1
1.331134290E1,-3.840702176E-1,-4.537068009E-1,1.032331884E-1
1.332049581E1,-5.537330508E-1,-3.871244490E-1,1.203369126E-1
1.332963602E1,-6.923953891E-1,-2.009687424E-1,1.626380831E-1
1.333880170E1,-8.999307156E-1,1.864611208E-1,2.243336588E-1
1.334795462E1,-1.273005724E0,5.073086619E-1,3.087832928E-1
1.335709477E1,-1.557355046E0,3.576510847E-1,3.753656447E-1
1.336626050E1,-1.449082375E0,-1.128540337E-1,3.477247953E-1
1.337541342E1,-1.063485026E0,-2.689255178E-1,2.064663768E-1
1.338455357E1,-7.576032877E-1,-1.575985998E-1,4.367557913E-2
1.339371925E1,-8.330429196E-1,-2.840439677E-1,-5.207473040E-2
1.340287217E1,-1.239256382E0,-4.579827189E-1,1.298050396E-2
1.341201238E1,-1.509403586E0,-3.733803928E-1,3.052709103E-1
1.342117805E1,-1.463895440E0,2.748812735E-2,6.583406329E-1
1.343033097E1,-1.483442545E0,6.814001203E-1,8.593093753E-1
1.343947113E1,-1.449082375E0,8.984035850E-1,8.684720993E-1
1.344863680E1,-1.307976723E0,5.900784731E-1,8.464815617E-1
1.345778977E1,-1.254680276E0,2.116585821E-1,8.350282311E-1
1.346692993E1,-1.201078415E0,-4.428642802E-3,8.641961813E-1
1.347609561E1,-1.122737288E0,3.268032894E-2,9.068027735E-1
1.348524852E1,-1.114338160E0,2.519744933E-1,9.263498783E-1
1.349438868E1,-1.143200636E0,3.791834414E-1,9.297095537E-1
1.350355441E1,-1.178629756E0,2.867927849E-1,9.167290330E-1
1.351270732E1,-1.190083146E0,6.001574174E-2,8.788564801E-1
1.352186024E1,-1.181225896E0,-8.826743066E-2,8.315158486E-1
1.353101316E1,-1.171299577E0,-1.850867122E-1,7.400414348E-1
1.354016607E1,-1.099525094E0,-3.639122546E-1,5.922164321E-1
1.354930628E1,-1.012173891E0,-5.499152541E-1,4.512633979E-1
1.355847196E1,-9.691091776E-1,-6.250494719E-1,3.484883606E-1
1.356762488E1,-9.494093657E-1,-5.276193023E-1,2.666348219E-1
1.357676503E1,-9.410101771E-1,-3.223746419E-1,2.092151791E-1
1.358593071E1,-9.547542930E-1,-7.177454978E-2,1.606528312E-1
1.359508368E1,-9.868237376E-1,1.653869003E-1,1.072036922E-1
1.360423659E1,-9.877400398E-1,3.710896969E-1,3.436015919E-2
1.361338951E1,-9.500201941E-1,4.660764635E-1,-4.245388508E-2
1.362254243E1,-9.359707236E-1,5.080721974E-1,-9.483403713E-2
1.363169534E1,-9.912523627E-1,6.456655264E-1,-1.649287641E-1
1.364084831E1,-1.066997409E0,8.857285380E-1,-2.493783981E-1
1.365000123E1,-1.130831003E0,1.110062122E0,-3.184041381E-1
1.365915415E1,-1.202452779E0,1.289345860E0,-3.800997138E-1
1.366830706E1,-1.269493341E0,1.417471051E0,-4.074351192E-1
1.367746003E1,-1.332105160E0,1.533684731E0,-3.891097009E-1
1.368661295E1,-1.373490095E0,1.655548811E0,-3.381039500E-1
1.369576586E1,-1.354095697E0,1.671583533E0,-2.825168669E-1
1.370491878E1,-1.298203111E0,1.648982167E0,-2.197522968E-1
1.371405894E1,-1.291789293E0,1.677997470E0,-1.714953631E-1
1.372322462E1,-1.308129430E0,1.619203329E0,-1.294996142E-1
1.373237758E1,-1.276976228E0,1.424037695E0,-8.383878320E-2
1.374153050E1,-1.280794024E0,1.344169378E0,-6.062658876E-2
1.375068342E1,-1.322331548E0,1.303089857E0,-5.787777901E-2
1.375983633E1,-1.349667072E0,1.273463845E0,-8.124268800E-2
1.376898925E1,-1.367076159E0,1.295454383E0,-1.101052165E-1
1.377814222E1,-1.388761282E0,1.318971992E0,-1.359135211E-1
1.378729514E1,-1.422052383E0,1.336839199E0,-1.672194302E-1
1.379644805E1,-1.441904902E0,1.302937150E0,-1.930277348E-1
1.380560097E1,-1.405864954E0,1.277587056E0,-2.171562016E-1
1.381475389E1,-1.385096192E0,1.303548098E0,-2.324273884E-1
1.382390686E1,-1.388303161E0,1.311947227E0,-2.244863659E-1
1.383305977E1,-1.439614296E0,1.389677525E0,-2.188360244E-1
1.384221269E1,-1.464200854E0,1.466644287E0,-2.397575527E-1
1.385135284E1,-1.387997627E0,1.380362034E0,-2.721324563E-1
1.386051857E1,-1.341267824E0,1.268882513E0,-3.089359999E-1
1.386967149E1,-1.332563281E0,1.132052660E0,-3.436015844E-1
1.387882441E1,-1.281557560E0,9.023740888E-1,-3.791834414E-1
1.388797732E1,-1.226886749E0,5.943543911E-1,-4.317162931E-1
1.389713024E1,-1.167176366E0,2.585411072E-1,-4.651601911E-1
1.390628321E1,-1.113727212E0,1.099525020E-2,-4.639385045E-1
1.391543613E1,-1.091584086E0,-6.123743951E-2,-4.619532526E-1
1.392458904E1,-1.057529330E0,-7.375980914E-2,-4.695888162E-1
1.393374196E1,-1.009272337E0,-9.132166207E-2,-4.802786708E-1
1.394289488E1,-9.756757617E-1,-5.268557742E-2,-4.972296655E-1
1.395204784E1,-9.784246087E-1,7.482878864E-3,-5.277720094E-1
1.396120076E1,-9.955283403E-1,1.832541777E-3,-5.737382770E-1
1.397035368E1,-9.721634388E-1,-1.122431830E-1,-6.180247068E-1
1.397950659E1,-1.003011227E0,-1.618745178E-1,-6.536065936E-1
1.398865951E1,-1.112505555E0,-9.712471068E-2,-7.026270628E-1
1.399781248E1,-1.188861489E0,-5.955760833E-3,-7.618792653E-1
1.400696540E1,-1.172368646E0,2.779355086E-2,-8.026533127E-1
1.401610555E1,-1.121668339E0,2.962609194E-2,-8.176190853E-1
1.402527123E1,-1.065470338E0,1.527118147E-3,-7.915053368E-1
1.403442415E1,-9.831586480E-1,-7.895200700E-2,-7.237012982E-1
1.404356436E1,-8.489249945E-1,-1.800472289E-1,-6.171084642E-1
1.405273003E1,-6.558972597E-1,-3.113794029E-1,-4.946335554E-1
1.406188295E1,-4.057552814E-1,-4.953971207E-1,-3.834593594E-1
1.407102310E1,-1.133121699E-1,-7.093463540E-1,-3.116848171E-1
1.408018878E1,2.408265322E-1,-9.008470178E-1,-2.651077211E-1
1.408934175E1,6.792621613E-1,-8.680139780E-1,-2.437280566E-1
1.409848191E1,1.126249671E0,-5.888567567E-1,-2.596100867E-1
1.410764758E1,1.502531528E0,-2.951919436E-1,-3.255815804E-1
1.411680050E1,1.838192105E0,-1.539335102E-1,-4.149180055E-1
1.412594071E1,2.119181871E0,-1.403421611E-1,-4.440859556E-1
1.413510639E1,2.287470341E0,-2.661767006E-1,-3.365768492E-1
1.414425930E1,2.343668222E0,-5.523586273E-1,-1.728697717E-1
1.415339946E1,2.383220673E0,-7.916580439E-1,-1.863084175E-2
1.416256514E1,2.475305796E0,-9.517000318E-1,1.336228400E-1
1.417171810E1,2.660850763E0,-1.158777237E0,2.644968629E-1
1.418085826E1,2.886253357E0,-1.519635320E0,3.585673273E-1
1.419002394E1,3.060344696E0,-1.853005171E0,3.936910629E-1
1.419917686E1,3.146626949E0,-1.980824947E0,3.515425920E-1
1.420831706E1,3.183430433E0,-1.979297876E0,2.620534599E-1
1.421748274E1,3.229396820E0,-1.986169815E0,1.837123185E-1
1.422663566E1,3.264214993E0,-1.916533232E0,1.191152185E-1
1.423577581E1,3.297506332E0,-1.676928401E0,3.558185324E-2
1.424494149E1,3.351108074E0,-1.280641317E0,-5.421269313E-2
1.425409441E1,3.374320269E0,-7.379034758E-1,-1.233911440E-1
1.426323462E1,3.334615231E0,-1.337755471E-1,-1.606528312E-1
1.427240029E1,3.240697384E0,3.849864900E-1,-1.600419879E-1
1.428155321E1,3.121734858E0,7.850914598E-1,-1.299577504E-1
1.429070613E1,3.034536362E0,1.014770031E0,-7.146912813E-2
1.429985909E1,3.018959761E0,1.131899953E0,-5.192201585E-3
1.430901201E1,3.049960375E0,1.138161182E0,6.536065787E-2
1.431815217E1,3.067216873E0,9.799517393E-1,1.339282542E-1
1.432731784E1,3.024762869E0,6.847597957E-1,1.546970755E-1
1.433647076E1,2.932677746E0,2.994678617E-1,1.383569092E-1
1.434561097E1,2.823641539E0,-1.094943732E-1,9.697200358E-2
1.435477665E1,2.710176468E0,-4.405735731E-1,6.215370819E-2
1.436392956E1,2.597169876E0,-6.765133142E-1,3.771981969E-2
1.437306972E1,2.468281031E0,-8.553388715E-1,-1.420219894E-2
1.438223545E1,2.299534559E0,-9.854493141E-1,-8.200624585E-2
1.439138837E1,2.119334459E0,-1.061347127E0,-1.716480851E-1
1.440054128E1,1.938371062E0,-1.128082156E0,-2.247917950E-1
1.440969420E1,1.733126402E0,-1.192984700E0,-2.451024652E-1
1.441884712E1,1.521009684E0,-1.245823026E0,-2.533488870E-1
1.442798732E1,1.278503299E0,-1.230399132E0,-2.244863659E-1
1.443715300E1,1.010799527E0,-1.165649295E0,-1.818797737E-1
1.444630592E1,7.267554998E-1,-1.057376623E0,-1.351499557E-1
1.445544607E1,4.391991794E-1,-9.046648145E-1,-9.269607067E-2
1.446461175E1,1.551551968E-1,-7.230904698E-1,-7.162184268E-2
1.447376472E1,-1.380514801E-1,-4.630222321E-1,-5.619794875E-2
1.448290488E1,-4.188885093E-1,-1.470614821E-1,-3.878879920E-2
1.449207055E1,-6.426113248E-1,1.733279079E-1,8.246437646E-3
1.450122347E1,-7.876875401E-1,4.265241027E-1,1.078145429E-1
1.451036368E1,-8.690829277E-1,5.204418898E-1,2.475458533E-1
1.451952936E1,-8.735115528E-1,4.020902216E-1,3.550549746E-1
1.452868227E1,-8.261709213E-1,1.704263836E-1,4.167505503E-1
1.453782248E1,-7.747070193E-1,-8.842013776E-2,4.605788291E-1
1.454698816E1,-7.857022882E-1,-2.690782249E-1,5.118899941E-1
1.455614107E1,-8.829796910E-1,-3.051182032E-1,5.632011890E-1
1.456528123E1,-1.021336675E0,-2.710634768E-1,5.816792846E-1
1.457444691E1,-1.068830013E0,-1.597365588E-1,5.221216679E-1
1.458359982E1,-9.973608851E-1,2.309002578E-1,4.111002088E-1
1.459274003E1,-9.465078115E-1,7.953231335E-1,3.261924386E-1
1.460190571E1,-8.886300325E-1,7.991409302E-1,3.344388604E-1
1.461105863E1,-6.872031689E-1,-1.163664013E-1,3.842229247E-1
1.462019878E1,-5.468609929E-1,-1.138924718E0,5.161659122E-1
1.462936451E1,-7.522584200E-1,-9.788827300E-1,8.321266770E-1
1.463851743E1,-1.067761064E0,-1.293469071E-1,1.072953224E0
1.464765758E1,-1.264759302E0,2.458660156E-1,1.093263865E0
1.465682326E1,-1.396244168E0,4.955498278E-1,1.052947998E0
1.466597618E1,-1.405712247E0,5.990884304E-1,1.041952729E0
1.467511639E1,-1.355011940E0,4.561502039E-1,1.005149126E0
1.468428206E1,-1.526201844E0,5.389199853E-1,9.298622608E-1
1.469343498E1,-1.714953661E0,6.044333577E-1,8.374716043E-1
1.470257514E1,-1.642415524E0,3.903313875E-1,7.398887277E-1
1.471174087E1,-1.474279881E0,2.215848416E-1,6.887302995E-1
1.472089378E1,-1.400672793E0,1.414111406E-1,6.569662094E-1
1.473004670E1,-1.440988660E0,-2.458660305E-2,6.109999418E-1
1.473919962E1,-1.447097182E0,-1.423274130E-1,5.352548957E-1
1.474835253E1,-1.386317849E0,-2.493783981E-1,4.155288339E-1
1.475750545E1,-1.320346355E0,-3.413109183E-1,2.962609231E-1
1.476665842E1,-1.263995647E0,-3.975088596E-1,2.050919682E-1
1.477581133E1,-1.222916245E0,-4.020902216E-1,1.253764033E-1
1.478496425E1,-1.190541267E0,-3.318427801E-1,4.871506989E-2
1.479411717E1,-1.166718245E0,-2.000524700E-1,-2.886253223E-2
1.480327014E1,-1.174811959E0,5.451811850E-2,-9.376505762E-2
1.481242305E1,-1.209935665E0,3.501681983E-1,-1.430909634E-1
1.482157597E1,-1.248266339E0,6.053496599E-1,-1.997470558E-1
1.483072889E1,-1.278656006E0,7.866185308E-1,-2.507528067E-1
1.483988186E1,-1.293927193E0,9.190196991E-1,-2.704526186E-1
1.484903477E1,-1.247655511E0,9.753703475E-1,-2.365505993E-1
1.485818769E1,-1.203369141E0,1.027292371E0,-2.058555335E-1
1.486734060E1,-1.194817185E0,1.111589313E0,-2.119639963E-1
1.487649352E1,-1.194511771E0,1.160304427E0,-2.455606014E-1
1.488564649E1,-1.180615067E0,1.146254897E0,-3.028275371E-1
1.489479941E1,-1.204132676E0,1.204896212E0,-3.848337829E-1
1.490395232E1,-1.269340634E0,1.361273170E0,-4.715740979E-1
1.491310524E1,-1.322331548E0,1.462673783E0,-5.280774832E-1
1.492225816E1,-1.360356808E0,1.586064935E0,-5.511369109E-1
1.493141113E1,-1.435949206E0,1.705790997E0,-5.657972693E-1
1.494056404E1,-1.540862203E0,1.850409031E0,-5.500679612E-1
1.494971696E1,-1.603626728E0,1.958376288E0,-5.012001991E-1
1.495886988E1,-1.613705754E0,1.948297381E0,-4.445441067E-1
1.496802284E1,-1.608513594E0,1.898513317E0,-3.826957941E-1
1.497716300E1,-1.592631459E0,1.812536478E0,-3.410054743E-1
1.498632868E1,-1.558118701E0,1.670361876E0,-3.223746419E-1
1.499548159E1,-1.537960649E0,1.480082870E0,-3.122956753E-1
1.500463451E1,-1.540251374E0,1.310878277E0,-2.988570333E-1
1.501378748E1,-1.532463074E0,1.248266339E0,-2.651077211E-1
1.502294040E1,-1.505738497E0,1.204590797E0,-2.215848416E-1
1.503209331E1,-1.482526302E0,1.152210593E0,-2.005106062E-1
1.504124623E1,-1.463437319E0,1.071578860E0,-1.850867122E-1
1.505039920E1,-1.451831222E0,1.008356094E0,-1.739387512E-1
1.505955212E1,-1.453969240E0,1.045617819E0,-1.869192570E-1
1.506870503E1,-1.457939744E0,1.094943762E0,-2.205158621E-1
1.507785795E1,-1.430451512E0,1.007439852E0,-2.617480457E-1
1.508701087E1,-1.360356808E0,8.290724158E-1,-2.843494117E-1
1.509616383E1,-1.340962410E0,7.446228266E-1,-3.067980409E-1
1.510531675E1,-1.364021897E0,7.317950130E-1,-3.570402265E-1
1.511446967E1,-1.366770744E0,7.220214605E-1,-4.106420577E-1
1.512362258E1,-1.322331548E0,6.490252018E-1,-4.323271513E-1
1.513277555E1,-1.233300567E0,4.840964675E-1,-4.224008918E-1
1.514192847E1,-1.143047929E0,2.956500649E-1,-4.155288339E-1
1.515108139E1,-1.030957460E0,1.082726792E-1,-4.414898455E-1
1.516023430E1,-9.213103652E-1,-6.704048812E-2,-4.827220440E-1
1.516938727E1,-8.776348233E-1,-2.002051920E-1,-5.054761171E-1
1.517854019E1,-8.764131069E-1,-2.539597452E-1,-5.176930428E-1
1.518769311E1,-8.768712282E-1,-2.713688910E-1,-5.244123936E-1
1.519684602E1,-8.739697337E-1,-2.562504113E-1,-5.213581324E-1
1.520599894E1,-8.674030900E-1,-2.225011140E-1,-5.152496696E-1
1.521515191E1,-8.629744649E-1,-1.659977436E-1,-5.366293192E-1
1.522430482E1,-8.704573512E-1,-6.856760383E-2,-5.836645365E-1
1.523345774E1,-8.788564801E-1,8.368607610E-2,-6.510104537E-1
1.524261066E1,-8.223531246E-1,2.709107697E-1,-7.058340311E-1
1.525175087E1,-6.565080881E-1,3.959817290E-1,-6.850652099E-1
1.526091654E1,-4.008685052E-1,2.692309320E-1,-5.152496696E-1
1.527006946E1,-6.032116711E-2,-1.559187621E-1,-2.725905776E-1
1.527920962E1,3.264978528E-1,-7.745543122E-1,-6.612421572E-2
1.528837529E1,7.165238261E-1,-1.404185176E0,1.160609797E-1
1.529752826E1,1.096776247E0,-1.903705478E0,2.887780368E-1
1.530666842E1,1.462521076E0,-2.176295996E0,3.666610718E-1
1.531583409E1,1.777565479E0,-2.278002024E0,2.841966748E-1
1.532498701E1,2.033205032E0,-2.074895382E0,4.581354558E-2
1.533412722E1,2.221193314E0,-1.513526797E0,-1.395785958E-1
1.534329290E1,2.303352356E0,-8.904625773E-1,-1.485885978E-1
1.535244581E1,2.322441339E0,-5.025745630E-1,-6.810946763E-2
1.536158597E1,2.388412714E0,-4.482091665E-1,9.666658193E-2
1.537075165E1,2.536085129E0,-7.417212725E-1,3.293993771E-1
1.537990462E1,2.738733768E0,-1.245059371E0,5.326588154E-1
1.538904477E1,2.967954159E0,-1.681815267E0,6.120689511E-1
1.539821045E1,3.156553268E0,-1.875148416E0,5.580089688E-1
1.540736336E1,3.240544796E0,-1.893779159E0,4.150707126E-1
1.541650357E1,3.213514805E0,-1.905232549E0,2.542651594E-1
1.542566925E1,3.119444132E0,-2.007702112E0,1.334701329E-1
1.543482217E1,3.021403313E0,-2.046491146E0,8.628217876E-2
1.544396232E1,3.033162117E0,-1.793905735E0,1.162136942E-1
1.545312800E1,3.125400066E0,-1.236202121E0,1.756185889E-1
1.546228097E1,3.138838530E0,-5.346440673E-1,1.979145110E-1
1.547142113E1,3.045837164E0,4.596625641E-2,1.447708011E-1
1.548058680E1,2.913435936E0,3.956763148E-1,8.567132801E-2
1.548973972E1,2.812493563E0,5.334223509E-1,7.070557028E-2
1.549889269E1,2.773399353E0,5.485408306E-1,1.131594554E-1
1.550804561E1,2.788823128E0,5.247178078E-1,1.658450365E-1
1.551719852E1,2.817838430E0,4.184303582E-1,2.241809368E-1
1.552633873E1,2.849144220E0,2.739650011E-1,2.544178963E-1
1.553550436E1,2.845937490E0,1.418692768E-1,2.562504113E-1
1.554465732E1,2.814173222E0,6.291726977E-2,2.483094037E-1
1.555379748E1,2.747743607E0,-2.229592577E-2,2.160872221E-1
1.556296316E1,2.650466204E0,-1.395785958E-1,1.635543555E-1
1.557211613E1,2.532878160E0,-2.695363462E-1,1.200314835E-1
1.558125628E1,2.395742893E0,-4.367557764E-1,9.727742523E-2
1.559042196E1,2.244405508E0,-6.125270724E-1,7.742489129E-2
1.559957488E1,2.089097738E0,-7.369872332E-1,4.703523964E-2
1.560872779E1,1.929513812E0,-7.988355160E-1,2.031067200E-2
1.561788076E1,1.759087443E0,-8.257128000E-1,-8.399149403E-3
1.562703368E1,1.585148692E0,-8.525900841E-1,-4.978405312E-2
1.563617383E1,1.389982939E0,-8.698465228E-1,-7.681404054E-2
1.564533951E1,1.188556075E0,-9.057337642E-1,-6.658235192E-2
1.565449248E1,9.909469485E-1,-9.181034565E-1,-6.978929788E-2
1.566363264E1,7.959339619E-1,-8.823688626E-1,-7.971556485E-2
1.567279831E1,5.971031785E-1,-7.791357040E-1,-1.001789495E-1
1.568195123E1,3.943018913E-1,-6.180247068E-1,-1.127013192E-1
1.569109144E1,1.817270666E-1,-4.324798584E-1,-1.003316641E-1
1.570025712E1,-4.184303805E-2,-2.611372173E-1,-6.658235192E-2
1.570941003E1,-2.542651594E-1,-9.681928903E-2,-2.611372061E-2
1.571856295E1,-4.585935771E-1,7.055285573E-2,9.620844387E-3
1.572771586E1,-6.282563806E-1,2.228065431E-1,2.046338283E-2
1.573686883E1,-7.446228266E-1,3.523061574E-1,2.687728032E-2
1.574602175E1,-8.173136115E-1,4.051444530E-1,4.107947648E-2
1.575517467E1,-8.496885300E-1,3.558185399E-1,5.482354015E-2
1.576432758E1,-8.452599049E-1,2.087570578E-1,7.391251624E-2
1.577348055E1,-8.057075143E-1,-3.145863488E-2,1.055238619E-1
1.578263347E1,-7.655443549E-1,-2.722851634E-1,1.505738497E-1
1.579178639E1,-7.661551833E-1,-3.697153032E-1,2.037175596E-1
1.580093930E1,-8.354863524E-1,-2.339545041E-1,2.605263591E-1
1.581009227E1,-9.301676750E-1,1.130067464E-2,3.005368412E-1
1.581924519E1,-8.944330812E-1,2.215848416E-1,2.988570333E-1
1.582838534E1,-6.927008033E-1,5.044071078E-1,2.481566966E-1
1.583755102E1,-3.933856487E-1,6.299362183E-1,1.879882365E-1
1.584670394E1,6.658235192E-2,1.047603041E-1,2.295258641E-1
1.585584415E1,5.128062963E-1,-9.501729012E-1,2.528907657E-1
1.586500982E1,2.428117841E-1,-1.201078415E0,3.361186981E-1
1.587416274E1,-6.592568755E-1,-1.375933439E-1,5.065450668E-1
1.588330290E1,-1.325385809E0,3.762819171E-1,5.925218463E-1
1.589246863E1,-1.435185671E0,-3.817795310E-3,6.562026739E-1
1.590162154E1,-1.300188422E0,-1.882936656E-1,7.513421178E-1
1.591076170E1,-1.158471823E0,-9.239064902E-2,8.699992299E-1
1.591992738E1,-1.216807723E0,3.350497186E-1,9.439117312E-1
1.592908034E1,-1.416096687E0,5.480827093E-1,9.513946176E-1
1.593822050E1,-1.421594262E0,1.806580722E-1,8.356390595E-1
1.594738618E1,-1.245517612E0,-3.271087110E-1,6.668924689E-1
1.595653909E1,-1.108993173E0,-5.798467398E-1,5.366293192E-1
1.596567930E1,-1.123653531E0,-4.993676245E-1,4.749337435E-1
1.597484498E1,-1.212073684E0,-2.518217862E-1,4.666872919E-1
1.598399790E1,-1.219098449E0,-9.819369763E-2,4.885250926E-1
1.599313805E1,-1.177102685E0,1.893626526E-2,5.002838969E-1
1.600230373E1,-1.173743010E0,1.615691036E-1,4.501944184E-1
1.601145670E1,-1.149156451E0,2.177670449E-1,3.477247953E-1
1.602059686E1,-1.082879424E0,1.655396074E-1,2.206685692E-1
1.602976253E1,-1.026834249E0,8.628217876E-2,9.345962852E-2
1.603891545E1,-1.013701081E0,5.329642445E-2,-2.611372061E-2
1.604806842E1,-1.007592559E0,3.542914242E-2,-1.304158866E-1
1.605722133E1,-1.010494113E0,1.255291104E-1,-1.995943487E-1
1.606637425E1,-1.028361320E0,2.736595869E-1,-2.272351831E-1
1.607552717E1,-1.040272832E0,4.428642690E-1,-2.402156889E-1
1.608468008E1,-1.066081166E0,7.085828185E-1,-2.388412803E-1
1.609383305E1,-1.070204377E0,8.840487003E-1,-2.053973973E-1
1.610298597E1,-1.039051175E0,9.723161459E-1,-1.667613089E-1
1.611213889E1,-1.023169160E0,9.747595191E-1,-1.490467340E-1
1.612129180E1,-1.073716760E0,1.153890491E0,-2.392994165E-1
1.613044477E1,-1.056307673E0,1.150225401E0,-2.709107697E-1
1.613959769E1,-1.055544019E0,1.205659747E0,-2.531961799E-1
1.614875060E1,-1.039051175E0,1.218945742E0,-2.426590770E-1
1.615790352E1,-1.057987452E0,1.261857748E0,-2.415900975E-1
1.616705649E1,-1.113879919E0,1.323706031E0,-2.444916219E-1
1.617620941E1,-1.181989431E0,1.423121452E0,-2.383831441E-1
1.618536232E1,-1.255901933E0,1.539335132E0,-2.279987335E-1
1.619451524E1,-1.324469566E0,1.556133389E0,-2.082989216E-1
1.620366816E1,-1.371046662E0,1.507265568E0,-1.798945218E-1
1.621282113E1,-1.369519591E0,1.394869685E0,-1.345391124E-1
1.622197404E1,-1.334701300E0,1.251778722E0,-6.765133142E-2
1.623112696E1,-1.312558055E0,1.158624530E0,-2.168507688E-2
1.624027988E1,-1.306449533E0,1.089293361E0,-1.298050396E-2
1.624943284E1,-1.266591787E0,9.874345660E-1,-3.222219273E-2
1.625858576E1,-1.223221660E0,9.000834227E-1,-5.008947477E-2
1.626773868E1,-1.239561796E0,8.794673681E-1,-7.773031294E-2
1.627689159E1,-1.300493836E0,8.877137899E-1,-1.075091213E-1
1.628604456E1,-1.395785928E0,1.002553105E0,-1.418692768E-1
1.629519748E1,-1.495812178E0,1.176339149E0,-1.860029846E-1
1.630435040E1,-1.560409307E0,1.254985690E0,-2.334963679E-1
1.631350331E1,-1.615690947E0,1.333021402E0,-2.785463631E-1
1.632265623E1,-1.603168607E0,1.379293084E0,-3.072561622E-1
1.633180920E1,-1.530477762E0,1.338977218E0,-3.347443044E-1
1.634096212E1,-1.478250384E0,1.218487620E0,-3.526115716E-1
1.635011503E1,-1.413042426E0,1.109451294E0,-3.704788685E-1
1.635926795E1,-1.351804972E0,1.034164429E0,-3.955236077E-1
1.636842092E1,-1.284764528E0,9.196305275E-1,-4.115583301E-1
1.637757383E1,-1.184738278E0,7.721109390E-1,-4.277457893E-1
1.638672675E1,-1.082574010E0,5.848862529E-1,-4.573718905E-1
1.639587967E1,-9.959864616E-1,3.666610718E-1,-5.036435723E-1
1.640503258E1,-9.408574700E-1,1.543916464E-1,-5.526640415E-1
1.641418555E1,-9.286405444E-1,5.299099907E-2,-5.940489769E-1
1.642333847E1,-9.344435930E-1,1.908897609E-2,-6.343649030E-1
1.643249139E1,-9.465078115E-1,9.315420873E-3,-6.636855602E-1
1.644164430E1,-9.469659925E-1,9.773556143E-3,-6.917845011E-1
1.645079727E1,-9.048175216E-1,-3.512371797E-3,-7.238540053E-1
1.645993743E1,-8.315158486E-1,1.221694518E-2,-7.429429889E-1
1.646910311E1,-7.551599145E-1,8.399149776E-2,-7.582141757E-1
1.647825602E1,-7.067502737E-1,2.641914487E-1,-7.653915882E-1
1.648739623E1,-6.537593007E-1,4.747810364E-1,-7.492041588E-1
1.649656191E1,-5.592306852E-1,5.688515306E-1,-7.316423059E-1
1.650571482E1,-4.196520746E-1,5.222744346E-1,-6.933116317E-1
1.651485498E1,-2.531961799E-1,3.461976945E-1,-6.316160560E-1
1.652402066E1,-6.291726977E-2,4.382828996E-2,-5.409052372E-1
1.653317363E1,1.934858710E-1,-3.423798978E-1,-4.398100376E-1
1.654231378E1,5.488462448E-1,-7.728744745E-1,-3.344388604E-1
1.655147946E1,9.764393568E-1,-1.107313395E0,-1.925695986E-1
1.656063238E1,1.463590026E0,-1.271020412E0,-2.779355086E-2
1.656977258E1,1.963263035E0,-1.506502032E0,8.521319181E-2
1.657893826E1,2.323052168E0,-1.741220117E0,2.076880634E-2
1.658809118E1,2.481566906E0,-1.708845258E0,-6.612421572E-2
1.659723133E1,2.482788801E0,-1.508487344E0,-3.084778599E-2
1.660639701E1,2.388565540E0,-1.376238823E0,8.261708915E-2
1.661554998E1,2.338628769E0,-1.308892965E0,2.550287247E-1
1.662469014E1,2.417886257E0,-1.307976723E0,4.547757804E-1
1.663385581E1,2.540971994E0,-1.433658481E0,6.230642200E-1
1.664300878E1,2.691851139E0,-1.652494550E0,6.933116317E-1
1.665214894E1,2.854794741E0,-1.810245872E0,6.401679516E-1
1.666131462E1,2.965358019E0,-1.852699757E0,5.335750580E-1
1.667046753E1,3.018654346E0,-1.892710209E0,4.251496792E-1
1.667960769E1,3.062482834E0,-1.997775912E0,3.431434333E-1
1.668877342E1,3.086000443E0,-1.995027184E0,2.987042964E-1
1.669792633E1,3.086458445E0,-1.682273388E0,2.739650011E-1
1.670706649E1,3.074394226E0,-1.085170150E0,2.649549842E-1
1.671623217E1,3.059886694E0,-4.169032574E-1,2.612899244E-1
1.672538508E1,3.007353783E0,1.608055383E-1,2.513636351E-1
1.673453805E1,2.919697285E0,5.270084739E-1,2.351761907E-1
1.674369097E1,2.843341351E0,6.546755433E-1,2.388412803E-1
1.675284389E1,2.810355425E0,6.022953987E-1,2.831276953E-1
1.676199686E1,2.823946953E0,4.995203316E-1,3.573456407E-1
1.677114977E1,2.861055851E0,3.800997138E-1,4.352286756E-1
1.678030269E1,2.878923178E0,2.182251811E-1,4.892886579E-1
1.678944284E1,2.873578310E0,4.474456236E-2,5.112791657E-1
1.679860857E1,2.835552931E0,-1.067455560E-1,4.818057716E-1
1.680776149E1,2.768970728E0,-2.281514555E-1,4.362976551E-1
1.681690165E1,2.696738005E0,-3.338280320E-1,4.107947946E-1
1.682606732E1,2.611677408E0,-4.534013867E-1,3.723114133E-1
1.683522024E1,2.476680279E0,-5.665608048E-1,3.122956753E-1
1.684436045E1,2.301061630E0,-6.749862432E-1,2.389939874E-1
1.685352613E1,2.118571043E0,-7.768449783E-1,1.718007922E-1
1.686267904E1,1.927681208E0,-8.448017836E-1,1.125486046E-1
1.687181925E1,1.708081603E0,-8.748859763E-1,5.176930502E-2
1.688098493E1,1.472905397E0,-8.748859763E-1,2.596100792E-3
1.689013784E1,1.251015186E0,-8.651124239E-1,-3.634541109E-2
1.689929076E1,1.026528835E0,-8.396095634E-1,-4.642439261E-2
1.690844368E1,7.922688723E-1,-7.809682488E-1,-4.504998401E-2
1.691759665E1,5.537330508E-1,-6.914790869E-1,-4.627167806E-2
1.692674956E1,3.277195692E-1,-5.780141950E-1,-5.589252338E-2
1.693590248E1,1.079672500E-1,-4.614951015E-1,-6.841489673E-2
1.694505540E1,-1.078145429E-1,-3.245126009E-1,-7.681404054E-2
1.695420836E1,-2.987042964E-1,-1.362189353E-1,-5.879404768E-2
1.696336128E1,-4.717268050E-1,9.162709117E-2,-1.191152167E-2
1.697251420E1,-6.644490957E-1,3.211529553E-1,5.741964281E-2
1.698166712E1,-8.353336453E-1,4.500417113E-1,1.250709742E-1
1.699082003E1,-9.411629438E-1,4.097257853E-1,1.640124917E-1
1.699997300E1,-9.990406632E-1,2.506000996E-1,1.869192570E-1
1.700911316E1,-1.031873703E0,5.115845799E-2,2.168507725E-1
1.701827883E1,-1.043174386E0,-9.086353332E-2,2.565558553E-1
1.702743180E1,-1.078298092E0,-9.437590092E-2,2.837385535E-1
1.703657196E1,-1.207492352E0,1.397313178E-1,2.881672084E-1
1.704573764E1,-1.401741743E0,5.833591223E-1,2.583884001E-1
1.705489055E1,-1.446944475E0,1.088987947E0,1.160609797E-1
1.706403076E1,-1.233758807E0,1.495201349E0,-9.345962852E-2
1.707319644E1,-8.167027831E-1,1.388608575E0,-2.724378705E-1
1.708234936E1,-2.130329758E-1,2.577775419E-1,-1.682884246E-1
1.709148951E1,2.493783981E-1,-1.522078633E0,5.665608495E-2
1.710065519E1,-1.698155403E-1,-1.845980406E0,2.919849753E-1
1.710980816E1,-1.268729806E0,-3.075616062E-1,5.714476109E-1
1.711894831E1,-1.960819721E0,6.778877378E-1,6.282563806E-1
1.712811399E1,-1.905996203E0,6.041279435E-1,5.279247165E-1
1.713726691E1,-1.668529272E0,3.235963285E-1,4.949389994E-1
1.714641988E1,-1.558882236E0,4.498890042E-1,5.401417017E-1
1.715557279E1,-1.638292313E0,8.953493834E-1,6.131379604E-1
1.716472571E1,-1.637681484E0,9.031376839E-1,5.948125124E-1
1.717386586E1,-1.481304646E0,4.847072959E-1,4.784461260E-1
1.718303154E1,-1.386470556E0,1.288887709E-1,3.729222417E-1
1.719218451E1,-1.352415800E0,-1.398840249E-1,3.332171738E-1
1.720132467E1,-1.336075664E0,-3.164188862E-1,3.309265077E-1
1.721049034E1,-1.292247415E0,-3.918585181E-1,3.142809272E-1
1.721964326E1,-1.231926203E0,-4.309527278E-1,2.872509360E-1
1.722878347E1,-1.181378603E0,-4.254551232E-1,2.661767006E-1
1.723794915E1,-1.157097459E0,-3.779617548E-1,2.565558553E-1
1.724710206E1,-1.135870457E0,-2.544178963E-1,2.278460264E-1
1.725625498E1,-1.124722481E0,-3.527642787E-2,1.740914732E-1
1.726540795E1,-1.101815701E0,1.325538605E-1,1.064401343E-1
1.727456086E1,-1.079825282E0,2.553341687E-1,5.512896553E-2
1.728371378E1,-1.098456025E0,4.040754735E-1,3.176405653E-2
1.729286670E1,-1.126860499E0,5.468609929E-1,3.451287001E-2
1.730201962E1,-1.143811464E0,6.542174220E-1,5.192201585E-2
1.731117258E1,-1.143811464E0,7.307260633E-1,4.947862774E-2
1.732032550E1,-1.137397647E0,7.913526297E-1,1.954711229E-2
1.732947842E1,-1.116628766E0,8.089144826E-1,-1.023169141E-2
1.733863133E1,-1.081046939E0,8.527427912E-1,-4.367557913E-2
1.734778430E1,-1.056154966E0,9.074136019E-1,-8.567132801E-2
1.735693722E1,-1.046075940E0,9.831586480E-1,-1.473668963E-1
1.736609014E1,-1.037371397E0,1.093111157E0,-2.237228155E-1
1.737524305E1,-1.056613088E0,1.193595529E0,-2.780882120E-1
1.738439602E1,-1.098608851E0,1.298203111E0,-3.115321100E-1
1.739354894E1,-1.136023164E0,1.357608080E0,-3.619270027E-1
1.740270186E1,-1.180004239E0,1.404948711E0,-4.025483429E-1
1.741185477E1,-1.207034230E0,1.394106150E0,-3.965925872E-1
1.742100769E1,-1.208866715E0,1.370741248E0,-3.570402265E-1
1.743016066E1,-1.187639832E0,1.325233102E0,-3.176405728E-1
1.743931357E1,-1.143353343E0,1.266744494E0,-3.234436214E-1
1.744846649E1,-1.090667725E0,1.181073189E0,-3.596363366E-1
1.745761941E1,-1.044396043E0,1.059972763E0,-3.903313875E-1
1.746677238E1,-1.019198656E0,1.002094984E0,-4.066715539E-1
1.747592529E1,-1.041036487E0,1.026681542E0,-4.086568058E-1
1.748507821E1,-1.080436110E0,1.078603506E0,-3.943018913E-1
1.749423113E1,-1.114032745E0,1.130983710E0,-4.056025743E-1
1.750338409E1,-1.099525094E0,1.180156946E0,-4.317162931E-1
1.751253701E1,-1.065775752E0,1.193442822E0,-4.425588250E-1
1.752168993E1,-1.062721491E0,1.183822036E0,-4.395045936E-1
1.753084284E1,-1.095860004E0,1.232689738E0,-4.091149569E-1
1.753999576E1,-1.113421798E0,1.247960925E0,-3.683409095E-1
1.754914873E1,-1.081810474E0,1.210852027E0,-3.352024257E-1
1.755830165E1,-1.072189689E0,1.156028390E0,-3.142809272E-1
1.756745456E1,-1.108382344E0,1.076465607E0,-3.089359999E-1
1.757660753E1,-1.161984205E0,9.335273504E-1,-3.116848171E-1
1.758576045E1,-1.197718740E0,7.744016051E-1,-3.014531136E-1
1.759491336E1,-1.212379098E0,6.351284385E-1,-3.057290614E-1
1.760406628E1,-1.173437595E0,4.906630516E-1,-3.249707520E-1
1.761321920E1,-1.101357579E0,2.971771955E-1,-3.455868363E-1
1.762237217E1,-1.024543524E0,4.123219103E-2,-3.559712470E-1
1.763152508E1,-9.833113551E-1,-1.491994411E-1,-3.695625961E-1
1.764067800E1,-9.666658044E-1,-2.675510943E-1,-4.010212123E-1
1.764983092E1,-9.654440880E-1,-3.266505599E-1,-4.364503622E-1
1.765898389E1,-9.991934299E-1,-3.364241421E-1,-4.708105326E-1
1.766813680E1,-1.029735804E0,-3.390202224E-1,-5.022691488E-1
1.767728972E1,-1.056613088E0,-2.951919436E-1,-5.311316848E-1
1.768644264E1,-1.077687263E0,-1.947075576E-1,-5.483881235E-1
1.769559560E1,-1.099372387E0,-3.451287001E-2,-5.737382770E-1
1.770474852E1,-1.123653531E0,2.177670449E-1,-6.119162440E-1
1.771390144E1,-1.136328578E0,4.827220440E-1,-6.494833231E-1
1.772304159E1,-1.139382839E0,6.923953891E-1,-6.606312990E-1
1.773220732E1,-1.131136417E0,7.962393761E-1,-6.314633489E-1
1.774136024E1,-1.094943762E0,7.879929543E-1,-5.859552622E-1
1.775050040E1,-1.029277682E0,6.821636558E-1,-5.610632300E-1
1.775966607E1,-9.665130973E-1,5.358657837E-1,-5.457920432E-1
1.776881899E1,-9.045121074E-1,3.582619131E-1,-5.317425132E-1
1.777797196E1,-8.324320912E-1,1.505738497E-1,-5.152496696E-1
1.778712488E1,-7.543963790E-1,-4.825693369E-2,-5.034908652E-1
1.779627779E1,-6.514685750E-1,-1.950129867E-1,-4.990622103E-1
1.780543076E1,-4.917320311E-1,-3.345915973E-1,-4.831801951E-1
1.781458368E1,-2.536543310E-1,-5.082249045E-1,-4.526378214E-1
1.782373659E1,4.001049697E-2,-6.598677635E-1,-3.747547865E-1
1.783288951E1,3.490992188E-1,-7.415685654E-1,-2.576248348E-1
1.784204243E1,7.050704360E-1,-8.507575393E-1,-1.232384369E-1
1.785119540E1,1.143353343E0,-1.034011722E0,-3.817795217E-2
1.786033555E1,1.613705754E0,-1.179698825E0,-1.343864016E-2
1.786950123E1,1.994569063E0,-1.195122719E0,2.596100792E-2
1.787865415E1,2.265632391E0,-1.195122719E0,8.765657991E-2
1.788779436E1,2.372530699E0,-1.189930439E0,1.403421611E-1
1.789696003E1,2.398033619E0,-1.109909415E0,2.309002578E-1
1.790611295E1,2.464005232E0,-1.043021679E0,3.680354655E-1
1.791525310E1,2.642067194E0,-1.089293361E0,4.714213610E-1
1.792441878E1,2.886558771E0,-1.226886749E0,5.080721974E-1
1.793357175E1,3.095621109E0,-1.427244663E0,4.912739098E-1
1.794271191E1,3.226953268E0,-1.637986898E0,4.570664763E-1
1.795187758E1,3.249860048E0,-1.781994224E0,4.413371384E-1
1.796103050E1,3.160676479E0,-1.796654463E0,4.504998624E-1
1.797018347E1,3.006284714E0,-1.629893184E0,4.610369802E-1
1.797933639E1,2.883046389E0,-1.353026628E0,4.463766217E-1
1.798848930E1,2.854947329E0,-1.075549364E0,3.811686933E-1
1.799764222E1,2.897553921E0,-8.359444737E-1,3.045073450E-1
1.800679519E1,2.948865175E0,-6.261184216E-1,2.667875290E-1
1.801594810E1,2.971466541E0,-4.471401870E-1,2.686200738E-1
1.802508826E1,2.948865175E0,-2.724378705E-1,2.646495700E-1
1.803425394E1,2.874952555E0,-1.394258887E-1,2.652604282E-1
1.804340691E1,2.797527790E0,-8.826743066E-2,2.530434728E-1
1.805255982E1,2.746674776E0,-1.084253863E-1,2.301367074E-1
1.806171274E1,2.717964888E0,-1.404948682E-1,2.122694254E-1
1.807086566E1,2.694905281E0,-1.641651988E-1,1.907370538E-1
1.808001857E1,2.676732779E0,-1.847812980E-1,1.620272398E-1
1.808917154E1,2.628475666E0,-2.150182426E-1,1.207950488E-1
1.809832446E1,2.554868698E0,-2.460187376E-1,9.330692142E-2
1.810747738E1,2.469502687E0,-2.805316150E-1,8.780929446E-2
1.811663029E1,2.349623919E0,-2.935121059E-1,5.589252338E-2
1.812578326E1,2.241045952E0,-3.420744538E-1,1.420219894E-2
1.813493618E1,2.127581120E0,-3.796415627E-1,-1.878355257E-2
1.814408909E1,1.982657433E0,-3.631486893E-1,-4.734066129E-2
1.815324201E1,1.838802934E0,-3.202366829E-1,-8.017370105E-2
1.816239498E1,1.704722047E0,-2.722851634E-1,-1.140757278E-1
1.817154790E1,1.563768983E0,-2.226538211E-1,-1.322484314E-1
1.818070081E1,1.396396875E0,-1.795890927E-1,-1.340809762E-1
1.818985373E1,1.207645059E0,-1.682884246E-1,-1.336228400E-1
1.819900670E1,1.022711039E0,-1.637070626E-1,-1.178935245E-1
1.820815962E1,8.397622705E-1,-1.212531775E-1,-1.032331884E-1
1.821731253E1,6.484143734E-1,-3.283303976E-2,-9.116895497E-2
1.822646545E1,4.552339315E-1,6.566607952E-2,-7.803573459E-2
1.823561842E1,2.435753495E-1,1.553079188E-1,-5.329642445E-2
1.824477133E1,2.336490713E-2,2.315111160E-1,-2.015795931E-2
1.825392425E1,-1.823379099E-1,2.524326444E-1,2.550287358E-2
1.826307717E1,-3.610107303E-1,2.162399292E-1,8.276980370E-2
1.827223014E1,-5.031854510E-1,1.655396074E-1,1.453816444E-1
1.828138305E1,-6.111527085E-1,1.427855492E-1,2.075353563E-1
1.829053597E1,-6.875085831E-1,1.217113137E-1,2.551814318E-1
1.829968889E1,-7.521057129E-1,7.971556485E-2,2.932066917E-1
1.830884186E1,-8.217422962E-1,-2.901524538E-3,3.277195692E-1
1.831799477E1,-8.736643195E-1,-1.270562261E-1,3.541387022E-1
1.832713493E1,-7.727217674E-1,-2.582356930E-1,3.434488773E-1
1.833630060E1,-4.567610323E-1,-2.922904193E-1,3.090887070E-1
1.834545352E1,-1.356080920E-1,8.475505561E-2,2.615953386E-1
1.835459373E1,-5.192201585E-2,6.455128193E-1,3.185568452E-1
1.836375941E1,-1.582094431E-1,6.980457306E-1,3.837648034E-1
1.837291232E1,-3.115321100E-1,-2.061609477E-1,2.214321345E-1
1.838205253E1,-6.754443645E-1,-9.433009028E-1,1.986780763E-1
1.839121821E1,-9.856020808E-1,-1.008203387E0,3.784198761E-1
1.840037113E1,-9.165763259E-1,-1.031415582E0,5.506787896E-1
1.840952404E1,-8.854231238E-1,-4.228590131E-1,6.835380793E-1
1.841867696E1,-1.144575000E0,3.542914093E-1,7.214106321E-1
1.842782993E1,-1.339893460E0,7.040014863E-1,7.137750387E-1
1.843697008E1,-1.361273170E0,6.978929639E-1,6.812474132E-1
1.844613576E1,-1.399451017E0,5.059342384E-1,6.267293096E-1
1.845528868E1,-1.469240427E0,3.069507480E-1,6.184828281E-1
1.846442889E1,-1.473669052E0,2.353289127E-1,6.545228362E-1
1.847359456E1,-1.347834468E0,7.482878864E-2,6.788040400E-1
1.848274748E1,-1.193595529E0,-6.673506647E-2,6.542174220E-1
1.849190040E1,-1.110214949E0,-1.276670843E-1,5.937435627E-1
1.850105336E1,-1.102426648E0,-1.363716573E-1,5.193728805E-1
1.851020628E1,-1.121057391E0,-9.025268257E-2,4.593571424E-1
1.851935920E1,-1.135259628E0,-6.322269142E-2,4.196520746E-1
1.852851212E1,-1.129914761E0,-9.116895497E-2,3.775036037E-1
1.853766503E1,-1.103953719E0,-1.551551968E-1,3.300102353E-1
1.854681800E1,-1.100746751E0,-1.385096163E-1,2.658712566E-1
1.855597092E1,-1.076312900E0,-1.359135211E-1,1.849340051E-1
1.856512383E1,-1.034927964E0,-1.082726792E-1,1.113269106E-1
1.857427675E1,-1.023779988E0,-7.330167107E-3,3.924693540E-2
1.858342972E1,-1.004538298E0,6.230641901E-2,-2.840439789E-2
1.859258264E1,-9.813261032E-1,1.229330078E-1,-8.887827396E-2
1.860173555E1,-9.994988441E-1,2.444916219E-1,-1.269035190E-1
1.861088847E1,-1.038593054E0,3.570402265E-1,-1.491994411E-1
1.862004144E1,-1.029277682E0,4.010212123E-1,-1.473668963E-1
1.862919436E1,-9.923213720E-1,4.005630910E-1,-1.299577504E-1
1.863834727E1,-9.892671108E-1,4.790569544E-1,-1.293469071E-1
1.864750019E1,-1.007897973E0,6.384881139E-1,-1.485885978E-1
1.865665310E1,-1.018893242E0,7.956285477E-1,-1.805053651E-1
1.866580607E1,-1.024848938E0,9.197832346E-1,-2.063136548E-1
1.867495899E1,-1.036913276E0,9.726215601E-1,-2.205158621E-1
1.868411191E1,-1.061499834E0,1.031568289E0,-2.353289127E-1
1.869326482E1,-1.091431379E0,1.138161182E0,-2.484621257E-1
1.870241779E1,-1.145796776E0,1.241088867E0,-2.464768738E-1
1.871157071E1,-1.198940516E0,1.320040941E0,-2.383831441E-1
1.872072363E1,-1.229482770E0,1.429535270E0,-2.411319613E-1
1.872987654E1,-1.255901933E0,1.495201349E0,-2.541124523E-1
1.873902951E1,-1.275449038E0,1.466186166E0,-2.609844804E-1
1.874818243E1,-1.292094707E0,1.410751700E0,-2.666348219E-1
1.875733534E1,-1.348445296E0,1.292552829E0,-2.626643181E-1
1.876648826E1,-1.460688472E0,1.139993668E0,-2.467822880E-1
1.877564123E1,-1.537044406E0,9.827005267E-1,-2.350234836E-1
1.878479415E1,-1.536280870E0,9.090934396E-1,-2.489202619E-1
1.879394706E1,-1.470309377E0,9.433009028E-1,-3.035911024E-1
1.880309998E1,-1.406933904E0,1.058750987E0,-3.898732662E-1
1.881225290E1,-1.364938259E0,1.164580345E0,-4.854708612E-1
1.882140587E1,-1.331494331E0,1.191915751E0,-5.641174316E-1
1.883055878E1,-1.316070437E0,1.284611821E0,-6.172611713E-1
1.883971170E1,-1.302479029E0,1.435796499E0,-6.520794630E-1
1.884886462E1,-1.316528559E0,1.498866439E0,-6.783458591E-1
1.885801758E1,-1.349514365E0,1.535517335E0,-6.981984377E-1
1.886717050E1,-1.387997627E0,1.501157165E0,-6.952968836E-1
1.887632342E1,-1.418998241E0,1.375780702E0,-6.791094542E-1
1.888547633E1,-1.436560035E0,1.262468576E0,-6.705575585E-1
1.889462930E1,-1.439767003E0,1.204132676E0,-6.675033569E-1
1.890378222E1,-1.400520086E0,1.168703556E0,-6.641436815E-1
1.891293514E1,-1.363411069E0,1.086086392E0,-6.612421870E-1
1.892208805E1,-1.306602240E0,9.174925685E-1,-6.430694461E-1
1.893124102E1,-1.262315869E0,7.128587365E-1,-6.126797795E-1
1.894039394E1,-1.265064716E0,5.231906772E-1,-5.998520255E-1
1.894954686E1,-1.278656006E0,4.019374847E-1,-6.206207871E-1
1.895869977E1,-1.262468576E0,3.151971996E-1,-6.288672686E-1
1.896785269E1,-1.220320106E0,2.032594234E-1,-5.998520255E-1
1.897700566E1,-1.196191669E0,1.152974218E-1,-5.726693273E-1
1.898615857E1,-1.177102685E0,2.626643144E-2,-5.474718809E-1
1.899531149E1,-1.132663488E0,-5.848862603E-2,-5.092939138E-1
1.900446441E1,-1.078603506E0,-1.304158866E-1,-4.618005157E-1
1.901360462E1,-1.043327093E0,-1.024696305E-1,-4.219427407E-1
1.902277029E1,-1.033706307E0,-1.572931744E-2,-4.066715539E-1
1.903192321E1,-1.028055906E0,1.252236813E-1,-4.366030693E-1
1.904107613E1,-1.032331824E0,3.773508966E-1,-5.070032477E-1
1.905022909E1,-1.042716265E0,6.723901033E-1,-5.818319917E-1
1.905938201E1,-1.054322362E0,8.903098702E-1,-6.363501549E-1
1.906852217E1,-1.039662004E0,9.741486907E-1,-6.351284385E-1
1.907768784E1,-9.885035753E-1,8.947384953E-1,-5.920637250E-1
1.908684081E1,-9.381086826E-1,7.379034758E-1,-5.291464329E-1
1.909599373E1,-9.101623893E-1,5.447230339E-1,-4.616478086E-1
1.910514665E1,-8.887827396E-1,3.352024257E-1,-3.978142738E-1
1.911429956E1,-8.438854814E-1,1.661504507E-1,-3.492519259E-1
1.912345248E1,-7.690566778E-1,6.688777357E-2,-3.254288733E-1
1.913260545E1,-6.617003083E-1,-1.298050396E-2,-3.135173619E-1
1.914175836E1,-5.308262706E-1,-1.200314835E-1,-3.089359999E-1
1.915091128E1,-3.950654566E-1,-2.053973973E-1,-3.109212518E-1
1.916006420E1,-2.467822880E-1,-2.400629669E-1,-3.153499067E-1
1.916921712E1,-7.543963939E-2,-2.469350100E-1,-3.063398898E-1
1.917837008E1,1.253764033E-1,-2.392994165E-1,-2.877090573E-1
1.918752300E1,3.440597057E-1,-2.402156889E-1,-2.648022771E-1
1.919667592E1,5.876350403E-1,-2.684673667E-1,-2.264716178E-1
1.920582889E1,8.425110579E-1,-3.286358118E-1,-1.690519750E-1
1.921498180E1,1.108535051E0,-4.057552814E-1,-9.681928903E-2
1.922413472E1,1.390135646E0,-4.863871336E-1,-3.252761811E-2
1.923328764E1,1.691436052E0,-5.606050491E-1,-4.734066315E-3
1.924244055E1,2.008313179E0,-6.352811456E-1,1.282779220E-2
1.925159352E1,2.265632391E0,-6.268820167E-1,5.314370990E-2
1.926073368E1,2.382151604E0,-3.997995257E-1,1.484358907E-1
1.926989936E1,2.342751980E0,-1.763821393E-1,2.670929730E-1
1.927905227E1,2.288386583E0,-2.313583940E-1,4.078932703E-1
1.928819248E1,2.309613466E0,-5.560237169E-1,5.975613594E-1
1.929735816E1,2.453162670E0,-9.220739603E-1,8.113578558E-1
1.930651107E1,2.688033342E0,-1.203063726E0,9.487984776E-1
1.931566399E1,2.890681982E0,-1.349208832E0,9.717052579E-1
1.932481691E1,2.966579676E0,-1.334090471E0,9.245173335E-1
1.933396988E1,2.942298651E0,-1.277128935E0,8.657232523E-1
1.934311003E1,2.905800343E0,-1.317139387E0,8.409839869E-1
1.935227571E1,2.880755663E0,-1.481610060E0,8.415948153E-1
1.936142868E1,2.840592384E0,-1.678761005E0,8.383878469E-1
1.937056883E1,2.763320208E0,-1.772373319E0,7.927270532E-1
1.937973451E1,2.681924820E0,-1.732515574E0,6.969767213E-1
1.938888743E1,2.634889603E0,-1.587897420E0,5.883986354E-1
1.939804040E1,2.612135649E0,-1.339435339E0,4.921901822E-1
1.940719331E1,2.586021900E0,-1.001636744E0,4.398100376E-1
1.941634623E1,2.546011448E0,-6.516213417E-1,4.314108789E-1
1.942549915E1,2.490271568E0,-3.526115716E-1,4.552339315E-1
1.943465206E1,2.433462858E0,-1.603474021E-1,4.961606860E-1
1.944380503E1,2.386427641E0,-7.528692484E-2,5.219689608E-1
1.945295795E1,2.339697599E0,-3.023693897E-2,5.369347334E-1
1.946211086E1,2.288691998E0,1.740914769E-2,5.413633585E-1
1.947126378E1,2.241045952E0,3.894151375E-2,5.392253995E-1
1.948041675E1,2.196912050E0,1.603474095E-2,5.462501645E-1
1.948956967E1,2.143768549E0,-4.367557913E-2,5.599942207E-1
1.949872258E1,2.080545664E0,-1.467560530E-1,5.570927262E-1
1.950787550E1,2.009229422E0,-2.855710983E-1,5.225798488E-1
1.951702847E1,1.939898133E0,-4.282039404E-1,4.653128982E-1
1.952618139E1,1.878508091E0,-5.731274486E-1,4.149180055E-1
1.953532154E1,1.813910961E0,-7.145385742E-1,3.761292100E-1
1.954448722E1,1.744427085E0,-8.521319032E-1,3.377985358E-1
1.955364014E1,1.652799964E0,-9.903361201E-1,2.970244884E-1
1.956278034E1,1.523147583E0,-1.105786204E0,2.625116110E-1
1.957194602E1,1.385401607E0,-1.192984700E0,2.359397560E-1
1.958109894E1,1.265522838E0,-1.278808713E0,2.113531530E-1
1.959025186E1,1.147476554E0,-1.329050899E0,1.940967143E-1
1.959940482E1,1.025612593E0,-1.328592777E0,1.798945218E-1
1.960855774E1,9.037485123E-1,-1.281404853E0,1.466033459E-1
1.961771066E1,7.745543122E-1,-1.201689243E0,1.078145429E-1
1.962686357E1,6.575770974E-1,-1.081963181E0,9.529217333E-2
1.963601654E1,5.352548957E-1,-9.164236188E-1,9.361234307E-2
1.964516946E1,3.965925872E-1,-7.582141757E-1,7.849387079E-2
1.965432238E1,2.367033064E-1,-5.963396430E-1,6.872031838E-2
1.966347529E1,8.780929446E-2,-4.175141156E-1,7.971556485E-2
1.967262826E1,-2.901524492E-2,-2.466295809E-1,8.551861346E-2
1.968178118E1,-1.003316641E-1,-1.142284349E-1,7.941014320E-2
1.969093409E1,-1.327065676E-1,-2.748812549E-3,7.360709459E-2
1.970008701E1,-1.684411317E-1,1.159082651E-1,7.330167294E-2
1.970923998E1,-2.151709497E-1,1.748550236E-1,6.872031838E-2
1.971839290E1,-2.741177082E-1,9.452861547E-2,6.826218218E-2
1.972754581E1,-3.530697227E-1,-5.253286287E-2,8.124268800E-2
1.973669873E1,-4.291202128E-1,-1.910424829E-1,1.174353883E-1
1.974585170E1,-4.932591617E-1,-2.783936262E-1,1.646233350E-1
1.975500462E1,-5.525113344E-1,-2.728960216E-1,2.003578991E-1
1.976415753E1,-6.059604883E-1,-1.585148573E-1,2.156290859E-1
1.977331045E1,-6.514685750E-1,2.825168520E-2,2.145601064E-1
1.978246342E1,-6.962131858E-1,2.215848416E-1,2.079934925E-1
1.979161633E1,-7.566870451E-1,3.697153032E-1,2.044811249E-1
1.980076925E1,-8.313631415E-1,4.468347728E-1,2.148655206E-1
1.980992217E1,-9.097042680E-1,4.448495209E-1,2.374668717E-1
1.981907514E1,-9.813261032E-1,3.750602305E-1,2.669402659E-1
1.982822805E1,-1.052795291E0,2.803788781E-1,2.996205688E-1
1.983738097E1,-1.124722481E0,1.797417998E-1,3.180987239E-1
1.984653389E1,-1.196038961E0,7.956285775E-2,3.225273490E-1
1.985568686E1,-1.257276416E0,-2.412846684E-2,3.032856584E-1
1.986483977E1,-1.319277406E0,-9.315420687E-2,2.600682080E-1
1.987399269E1,-1.367381573E0,-7.177454978E-2,2.102841735E-1
1.988314561E1,-1.310572743E0,2.764083818E-2,1.537808031E-1
1.989228581E1,-1.009272337E0,6.261184067E-2,7.467607409E-2
1.990145149E1,-3.822376728E-1,-1.053711548E-1,-3.802524135E-2
1.991060441E1,2.875563502E-1,-4.399627447E-1,-1.826433241E-1
1.991974456E1,5.401417017E-1,-7.124006152E-1,-2.961082160E-1
1.992891029E1,5.037962794E-1,-9.072608948E-1,-3.290939629E-1
1.993806321E1,4.378247857E-1,-4.311054647E-1,-3.055763543E-1
1.994720336E1,8.704573661E-2,4.249969721E-1,-2.011214644E-1
1.995636904E1,-4.837910235E-1,3.093941510E-1,-7.009471953E-2
1.996552201E1,-8.707627654E-1,-3.078670204E-1,3.313846514E-2
1.997466217E1,-9.739959836E-1,-5.318952799E-1,1.108687744E-1
1.998382784E1,-1.035844207E0,-5.482354015E-2,2.205158621E-1
1.999298076E1,-1.157097459E0,5.630484819E-1,3.370349705E-1
2.000212097E1,-1.215127945E0,8.199097514E-1,3.976615667E-1
2.001128665E1,-1.200009465E0,7.640172243E-1,4.202629030E-1
2.002043956E1,-1.161220670E0,5.167768002E-1,3.834593594E-1
2.002957972E1,-9.863656163E-1,9.559759498E-2,2.880144715E-1
2.003874545E1,-7.960866690E-1,-2.612899244E-1,2.052446753E-1
2.004789836E1,-7.870767117E-1,-2.919849753E-1,1.809635013E-1
2.005703852E1,-9.341381788E-1,-5.467082933E-2,2.127275616E-1
2.006620420E1,-1.125180602E0,1.120904684E-1,2.790044844E-1
2.007535717E1,-1.285069942E0,2.560977042E-1,3.578037918E-1
2.008449732E1,-1.390288353E0,4.043808877E-1,3.935383558E-1
2.009366300E1,-1.446180940E0,4.740174711E-1,3.625378609E-1
2.010281592E1,-1.455190897E0,5.557183027E-1,2.854183912E-1
2.011196889E1,-1.435032964E0,6.102364063E-1,1.969982386E-1
2.012112180E1,-1.425106645E0,6.449019909E-1,1.030804738E-1
2.013027472E1,-1.402199864E0,6.336013079E-1,-1.068982761E-3
2.013942764E1,-1.369519591E0,5.273138881E-1,-1.021642014E-1
2.014858061E1,-1.348445296E0,4.081986845E-1,-1.801999360E-1
2.015773352E1,-1.346154690E0,3.278722763E-1,-2.374668717E-1
2.016688644E1,-1.361120462E0,3.054236174E-1,-2.913741469E-1
2.017603936E1,-1.386470556E0,3.353551328E-1,-3.403946459E-1
2.018519232E1,-1.418998241E0,4.001049399E-1,-3.820849657E-1
2.019434524E1,-1.455649018E0,4.940227270E-1,-4.019374847E-1
2.020349816E1,-1.499782681E0,6.161921620E-1,-4.103366435E-1
2.021265107E1,-1.537807941E0,7.403468490E-1,-4.112529159E-1
2.022180404E1,-1.548345089E0,8.072346449E-1,-3.930802047E-1
2.023095696E1,-1.561325550E0,8.585458398E-1,-3.590254784E-1
2.024010988E1,-1.558576822E0,8.942803741E-1,-3.443651497E-1
2.024926279E1,-1.524522066E0,8.846595287E-1,-3.507790267E-1
2.025841576E1,-1.482068181E0,8.237275481E-1,-3.749074936E-1
2.026756868E1,-1.453358293E0,7.357655168E-1,-4.010212123E-1
2.027672159E1,-1.459619522E0,6.856760383E-1,-4.199574888E-1
2.028587451E1,-1.469545841E0,6.939224601E-1,-4.272876680E-1
2.029502748E1,-1.464353561E0,7.276718020E-1,-4.254551232E-1
2.030418040E1,-1.451067686E0,7.542436719E-1,-4.193466306E-1
2.031333331E1,-1.434269309E0,7.507312894E-1,-4.143071473E-1
2.032248623E1,-1.407239318E0,7.568397522E-1,-4.170559645E-1
2.033163920E1,-1.346001983E0,8.153283596E-1,-4.326325655E-1
2.034079212E1,-1.273921967E0,8.967237473E-1,-4.450022280E-1
2.034994503E1,-1.193595529E0,9.396358132E-1,-4.366030693E-1
2.035909795E1,-1.120904684E0,9.422318935E-1,-4.170559645E-1
2.036825092E1,-1.058598280E0,9.127585292E-1,-4.086568058E-1
2.037740383E1,-1.000109673E0,8.670976758E-1,-4.081986845E-1
2.038655675E1,-9.313893318E-1,8.154810667E-1,-3.949127495E-1
2.039570967E1,-8.693883419E-1,7.579087615E-1,-3.541387022E-1
2.040486264E1,-8.351809382E-1,7.062921524E-1,-3.000787199E-1
2.041401555E1,-8.138012886E-1,6.258130074E-1,-2.528907657E-1
2.042316847E1,-7.908945084E-1,5.343386531E-1,-2.257080674E-1
2.043232139E1,-7.782194018E-1,4.946335554E-1,-2.043284029E-1
2.044147436E1,-7.783721089E-1,4.966188073E-1,-1.774511337E-1
2.045062727E1,-7.673768401E-1,4.900522232E-1,-1.626380831E-1
2.045978019E1,-7.492041588E-1,4.558447599E-1,-1.423274130E-1
2.046893310E1,-7.269082665E-1,4.347705245E-1,-1.183516532E-1
2.047808607E1,-6.994200945E-1,4.488200247E-1,-1.035386100E-1
2.048723899E1,-6.615476012E-1,4.265241027E-1,-1.050657257E-1
2.049639191E1,-6.180247068E-1,3.800997138E-1,-1.218640283E-1
2.050554482E1,-5.795413256E-1,3.633013964E-1,-1.349972486E-1
2.051469779E1,-5.636593103E-1,3.784198761E-1,-1.362189353E-1
2.052385071E1,-5.683933496E-1,4.193466306E-1,-1.227803007E-1
2.053300363E1,-5.906893015E-1,4.923428893E-1,-1.052184403E-1
2.054215654E1,-6.062659025E-1,5.804576278E-1,-8.658760041E-2
2.055130951E1,-6.087092757E-1,6.201626658E-1,-6.337540597E-2
2.056046243E1,-6.010736823E-1,5.896202922E-1,-4.123219103E-2
2.056961534E1,-5.838172436E-1,5.059342384E-1,-1.175880991E-2
2.057876826E1,-5.540384650E-1,3.952181637E-1,2.397575416E-2
2.058792123E1,-5.120427012E-1,3.147390485E-1,4.749337584E-2
2.059707415E1,-4.619532526E-1,2.852656841E-1,5.635065958E-2
2.060622706E1,-4.147652984E-1,2.420482337E-1,5.619794875E-2
2.061537998E1,-3.826957941E-1,1.757712960E-1,5.467082933E-2
2.062453295E1,-3.677300513E-1,8.887827396E-2,4.566083103E-2
2.063368586E1,-3.845283389E-1,4.077405483E-2,4.428642616E-2
2.064283878E1,-4.088095427E-1,6.245913357E-2,4.230117425E-2
2.065199170E1,-4.421007037E-1,1.443126649E-1,4.138490185E-2
2.066114467E1,-4.669927359E-1,2.376195788E-1,2.825168520E-2
2.067029758E1,-4.709632397E-1,2.748812735E-1,2.886253223E-2
2.067945050E1,-4.755446017E-1,2.357870489E-1,3.924693540E-2
2.068860342E1,-4.995203316E-1,1.556133330E-1,4.398100078E-2
2.069775639E1,-5.062396526E-1,8.078455180E-2,2.993151546E-2
2.070690930E1,-4.839437306E-1,-2.443389036E-3,1.374406368E-2
2.071606222E1,-4.344651103E-1,-8.185353130E-2,6.261184346E-3
2.072521514E1,-3.720059693E-1,-1.696628332E-1,6.108472589E-3
2.073436810E1,-3.071034551E-1,-2.793098986E-1,1.267508045E-2
2.074352102E1,-2.629697323E-1,-3.804051280E-1,2.962609194E-2
2.075267394E1,-2.565558553E-1,-4.194993675E-1,3.023693897E-2
2.076182686E1,-2.602209449E-1,-4.045335948E-1,2.137965523E-3
2.077097982E1,-2.638860047E-1,-3.758237660E-1,-4.550812021E-2
2.078013274E1,-2.699944973E-1,-3.855973184E-1,-7.971556485E-2
2.078928566E1,-2.744231224E-1,-3.747547865E-1,-6.826218218E-2
2.079843857E1,-3.101576865E-1,-2.524326444E-1,-4.840964451E-2
2.080759154E1,-3.742966652E-1,-2.657185495E-2,-5.940489471E-2
2.081674446E1,-4.201101959E-1,2.269297540E-1,-8.979454637E-2
2.082589738E1,-4.410317242E-1,4.388937652E-1,-1.267508119E-1
2.083505029E1,-4.130854607E-1,5.690042377E-1,-1.534753740E-1
2.084420321E1,-3.545968235E-1,5.943543911E-1,-1.592784226E-1
2.085335618E1,-2.967190444E-1,5.196782947E-1,-1.508792788E-1
2.086250909E1,-2.652604282E-1,3.727695346E-1,-1.388150454E-1
2.087166201E1,-2.614426315E-1,2.144073844E-1,-1.302631795E-1
2.088081498E1,-2.777827978E-1,1.076618284E-1,-1.198787764E-1
2.088996790E1,-2.799207568E-1,5.115845799E-2,-9.422318637E-2
2.089912081E1,-2.669402659E-1,4.413371533E-2,-5.986303091E-2
2.090827373E1,-2.360924631E-1,7.986827940E-2,-3.161134571E-2
2.091742665E1,-2.034121305E-1,1.450762302E-1,-1.496575773E-2
2.092657962E1,-1.916533262E-1,2.209739983E-1,-8.246437646E-3
2.093573253E1,-2.069245130E-1,2.811424434E-1,-2.351761982E-2
2.094488545E1,-2.334963679E-1,3.556658030E-1,-5.619794875E-2
2.095403837E1,-2.463241518E-1,4.266768098E-1,-7.284353673E-2
2.096319652E1,-2.458660156E-1,4.495835900E-1,-6.673506647E-2
2.097234943E1,-2.180724740E-1,4.292729199E-1,-5.314370990E-2
2.098150235E1,-2.005106062E-1,3.907895386E-1,-4.199574888E-2
2.099065526E1,-1.977618039E-1,3.558185399E-1,-2.550287358E-2
2.099980823E1,-1.945548505E-1,3.269560039E-1,-2.351761982E-2
2.100896115E1,-1.881409585E-1,3.022166789E-1,-2.657185495E-2
2.101811407E1,-1.753131598E-1,2.625116110E-1,-3.924693540E-2
2.102726704E1,-1.569877416E-1,2.189887464E-1,-6.291726977E-2
2.103641995E1,-1.250709742E-1,1.786728203E-1,-7.360709459E-2
2.104557287E1,-9.697200358E-2,1.388150454E-1,-8.444963396E-2
2.105472579E1,-8.506047726E-2,1.136175916E-1,-9.956810623E-2
2.106387870E1,-8.857285231E-2,8.643488586E-2,-1.032331884E-1
2.107303167E1,-8.811471611E-2,5.497625470E-2,-1.130067408E-1
2.108218459E1,-8.857285231E-2,3.145863488E-2,-1.301104724E-1
2.109133751E1,-9.391776472E-2,2.229592577E-2,-1.472141892E-1
2.110049042E1,-9.086353332E-2,2.718270384E-2,-1.539335102E-1
2.110964339E1,-7.116370648E-2,3.145863488E-2,-1.495048702E-1
2.111879631E1,-5.451811850E-2,2.916795574E-2,-1.353026628E-1
2.112794922E1,-4.703523964E-2,6.872031838E-3,-1.139230132E-1
2.113710214E1,-4.627167806E-2,-2.199050039E-2,-9.315420687E-2
2.114625511E1,-4.856235534E-2,-4.718795046E-2,-7.421794534E-2
2.115540802E1,-5.405998230E-2,-7.299624383E-2,-4.184303805E-2
2.116456094E1,-5.512896553E-2,-1.030804738E-1,-1.191152167E-2
2.117371386E1,-6.123743951E-2,-1.203369126E-1,2.046338283E-2
2.118286683E1,-6.566607952E-2,-1.197260618E-1,4.779879749E-2
2.119201974E1,-6.826218218E-2,-1.232384369E-1,6.245913357E-2
2.120117266E1,-7.452336699E-2,-1.136175916E-1,6.551336497E-2
2.121032558E1,-8.521319181E-2,-7.559234649E-2,6.352811307E-2
2.121947855E1,-9.681928903E-2,-1.175880991E-2,5.558710173E-2
2.122863146E1,-1.104106456E-1,6.215370819E-2,3.405473381E-2
2.123778438E1,-1.236965731E-1,1.270562261E-1,-4.581354558E-3
2.124693730E1,-1.438545287E-1,1.763821393E-1,-3.222219273E-2
2.125609026E1,-1.375933439E-1,1.901262105E-1,-5.726693198E-2
2.126524318E1,-1.171299592E-1,1.721062213E-1,-7.116370648E-2
2.127439610E1,-9.391776472E-2,1.377460510E-1,-7.345438004E-2
2.128354902E1,-6.459710002E-2,9.269607067E-2,-6.520794332E-2
2.129270193E1,-3.329117596E-2,3.665083647E-2,-6.001574174E-2
2.130185490E1,-1.527118147E-3,-1.206423342E-2,-5.192201585E-2
2.131100782E1,2.779355086E-2,-4.932591692E-2,-4.428642616E-2
2.132016073E1,5.253286287E-2,-7.574506104E-2,-3.924693540E-2
2.132931365E1,7.299624383E-2,-8.780929446E-2,-3.237490356E-2
2.133846662E1,9.391776472E-2,-8.842013776E-2,-2.611372061E-2
2.134761954E1,1.142284349E-1,-8.414421231E-2,-2.168507688E-2
2.135677245E1,1.290414780E-1,-7.925742865E-2,-1.664558798E-2
2.136592537E1,1.363716573E-1,-8.765657991E-2,-1.298050396E-2
2.137507834E1,1.342336833E-1,-1.165191159E-1,-5.039489828E-3
2.138423126E1,1.178935245E-1,-1.653869003E-1,1.527118147E-3
2.139338417E1,9.498675168E-2,-2.232646793E-1,1.191152167E-2
2.140253709E1,7.681404054E-2,-2.702999115E-1,1.725643501E-2
2.141169006E1,6.795676053E-2,-3.051182032E-1,1.542389300E-2
2.142084297E1,6.749862432E-2,-3.268032968E-1,1.053711493E-2
2.142999589E1,7.513421029E-2,-3.377985358E-1,5.650337320E-3
2.143914881E1,8.368607610E-2,-3.347443044E-1,3.054236295E-4
2.144830172E1,9.345962852E-2,-3.190149665E-1,-3.359660041E-3
2.145745469E1,1.062874198E-1,-2.954973578E-1,-7.024743594E-3
2.146660761E1,1.201841980E-1,-2.701472044E-1,-1.114796288E-2
2.147576053E1,1.267508119E-1,-2.455606014E-1,-1.420219894E-2
2.148491349E1,1.223221645E-1,-2.269297540E-1,-1.603474095E-2
2.149406641E1,1.136175916E-1,-2.160872221E-1,-1.740914769E-2
2.150321933E1,1.043021679E-1,-2.101314515E-1,-1.863084175E-2
2.151237224E1,9.498675168E-2,-2.113531530E-1,-2.046338283E-2
2.152152516E1,8.399149776E-2,-2.166980654E-1,-2.000524849E-2
2.153067813E1,7.223268598E-2,-2.215848416E-1,-1.756185852E-2
2.153983105E1,5.879404768E-2,-2.246390730E-1,-1.343864016E-2
2.154898396E1,4.413371533E-2,-2.359397560E-1,-1.359135192E-2
2.155813688E1,4.107947648E-2,-2.565558553E-1,-1.359135192E-2
2.156728985E1,5.054761097E-2,-2.780882120E-1,-1.038440317E-2
2.157644277E1,6.673506647E-2,-2.932066917E-1,-7.788302377E-3
2.158559568E1,7.238540053E-2,-3.034383655E-1,-1.023169141E-2
2.159474860E1,6.933116168E-2,-3.083251417E-1,-1.206423342E-2
2.160390157E1,6.612421572E-2,-3.003841341E-1,-1.084253844E-2
2.161305448E1,6.123743951E-2,-2.950392365E-1,-9.162709117E-3
2.162220740E1,5.573981255E-2,-3.040492237E-1,-8.551862091E-3
2.163136032E1,4.978405312E-2,-3.232909143E-1,-9.773556143E-3
2.164051323E1,4.489727318E-2,-3.377985358E-1,-1.099525020E-2
2.164966620E1,3.894151375E-2,-3.432961702E-1,-1.404948719E-2
2.165881912E1,3.023693897E-2,-3.397837877E-1,-1.969982497E-2
2.166797204E1,2.351761982E-2,-3.445178568E-1,-2.336490713E-2
2.167712495E1,1.618745178E-2,-3.590254784E-1,-2.397575416E-2
2.168627792E1,1.068982668E-2,-3.686463237E-1,-1.863084175E-2
2.169543084E1,6.261184346E-3,-3.584146202E-1,-1.252236869E-2
2.170458376E1,6.108472589E-3,-3.420744538E-1,-1.527118147E-3
2.171373667E1,9.620844387E-3,-3.269560039E-1,1.130067464E-2
2.172288964E1,1.007897966E-2,-3.161134422E-1,1.740914769E-2
2.173204256E1,6.261184346E-3,-3.016058207E-1,1.863084175E-2
2.174119547E1,5.039489828E-3,-2.913741469E-1,1.557660475E-2
2.175034839E1,9.315420873E-3,-2.860292196E-1,7.635590620E-3
2.175950136E1,1.420219894E-2,-2.764083743E-1,-3.054236295E-4
2.176865428E1,1.832541823E-2,-2.619007528E-1,-6.413896102E-3
2.177780719E1,2.076880634E-2,-2.444916219E-1,-1.007897966E-2
2.178696011E1,2.061609551E-2,-2.305948436E-1,-1.679829881E-2
2.179611308E1,2.168507688E-2,-2.156290859E-1,-2.412846684E-2
2.180526599E1,2.015795931E-2,-1.855448484E-1,-2.840439789E-2
2.181441891E1,1.557660475E-2,-1.391204596E-1,-3.329117596E-2
2.182357183E1,1.267508045E-2,-8.979454637E-2,-3.710897267E-2
2.183272480E1,1.236965694E-2,-5.115845799E-2,-3.588727489E-2
2.184187771E1,1.221694518E-2,-3.191677108E-2,-3.588727489E-2
2.185103063E1,1.099525020E-2,-3.069507517E-2,-3.649812192E-2
2.186018355E1,6.108472589E-3,-3.970507160E-2,-3.283303976E-2
2.186933646E1,-3.817795310E-3,-4.214845970E-2,-3.176405653E-2
2.187848943E1,-1.007897966E-2,-3.787253052E-2,-2.809897438E-2
2.188764235E1,-1.191152167E-2,-3.313846514E-2,-2.687728032E-2
2.189679526E1,-7.024743594E-3,-2.458660305E-2,-2.504473738E-2
2.190594818E1,3.054236295E-4,-1.191152167E-2,-2.382304333E-2
2.191510115E1,6.261184346E-3,4.886778072E-3,-2.504473738E-2
2.192425407E1,7.330167107E-3,2.305948362E-2,-2.565558441E-2
2.193340698E1,6.566607859E-3,3.863608837E-2,-2.199050039E-2
2.194255990E1,4.581354558E-3,4.642439261E-2,-1.954711229E-2
2.195171287E1,3.970507067E-3,4.886778072E-2,-1.343864016E-2
2.196086579E1,3.970507067E-3,4.291202128E-2,-1.160609815E-2
2.197001870E1,4.734066315E-3,3.084778599E-2,-1.038440317E-2
2.197917162E1,2.290677279E-3,2.428117767E-2,-1.099525020E-2
2.198832459E1,4.886778072E-3,2.244863659E-2,-1.221694518E-2
2.199747751E1,1.038440317E-2,2.718270384E-2,-1.099525020E-2
2.200663042E1,1.771457121E-2,3.084778599E-2,-1.023169141E-2
2.201578334E1,2.321219631E-2,3.573456407E-2,-7.177455351E-3
2.202493631E1,1.939439960E-2,4.107947648E-2,-5.955760833E-3
2.203408922E1,1.007897966E-2,4.352286831E-2,-3.665083554E-3
2.204324214E1,1.527118147E-3,3.939964995E-2,-1.832541777E-3
2.205239506E1,-2.748812549E-3,2.962609194E-2,6.108472589E-4
2.206154797E1,-1.374406274E-3,2.367033064E-2,2.443389036E-3
2.207070094E1,7.941014133E-3,1.053711493E-2,4.886778072E-3
2.207985386E1,1.236965694E-2,-1.359135192E-2,5.650337320E-3
2.208900678E1,1.878355257E-2,-3.955236077E-2,4.428642802E-3
2.209815969E1,2.932066843E-2,-5.207473040E-2,1.068982668E-2
2.210731266E1,4.413371533E-2,-5.757235363E-2,1.924168877E-2
2.211646558E1,5.955760926E-2,-5.146388337E-2,2.977880463E-2
2.212561849E1,6.994201243E-2,-4.352286831E-2,3.894151375E-2
2.213477141E1,7.299624383E-2,-4.107947648E-2,4.321744293E-2
2.214392433E1,6.978929788E-2,-2.840439789E-2,4.138490185E-2
2.215307730E1,7.085828483E-2,-1.588202827E-2,4.077405483E-2
2.216223021E1,7.330167294E-2,-8.551862091E-3,3.894151375E-2
2.217138313E1,7.391251624E-2,-4.428642802E-3,3.833066672E-2
2.218053605E1,7.696675509E-2,1.679830020E-3,3.649812192E-2
2.218968902E1,7.620319724E-2,1.496575773E-2,3.710897267E-2
2.219884193E1,7.055285573E-2,1.969982497E-2,3.344388679E-2
2.220799485E1,5.405998230E-2,1.298050396E-2,2.061609551E-2
2.221714776E1,3.802524135E-2,1.603474095E-2,8.857285604E-3
2.222630073E1,2.305948362E-2,3.466558084E-2,7.635590737E-4
2.223545365E1,1.359135192E-2,6.169557199E-2,0.000000000E0
2.224460657E1,7.330167107E-3,8.338065445E-2,6.108472589E-4
2.225375948E1,1.068982761E-3,8.933641016E-2,-6.108472589E-4
2.226291240E1,-5.039489828E-3,8.567132801E-2,-5.650337320E-3
2.227206537E1,-1.542389300E-2,7.238540053E-2,-1.053711493E-2
2.228121829E1,-2.626643144E-2,5.909947306E-2,-1.664558798E-2
2.229037120E1,-3.115320951E-2,5.299099907E-2,-2.046338283E-2
