"Time (s)","Gyroscope x (rad/s)","Gyroscope y (rad/s)","Gyroscope z (rad/s)"
1.151966763E1,6.459710002E-1,-5.538857579E-1,1.238492802E-1
1.152882002E1,5.729747415E-1,-5.125008225E-1,1.061347127E-1
1.153797242E1,4.972296655E-1,-4.596625566E-1,9.895725548E-2
1.154712476E1,4.191939235E-1,-4.078932703E-1,1.032331884E-1
1.155627716E1,3.411581814E-1,-3.712424338E-1,1.130067408E-1
1.156542955E1,2.741177082E-1,-3.309265077E-1,1.253764033E-1
1.157458190E1,2.131856978E-1,-2.840439677E-1,1.444653720E-1
1.158373429E1,1.542389393E-1,-2.454078794E-1,1.696628332E-1
1.159289360E1,8.689302206E-2,-2.376195788E-1,1.930277348E-1
1.160204595E1,9.773556143E-3,-2.437280566E-1,2.076880634E-1
1.161119834E1,-7.711946964E-2,-2.330382317E-1,2.052446753E-1
1.162035074E1,-1.704263836E-1,-1.976090819E-1,1.910424829E-1
1.162950308E1,-2.619007528E-1,-1.611109674E-1,1.666085869E-1
1.163865548E1,-2.974826097E-1,-1.618745178E-1,1.333174109E-1
1.164780788E1,-2.464768738E-1,-2.047865391E-1,9.712471068E-2
1.165696027E1,-1.488940120E-1,-2.076880634E-1,6.917845458E-2
1.166611262E1,-8.368607610E-2,-1.811162084E-1,5.375456065E-2
1.167526501E1,-7.330167294E-2,-2.539597452E-1,5.619794875E-2
1.168441741E1,-8.429691941E-2,-4.118637741E-1,6.917845458E-2
1.169355704E1,-1.018587798E-1,-5.274665952E-1,1.001789495E-1
1.170272215E1,-1.429382563E-1,-5.719057322E-1,1.495048702E-1
1.171187454E1,-1.968455315E-1,-5.508314967E-1,1.740914732E-1
1.172102689E1,-2.176143378E-1,-4.984513521E-1,1.647760421E-1
1.173017928E1,-2.000524700E-1,-3.852919042E-1,1.458397806E-1
1.173933168E1,-1.582094431E-1,-2.225011140E-1,1.301104724E-1
1.174848402E1,-1.215586066E-1,-1.273616552E-1,1.206423342E-1
1.175763642E1,-1.298050433E-1,-1.623326540E-1,1.119377613E-1
1.176678881E1,-1.681357026E-1,-2.727433145E-1,9.284878522E-2
1.177594121E1,-2.203631550E-1,-3.458922505E-1,6.139015034E-2
1.178509355E1,-3.126010895E-1,-2.924431264E-1,1.679829881E-2
1.179424595E1,-4.462239146E-1,-1.507265568E-1,-2.153236605E-2
1.180339834E1,-6.007682681E-1,-8.536590636E-2,-3.665083647E-2
1.181255069E1,-7.441646457E-1,-1.837123185E-1,-3.878879920E-2
1.182170308E1,-8.709154725E-1,-3.472666740E-1,-2.382304333E-2
1.183084272E1,-9.842276573E-1,-3.658975065E-1,7.788302377E-3
1.184000782E1,-1.072495103E0,-1.653869003E-1,4.428642616E-2
1.184916022E1,-1.120446563E0,7.941014320E-2,6.704048812E-2
1.185831262E1,-1.125486016E0,1.805053651E-1,4.856235534E-2
1.186746501E1,-1.114338160E0,1.122431830E-1,1.023169141E-2
1.187661735E1,-1.104259133E0,3.634541109E-2,-1.053711493E-2
1.188576975E1,-1.126860499E0,6.826218218E-2,2.290677279E-3
1.189492215E1,-1.168550849E0,1.792836636E-1,3.848337755E-2
1.190407449E1,-1.178018928E0,2.451024652E-1,7.681404054E-2
1.191322689E1,-1.199245930E0,1.998997629E-1,1.059819981E-1
1.192237928E1,-1.302326322E0,1.287360638E-1,1.414111406E-1
1.193153162E1,-1.445722699E0,1.456870735E-1,1.922641695E-1
1.194068402E1,-1.569724798E0,2.095206082E-1,2.457133085E-1
1.194983642E1,-1.624395609E0,2.397575527E-1,2.806843221E-1
1.195898881E1,-1.632489324E0,3.109212518E-1,2.951919436E-1
1.196814116E1,-1.621035933E0,4.103366435E-1,2.939702570E-1
1.197729355E1,-1.607139111E0,4.440859556E-1,2.861819267E-1
1.198644595E1,-1.622104883E0,4.115583301E-1,2.719797492E-1
1.199558558E1,-1.656312346E0,3.715478480E-1,2.644968629E-1
1.200475069E1,-1.686396599E0,3.498627543E-1,2.808370292E-1
1.201390308E1,-1.711593986E0,3.342861533E-1,3.032856584E-1
1.202305543E1,-1.738776684E0,3.361186981E-1,3.084778786E-1
1.203220782E1,-1.735111594E0,3.510844707E-1,2.822114229E-1
1.204136022E1,-1.705027461E0,3.081724346E-1,2.458660156E-1
1.205049985E1,-1.683495045E0,2.687727809E-1,1.837123185E-1
1.205966496E1,-1.694490314E0,2.144073844E-1,1.336228400E-1
1.206881735E1,-1.696322799E0,1.502684206E-1,1.068982705E-1
1.207796975E1,-1.658297539E0,1.273616552E-1,7.421794534E-2
1.208712209E1,-1.623632073E0,1.899735034E-1,3.527642787E-2
1.209627449E1,-1.619203329E0,2.722851634E-1,-1.114796288E-2
1.210542689E1,-1.617523551E0,3.323009014E-1,-7.406523079E-2
1.211457923E1,-1.622715712E0,4.520269632E-1,-1.401894391E-1
1.212373163E1,-1.656006932E0,6.175665855E-1,-1.783674061E-1
1.213288402E1,-1.714190125E0,7.814263701E-1,-1.704263836E-1
1.214203637E1,-1.744579792E0,9.225320816E-1,-1.291942000E-1
1.215118876E1,-1.739845753E0,1.048672080E0,-7.314895838E-2
1.216034116E1,-1.688534498E0,1.144116879E0,-2.397575416E-2
1.216949355E1,-1.600114346E0,1.164885759E0,1.023169141E-2
1.217864590E1,-1.524369359E0,1.174811959E0,3.100049868E-2
1.218779829E1,-1.450151443E0,1.222458124E0,2.412846684E-2
1.219695069E1,-1.362952948E0,1.320804477E0,1.542389300E-2
1.220610303E1,-1.275754452E0,1.439003468E0,1.603474095E-2
1.221525543E1,-1.217265844E0,1.571709991E0,2.367033064E-2
1.222440782E1,-1.174964666E0,1.733889937E0,3.726168349E-2
1.223356022E1,-1.109756708E0,1.884158373E0,4.688252881E-2
1.224271256E1,-1.027445078E0,1.990903974E0,5.344913527E-2
1.225186496E1,-9.498674870E-1,2.055653811E0,6.490252167E-2
1.226101735E1,-9.113841057E-1,2.098412991E0,6.383354217E-2
1.227015699E1,-9.200887084E-1,2.111698866E0,4.734066129E-2
1.227932209E1,-9.517000318E-1,2.070008755E0,3.619270027E-2
1.228847449E1,-9.599464536E-1,1.947075605E0,4.902049154E-2
1.229761412E1,-9.300149679E-1,1.759240150E0,8.047912270E-2
1.230677923E1,-8.690829277E-1,1.546054363E0,1.116323397E-1
1.231593163E1,-7.979192138E-1,1.295607090E0,1.281252056E-1
1.232508402E1,-7.230904698E-1,9.956810474E-1,1.313321590E-1
1.233423636E1,-6.452074051E-1,6.740699410E-1,1.346918195E-1
1.234338876E1,-5.581616759E-1,3.807105422E-1,1.427855492E-1
1.235254116E1,-4.621059597E-1,1.795890927E-1,1.545443535E-1
1.236169355E1,-3.819322586E-1,9.773556143E-2,1.612636745E-1
1.237084590E1,-3.245126009E-1,9.834641218E-2,1.464506239E-1
1.237998553E1,-2.924431264E-1,1.875301152E-1,1.136175916E-1
1.238915069E1,-2.777827978E-1,3.513898849E-1,6.841489673E-2
1.239830303E1,-2.673983872E-1,5.222744346E-1,2.504473738E-2
1.240745543E1,-2.786990702E-1,6.468872428E-1,-1.298050396E-2
1.241660782E1,-3.303156495E-1,7.153021693E-1,-5.925218388E-2
1.242576017E1,-4.098785222E-1,7.392778993E-1,-8.490777016E-2
1.243491256E1,-5.010474920E-1,7.890619636E-1,-9.468132257E-2
1.244406496E1,-5.598415136E-1,8.347227573E-1,-1.036913246E-1
1.245321735E1,-5.421269536E-1,8.443436027E-1,-1.114796251E-1
1.246236970E1,-4.731011987E-1,7.896727920E-1,-1.250709742E-1
1.247152209E1,-4.280512035E-1,7.203416228E-1,-1.404948682E-1
1.248067449E1,-4.333961308E-1,6.381826997E-1,-1.637070626E-1
1.248982683E1,-4.544703662E-1,5.899257660E-1,-1.834068894E-1
1.249897923E1,-4.672981501E-1,5.868715048E-1,-1.913478971E-1
1.250813162E1,-4.647020400E-1,5.705313683E-1,-1.925695986E-1
1.251728397E1,-4.575245976E-1,5.308262706E-1,-2.021904439E-1
1.252643636E1,-4.611896873E-1,4.572191834E-1,-2.241809368E-1
1.253558876E1,-4.767662883E-1,3.582619131E-1,-2.487675399E-1
1.254474116E1,-4.892886579E-1,2.490729690E-1,-2.640387416E-1
1.255389350E1,-4.880669713E-1,1.850867122E-1,-2.638860047E-1
1.256304590E1,-4.547757804E-1,1.809635013E-1,-2.605263591E-1
1.257219829E1,-4.095730782E-1,2.125748396E-1,-2.577775419E-1
1.258135069E1,-3.617742956E-1,2.504473627E-1,-2.544178963E-1
1.259050303E1,-3.164188862E-1,2.741177082E-1,-2.418955117E-1
1.259965543E1,-2.678565085E-1,2.779355049E-1,-2.202104330E-1
1.260880782E1,-2.195995897E-1,2.473931462E-1,-1.985253543E-1
1.261796017E1,-1.846285909E-1,1.931804419E-1,-1.792836636E-1
1.262711256E1,-1.698155403E-1,1.035386100E-1,-1.699682474E-1
1.263626496E1,-1.863084137E-1,2.458660305E-2,-1.632489264E-1
1.264541730E1,-2.137965411E-1,-1.114796288E-2,-1.605001241E-1
1.265456970E1,-2.231119573E-1,7.635590620E-3,-1.659977436E-1
1.266372209E1,-1.928750277E-1,7.696675509E-2,-1.664558798E-1
1.267287449E1,-1.301104724E-1,1.440072358E-1,-1.513374150E-1
1.268202683E1,-7.131642103E-2,1.646233350E-1,-1.327065676E-1
1.269117923E1,-3.344388679E-2,1.262926757E-1,-1.159082651E-1
1.270033162E1,-3.359660041E-3,6.612421572E-2,-9.666658193E-2
1.270948397E1,3.329117596E-2,1.969982497E-2,-7.437065244E-2
1.271863636E1,9.071081877E-2,7.941014133E-3,-4.230117425E-2
1.272778876E1,1.685938388E-1,2.748812735E-2,4.581354558E-3
1.273694116E1,2.557922900E-1,4.046862945E-2,5.405998230E-2
1.274609350E1,3.469612300E-1,1.130067464E-2,1.000262350E-1
1.275524590E1,4.570664763E-1,-4.672981426E-2,1.466033459E-1
1.276439829E1,5.974085927E-1,-1.241547018E-1,1.982199401E-1
1.277355064E1,7.757760286E-1,-2.266243398E-1,2.392994165E-1
1.278270303E1,9.900307059E-1,-3.437542915E-1,2.660239935E-1
1.279185543E1,1.245517612E0,-4.559974670E-1,2.739650011E-1
1.280100782E1,1.541014910E0,-5.549547076E-1,2.693836391E-1
1.281016017E1,1.886296391E0,-6.291726828E-1,2.530434728E-1
1.281929980E1,2.306406498E0,-6.629219651E-1,2.333436459E-1
1.282846496E1,2.794931650E0,-6.284091473E-1,2.215848416E-1
1.283761730E1,3.315984249E0,-4.378247857E-1,2.098260373E-1
1.284676970E1,3.775188684E0,-2.226538211E-1,1.951656938E-1
1.285592209E1,4.025025368E0,-4.734066129E-2,2.286095917E-1
1.286507449E1,4.007616043E0,-2.214321308E-2,3.781144619E-1
1.287421412E1,3.813366652E0,-2.148655206E-1,6.552863717E-1
1.288337923E1,3.601708174E0,-5.590779781E-1,9.923213720E-1
1.289253162E1,3.470528603E0,-9.251281619E-1,1.309809208E0
1.290167126E1,3.358743668E0,-1.167023659E0,1.568808436E0
1.291083637E1,3.163883448E0,-1.252694964E0,1.768402815E0
1.291998876E1,2.947643518E0,-1.397313118E0,1.882936716E0
1.292912840E1,2.875868797E0,-1.839719176E0,1.884005666E0
1.293829350E1,3.046906233E0,-2.385358572E0,1.766570330E0
1.294744590E1,3.421660900E0,-2.771261215E0,1.551399350E0
1.295658553E1,3.791987181E0,-2.826695681E0,1.255443811E0
1.296575069E1,3.945004225E0,-2.644205093E0,9.785773158E-1
1.297490303E1,3.862692595E0,-2.394826651E0,8.220477104E-1
1.298404267E1,3.656073570E0,-2.153694630E0,7.989882231E-1
1.299320782E1,3.467932701E0,-1.876522779E0,8.402203918E-1
1.300236017E1,3.358285427E0,-1.408919215E0,8.806890249E-1
1.301149980E1,3.266963959E0,-7.931851745E-1,8.948912621E-1
1.302066496E1,3.123261929E0,-2.197522968E-1,8.904625773E-1
1.302981735E1,2.929928780E0,1.882936656E-1,8.686248064E-1
1.303895694E1,2.707733154E0,4.379774928E-1,8.380824327E-1
1.304812209E1,2.488744497E0,5.407525301E-1,8.170081973E-1
1.305727449E1,2.301367044E0,5.648810267E-1,7.814263701E-1
1.306641413E1,2.159650564E0,5.030327439E-1,7.340856791E-1
1.307557923E1,2.051072359E0,3.260397315E-1,6.760551929E-1
1.308473163E1,1.963568568E0,7.849387079E-2,6.114581227E-1
1.309387126E1,1.880493283E0,-1.695101112E-1,5.317425132E-1
1.310303637E1,1.811467528E0,-3.990359604E-1,4.300364852E-1
1.311218876E1,1.755880475E0,-5.586197972E-1,3.264978528E-1
1.312134116E1,1.684105873E0,-6.210789680E-1,2.460187376E-1
1.313049355E1,1.580872655E0,-6.268820167E-1,1.849340051E-1
1.313964590E1,1.443890214E0,-6.085565686E-1,1.521009654E-1
1.314879829E1,1.272547603E0,-5.949652195E-1,1.569877416E-1
1.315795069E1,1.090056896E0,-6.042806506E-1,1.753131598E-1
1.316710303E1,9.045121074E-1,-6.152759194E-1,1.788255423E-1
1.317624267E1,7.197307944E-1,-6.198572516E-1,1.659977436E-1
1.318540782E1,5.428904891E-1,-6.256603003E-1,1.438545287E-1
1.319456022E1,3.776563108E-1,-6.633801460E-1,1.214058921E-1
1.320369985E1,2.195995897E-1,-6.920899153E-1,8.490777016E-2
1.321286496E1,5.115845799E-2,-6.558972597E-1,2.993151546E-2
1.322201735E1,-1.385096163E-1,-5.870242119E-1,-5.039489828E-3
1.323116975E1,-3.376458287E-1,-5.095993280E-1,-6.413896102E-3
1.324032209E1,-5.369347334E-1,-4.182776511E-1,1.282779220E-2
1.324947449E1,-7.255338430E-1,-3.034383655E-1,3.894151375E-2
1.325861413E1,-8.716790676E-1,-2.150182426E-1,4.275930673E-2
1.326777923E1,-9.633061290E-1,-1.574458778E-1,4.734066315E-3
1.327693163E1,-9.964445829E-1,-7.223268598E-2,-8.964183182E-2
1.328607126E1,-1.017213345E0,6.749862432E-2,-2.370087355E-1
1.329523642E1,-1.028514028E0,1.710372269E-1,-4.149180055E-1
1.330438876E1,-9.517000318E-1,1.145338640E-1,-5.450284481E-1
1.331352840E1,-7.924215794E-1,9.910997003E-2,-5.670189857E-1
1.332269355E1,-9.150491953E-1,2.657185495E-1,-4.868452549E-1
1.333184590E1,-1.627144337E0,-1.905843467E-1,-3.724641204E-1
1.334098553E1,-2.283652544E0,-7.837170362E-1,-2.800734639E-1
1.335015069E1,-2.235242844E0,-3.390202224E-1,-1.281252056E-1
1.335930308E1,-1.899582267E0,5.790832043E-1,8.918370306E-2
1.336844272E1,-2.031983376E0,9.538379908E-1,1.215586066E-1
1.337760782E1,-2.516996145E0,7.539382577E-1,-7.101099193E-2
1.338676022E1,-2.522799253E0,4.847072959E-1,-1.936385781E-1
1.339589985E1,-2.154152870E0,3.474193811E-1,-1.853921413E-1
1.340506496E1,-2.043436766E0,1.546970755E-1,-1.521009654E-1
1.341421735E1,-2.163468361E0,-1.079672500E-1,-1.081199646E-1
1.342335699E1,-2.201188087E0,-4.561502039E-1,-6.917845458E-2
1.343252209E1,-2.050003290E0,-8.553388715E-1,-1.832541823E-2
1.344167449E1,-1.895306349E0,-1.166107416E0,8.368607610E-2
1.345081412E1,-1.865527511E0,-1.260788798E0,2.464768738E-1
1.345997928E1,-1.795890927E0,-1.273921967E0,3.917058110E-1
1.346913163E1,-1.603932142E0,-1.199093223E0,4.833329022E-1
1.347827126E1,-1.441141367E0,-1.085933685E0,5.405998230E-1
1.348743642E1,-1.400978208E0,-9.726215601E-1,5.407525301E-1
1.349658881E1,-1.429687977E0,-9.005415440E-1,4.703523815E-1
1.350572845E1,-1.479013920E0,-7.608102560E-1,3.495573401E-1
1.351489355E1,-1.559645772E0,-5.720584393E-1,2.212794125E-1
1.352404595E1,-1.612636805E0,-3.206948042E-1,1.249182671E-1
1.353319834E1,-1.608055353E0,-3.955236077E-2,4.825693369E-2
1.354235069E1,-1.579345584E0,2.272351831E-1,-1.145338640E-2
1.355150308E1,-1.519940734E0,4.266768098E-1,-4.840964451E-2
1.356064272E1,-1.417012930E0,5.845808387E-1,-8.933641016E-2
1.356980788E1,-1.319582820E0,6.717792749E-1,-1.430909634E-1
1.357896022E1,-1.236965656E0,6.981984377E-1,-1.992889196E-1
1.358811262E1,-1.165343881E0,7.802046537E-1,-2.312056869E-1
1.359726501E1,-1.151447058E0,9.483403563E-1,-2.360924631E-1
1.360641735E1,-1.156028390E0,1.110367656E0,-2.386885732E-1
1.361555699E1,-1.183669329E0,1.328440070E0,-2.641914487E-1
1.362472215E1,-1.231009960E0,1.554759026E0,-3.098522723E-1
1.363387454E1,-1.261399627E0,1.878049850E0,-3.730749488E-1
1.364302689E1,-1.285680771E0,2.209281921E0,-4.266768098E-1
1.365217928E1,-1.305380583E0,2.509818792E0,-4.648547769E-1
1.366133168E1,-1.321720719E0,2.754921198E0,-4.847072959E-1
1.367047131E1,-1.316681266E0,2.892972708E0,-4.854708612E-1
1.367963642E1,-1.294690728E0,2.961845636E0,-4.621059597E-1
1.368878881E1,-1.259872437E0,2.915574074E0,-4.178195298E-1
1.369792845E1,-1.213142633E0,2.759044409E0,-3.717005551E-1
1.370709360E1,-1.150378108E0,2.562962294E0,-3.429907262E-1
1.371624595E1,-1.142437100E0,2.359855652E0,-3.494046330E-1
1.372538558E1,-1.217876673E0,2.199813604E0,-3.901786804E-1
1.373455074E1,-1.304311633E0,2.086196184E0,-4.450022280E-1
1.374370308E1,-1.294232607E0,1.866138339E0,-4.705050886E-1
1.375285548E1,-1.222458124E0,1.568044901E0,-4.734066129E-1
1.376200788E1,-1.161373377E0,1.285375357E0,-4.844018817E-1
1.377116027E1,-1.143811464E0,1.063026905E0,-5.176930428E-1
1.378031262E1,-1.103648305E0,8.562551737E-1,-5.593833923E-1
1.378946501E1,-1.088071704E0,7.748597264E-1,-5.763344169E-1
1.379861741E1,-1.158319116E0,7.644753456E-1,-5.767925382E-1
1.380776980E1,-1.167939901E0,6.065713167E-1,-5.871769190E-1
1.381692215E1,-1.102273822E0,3.081724346E-1,-6.303943992E-1
1.382607454E1,-1.077381849E0,9.223793447E-2,-6.862868667E-1
1.383521418E1,-1.081046939E0,4.627167806E-2,-7.064448595E-1
1.384437933E1,-1.050199151E0,1.525591016E-1,-6.763606071E-1
1.385353168E1,-9.926267862E-1,3.174878657E-1,-6.332958937E-1
1.386268407E1,-9.358180165E-1,4.375193417E-1,-6.030589342E-1
1.387183647E1,-9.083298445E-1,4.628695250E-1,-5.943543911E-1
1.388098881E1,-9.206995368E-1,4.706578255E-1,-6.000047326E-1
1.389014121E1,-9.408574700E-1,5.273138881E-1,-6.068767309E-1
1.389929360E1,-9.524635673E-1,5.766398311E-1,-6.186355352E-1
1.390844600E1,-9.129112363E-1,5.670189857E-1,-6.207735538E-1
1.391758564E1,-7.774558663E-1,5.716003180E-1,-5.868715048E-1
1.392675074E1,-5.444176197E-1,5.928272605E-1,-4.929537475E-1
1.393590314E1,-2.249445021E-1,4.895940721E-1,-3.397837877E-1
1.394504277E1,1.734806150E-1,1.907370538E-1,-1.792836636E-1
1.395420788E1,5.928272605E-1,-2.353289127E-1,-7.146912813E-2
1.396336027E1,9.862129092E-1,-6.119162440E-1,-3.115320951E-2
1.397251267E1,1.317292094E0,-8.449544907E-1,-9.162709117E-3
1.398166506E1,1.578276634E0,-9.697200060E-1,4.520269856E-2
1.399081741E1,1.808718681E0,-1.007592559E0,1.397313178E-1
1.399995704E1,2.067870617E0,-9.391776323E-1,2.422009408E-1
1.400912220E1,2.385511160E0,-7.334748507E-1,3.213056624E-1
1.401827459E1,2.700555801E0,-4.749337435E-1,3.800997138E-1
1.402741418E1,2.967801332E0,-2.108950168E-1,4.556920528E-1
1.403657933E1,3.112877607E0,-9.391776472E-2,5.769452453E-1
1.404573173E1,3.094857693E0,-2.209739983E-1,7.594358325E-1
1.405487136E1,2.963067293E0,-7.010999322E-1,1.003163934E0
1.406403647E1,2.844257593E0,-1.311947227E0,1.250098944E0
1.407318886E1,2.840439796E0,-1.807802439E0,1.418387294E0
1.408232850E1,2.894194365E0,-2.074437380E0,1.502684236E0
1.409149360E1,2.934663057E0,-2.206685781E0,1.537807941E0
1.410064600E1,2.972840786E0,-2.413915634E0,1.541931152E0
1.410978564E1,3.047669649E0,-2.639318228E0,1.513221383E0
1.411895079E1,3.189538956E0,-2.763014793E0,1.442973971E0
1.412810314E1,3.390813112E0,-2.864262819E0,1.325996637E0
1.413724277E1,3.545357466E0,-2.903815269E0,1.159235358E0
1.414640793E1,3.567042589E0,-2.717506647E0,1.026681542E0
1.415556032E1,3.473430157E0,-2.238602400E0,1.015228152E0
1.416469996E1,3.344694138E0,-1.600267053E0,1.120751977E0
1.417386506E1,3.255510569E0,-9.961391687E-1,1.265675545E0
1.418301746E1,3.183735847E0,-4.540122151E-1,1.383263588E0
1.419215709E1,3.074547052E0,-6.047387794E-2,1.443279386E0
1.420132220E1,2.910381794E0,1.850867122E-1,1.433353066E0
1.421047459E1,2.710023880E0,2.744231224E-1,1.375627995E0
1.421961423E1,2.524020910E0,2.967190444E-1,1.293163657E0
1.422877939E1,2.347027779E0,2.840439677E-1,1.209477544E0
1.423793173E1,2.170187712E0,2.412846684E-1,1.134343386E0
1.424707136E1,2.020682812E0,1.122431830E-1,1.042410851E0
1.425623652E1,1.915922403E0,-4.810422286E-2,9.147437811E-1
1.426538892E1,1.839108348E0,-1.366770715E-1,7.731798887E-1
1.427454126E1,1.766112089E0,-1.904316396E-1,6.279509664E-1
1.428369366E1,1.682884216E0,-2.560977042E-1,5.047125220E-1
1.429284605E1,1.578276634E0,-3.770454824E-1,4.240806997E-1
1.430199845E1,1.460230350E0,-5.239542127E-1,3.640649617E-1
1.431115079E1,1.327065706E0,-6.383354068E-1,3.003841341E-1
1.432030319E1,1.177713513E0,-7.099572420E-1,2.345653474E-1
1.432944282E1,1.024085402E0,-7.328640223E-1,1.583621502E-1
1.433860798E1,8.669449687E-1,-7.079719901E-1,7.727217674E-2
1.434776032E1,7.000309825E-1,-6.742226481E-1,-4.581354558E-3
1.435689996E1,5.155550838E-1,-6.218425035E-1,-8.276980370E-2
1.436606512E1,3.156553209E-1,-5.723638535E-1,-1.476723254E-1
1.437521751E1,1.200314835E-1,-5.366293192E-1,-1.901262105E-1
1.438436985E1,-5.589252338E-2,-4.888305068E-1,-2.041756958E-1
1.439352225E1,-2.206685692E-1,-3.987305462E-1,-1.931804419E-1
1.440267465E1,-4.019374847E-1,-2.663294077E-1,-1.670667231E-1
1.441181428E1,-5.503733754E-1,-1.382041872E-1,-1.750077456E-1
1.442097939E1,-5.740436912E-1,-2.092151903E-2,-2.252499312E-1
1.443013178E1,-5.056288242E-1,2.296785712E-1,-2.890834510E-1
1.443927142E1,-3.920112252E-1,5.964923501E-1,-3.800997138E-1
1.444843657E1,-4.311054647E-1,7.980719209E-1,-4.685198367E-1
1.445758897E1,-6.705575585E-1,5.923691392E-1,-5.464028716E-1
1.446672855E1,-9.626953006E-1,6.210789680E-1,-6.271874309E-1
1.447589371E1,-1.468018651E0,1.054627776E0,-6.806365848E-1
1.448504610E1,-2.146059036E0,5.587725043E-1,-6.653653979E-1
1.449418574E1,-2.376806736E0,-2.718270421E-1,-4.876088202E-1
1.450335084E1,-1.880798697E0,5.289937258E-1,-5.665608495E-2
1.451250324E1,-1.478708506E0,1.656770468E0,3.307738006E-1
1.452164288E1,-1.917449594E0,1.349056125E0,2.038702667E-1
1.453080803E1,-2.147891760E0,5.700731874E-1,-1.073564067E-1
1.453996038E1,-1.485427856E0,6.658235192E-2,-1.456870735E-1
1.454910001E1,-1.171604991E0,-2.951919436E-1,-1.634016484E-1
1.455826517E1,-1.428313613E0,-2.163926363E-1,-2.489202619E-1
1.456741756E1,-1.536738992E0,-3.588727713E-1,-2.538070381E-1
1.457655720E1,-1.426786542E0,-7.324058414E-1,-1.189625040E-1
1.458572230E1,-1.390288353E0,-7.867712975E-1,1.151447073E-1
1.459487470E1,-1.433353066E0,-6.293253899E-1,3.315373361E-1
1.460401433E1,-1.393800735E0,-5.958815217E-1,4.019374847E-1
1.461317944E1,-1.245670319E0,-6.609367132E-1,3.371876776E-1
1.462233183E1,-1.129303813E0,-7.160657048E-1,2.128802687E-1
1.463147147E1,-1.124111652E0,-6.829272509E-1,6.261184067E-2
1.464063662E1,-1.125486016E0,-5.906893015E-1,-9.498675168E-2
1.464978897E1,-1.091584086E0,-4.563029110E-1,-2.286095917E-1
1.465892860E1,-1.048824787E0,-2.968717813E-1,-3.176405728E-1
1.466809376E1,-1.027597785E0,-9.987352788E-2,-3.565820754E-1
1.467724616E1,-1.042410851E0,1.832541823E-1,-3.703261614E-1
1.468639850E1,-1.086697221E0,4.393518865E-1,-3.646758199E-1
1.469555090E1,-1.088682532E0,6.725428104E-1,-3.564293683E-1
1.470470329E1,-1.117850542E0,8.292251825E-1,-3.573456407E-1
1.471385569E1,-1.161831498E0,9.284878373E-1,-3.765873313E-1
1.472300803E1,-1.175117373E0,1.044701576E0,-4.001049399E-1
1.473216043E1,-1.179851532E0,1.109145880E0,-4.074351192E-1
1.474131282E1,-1.179393291E0,1.115254402E0,-4.025483429E-1
1.475046522E1,-1.170077920E0,1.113421798E0,-3.964398801E-1
1.475961762E1,-1.205812454E0,1.100746751E0,-3.855973184E-1
1.476876996E1,-1.229941010E0,1.182752967E0,-3.834593594E-1
1.477792235E1,-1.206881523E0,1.302020907E0,-3.949127495E-1
1.478707475E1,-1.206728816E0,1.442821264E0,-4.311054647E-1
1.479622715E1,-1.262315869E0,1.611262321E0,-4.810422063E-1
1.480537949E1,-1.347834468E0,1.692963123E0,-5.415160656E-1
1.481453189E1,-1.400214672E0,1.719076872E0,-5.890094638E-1
1.482368428E1,-1.418998241E0,1.823837161E0,-6.117635369E-1
1.483283668E1,-1.436254621E0,1.969066143E0,-6.106945276E-1
1.484198902E1,-1.439308882E0,2.096275091E0,-5.900784731E-1
1.485114142E1,-1.435796499E0,2.100092888E0,-5.595360994E-1
1.486029381E1,-1.444653749E0,1.980824947E0,-5.277720094E-1
1.486944621E1,-1.463284612E0,1.845369577E0,-5.059342384E-1
1.487858584E1,-1.474432588E0,1.703042150E0,-5.094466209E-1
1.488775095E1,-1.454274654E0,1.457787037E0,-5.427377820E-1
1.489690334E1,-1.411057115E0,1.131594539E0,-6.001574397E-1
1.490605574E1,-1.404337883E0,8.835905790E-1,-6.635328531E-1
1.491520808E1,-1.416402102E0,7.502731681E-1,-7.191199064E-1
1.492436048E1,-1.440072417E0,5.932853818E-1,-7.698202729E-1
1.493351288E1,-1.465575337E0,4.249969721E-1,-8.101361990E-1
1.494266527E1,-1.435338378E0,3.652866483E-1,-8.397622705E-1
1.495181762E1,-1.404490590E0,3.671191931E-1,-8.579349518E-1
1.496097001E1,-1.377613306E0,3.990359604E-1,-8.620582223E-1
1.497012241E1,-1.363105655E0,4.912739098E-1,-8.522846103E-1
1.497927480E1,-1.340962410E0,6.305471063E-1,-8.331956863E-1
1.498842720E1,-1.303242683E0,8.254073858E-1,-8.142594099E-1
1.499757954E1,-1.300951958E0,9.730796814E-1,-7.995990515E-1
1.500673194E1,-1.347987175E0,9.868237376E-1,-8.066238165E-1
1.501588433E1,-1.369977713E0,9.119949341E-1,-8.342646360E-1
1.502503673E1,-1.334701300E0,7.737907767E-1,-8.693883419E-1
1.503418907E1,-1.274532795E0,6.152759194E-1,-9.072608948E-1
1.504332871E1,-1.228108406E0,4.550811946E-1,-9.306257963E-1
1.505249386E1,-1.147476554E0,3.292466700E-1,-9.135220647E-1
1.506164626E1,-9.993461370E-1,2.055501044E-1,-8.463288546E-1
1.507078590E1,-7.479824424E-1,1.594311297E-1,-7.255338430E-1
1.507995100E1,-3.721587062E-1,2.403683960E-1,-5.610632300E-1
1.508910340E1,1.056765765E-1,2.773246467E-1,-3.800997138E-1
1.509825579E1,6.514685750E-1,1.643179059E-1,-2.105895877E-1
1.510740814E1,1.202147365E0,2.901524538E-3,-7.650861889E-2
1.511656053E1,1.703042150E0,-1.579040140E-1,4.489727318E-2
1.512570017E1,2.132620573E0,-2.681619525E-1,1.488940120E-1
1.513486532E1,2.495311022E0,-2.858765125E-1,2.570139766E-1
1.514401767E1,2.763014793E0,-2.904578745E-1,3.889569938E-1
1.515315735E1,2.960165739E0,-2.298312783E-1,5.552601814E-1
1.516232246E1,3.070881844E0,-7.773031294E-2,7.311841846E-1
1.517147485E1,3.065842390E0,-8.246437646E-3,9.246700406E-1
1.518061449E1,2.964136362E0,-1.792836636E-1,1.134190679E0
1.518977959E1,2.854794741E0,-5.335750580E-1,1.333326817E0
1.519893199E1,2.793404579E0,-1.078908920E0,1.535364628E0
1.520807162E1,2.760266066E0,-1.609124422E0,1.752368093E0
1.521723678E1,2.735679388E0,-2.048934460E0,1.930124640E0
1.522638918E1,2.743314981E0,-2.521730185E0,1.985558987E0
1.523552876E1,2.813562393E0,-3.173962355E0,1.900956631E0
1.524469392E1,2.977422237E0,-3.651034117E0,1.738776684E0
1.525384631E1,3.228175163E0,-3.488548756E0,1.581789017E0
1.526298595E1,3.445789337E0,-3.022166729E0,1.470003963E0
1.527215105E1,3.521687269E0,-2.641608953E0,1.391510010E0
1.528130345E1,3.472666740E0,-2.241503954E0,1.369366884E0
1.529044308E1,3.345457792E0,-1.755269647E0,1.418234587E0
1.529960824E1,3.167243004E0,-1.232689738E0,1.510625243E0
1.530876058E1,2.965358019E0,-7.482879162E-1,1.578582048E0
1.531790022E1,2.777675152E0,-3.587200642E-1,1.586675763E0
1.532706538E1,2.625726938E0,-1.626380831E-1,1.543305635E0
1.533621777E1,2.507680655E0,-1.673721522E-1,1.473516345E0
1.534535741E1,2.412083149E0,-2.582356930E-1,1.384943485E0
1.535452251E1,2.330076933E0,-3.497100472E-1,1.293469071E0
1.536367491E1,2.243183851E0,-3.929274976E-1,1.215280652E0
1.537281454E1,2.120098114E0,-4.367557764E-1,1.127165914E0
1.538197970E1,1.977770686E0,-5.332696438E-1,1.020573020E0
1.539113204E1,1.844147921E0,-6.256603003E-1,8.756495714E-1
1.540028444E1,1.714648247E0,-6.818582416E-1,7.140804529E-1
1.540943683E1,1.571251869E0,-7.049177289E-1,5.781669021E-1
1.541858923E1,1.428160906E0,-7.701256871E-1,4.575245976E-1
1.542772886E1,1.258956194E0,-8.376243114E-1,3.610107303E-1
1.543689397E1,1.052947998E0,-8.564078808E-1,2.887780368E-1
1.544604636E1,8.235748410E-1,-8.130376935E-1,2.174616307E-1
1.545518600E1,5.984776020E-1,-6.884248853E-1,1.247655526E-1
1.546435116E1,3.623851240E-1,-4.950917065E-1,1.068982668E-2
1.547350350E1,9.880454093E-2,-3.356605768E-1,-9.513945878E-2
1.548264314E1,-1.974563748E-1,-3.190149665E-1,-1.643179059E-1
1.549180829E1,-4.963133931E-1,-4.497362971E-1,-1.968455315E-1
1.550096069E1,-7.840224504E-1,-5.424323678E-1,-2.006633282E-1
1.551010032E1,-1.042410851E0,-4.483618736E-1,-2.142546773E-1
1.551926543E1,-1.256665468E0,-1.168245375E-1,-2.611372173E-1
1.552841782E1,-1.343863964E0,3.089359999E-1,-3.298575282E-1
1.553755746E1,-1.124111652E0,7.343910933E-1,-4.324798584E-1
1.554672256E1,-7.594358325E-1,1.048824787E0,-6.053496599E-1
1.555587496E1,-1.094943762E0,7.485933304E-1,-6.563553810E-1
1.556501459E1,-2.044047594E0,1.875301152E-1,-5.465555787E-1
1.557417975E1,-3.106463671E0,-2.838912606E-1,-4.926483035E-1
1.558333215E1,-3.558948755E0,-1.038440317E-2,-4.625640810E-1
1.559247173E1,-2.620534658E0,1.700140595E0,-1.530172378E-1
1.560163689E1,-1.743052602E0,2.576400995E0,2.634278834E-1
1.561078928E1,-1.817576051E0,1.117239594E0,2.444916219E-1
1.561992892E1,-1.987697005E0,-4.650074840E-1,6.368082762E-2
1.562909407E1,-1.665475011E0,-9.620844126E-1,9.071081877E-2
1.563824642E1,-1.384179831E0,-1.195428133E0,1.007898003E-1
1.564738605E1,-1.346460104E0,-1.307213187E0,2.901524538E-3
1.565655121E1,-1.172674060E0,-1.213142633E0,-3.939964995E-2
1.566570360E1,-1.177866220E0,-1.282779217E0,2.473931387E-2
1.567484324E1,-1.407392025E0,-1.295301557E0,1.246128380E-1
1.568400834E1,-1.515817523E0,-1.055391312E0,2.029540092E-1
1.569316074E1,-1.518871665E0,-7.096518278E-1,1.849340051E-1
1.570231314E1,-1.475196123E0,-3.689517379E-1,7.269082218E-2
1.571146548E1,-1.428160906E0,-6.261184067E-2,-4.199574888E-2
1.572061788E1,-1.420219898E0,1.270562261E-1,-1.043021679E-1
1.572975751E1,-1.400978208E0,1.800472289E-1,-1.065928489E-1
1.573892267E1,-1.359287858E0,2.521272004E-1,-6.673506647E-2
1.574807506E1,-1.344932914E0,3.414636254E-1,-1.175880991E-2
1.575721470E1,-1.321415305E0,3.755183518E-1,4.520269856E-2
1.576637980E1,-1.250251651E0,4.559974670E-1,8.842013776E-2
1.577553220E1,-1.190388560E0,5.905365944E-1,1.137702987E-1
1.578467183E1,-1.167787194E0,6.743753552E-1,1.388150454E-1
1.579383699E1,-1.210393786E0,7.353073955E-1,1.513374150E-1
1.580298933E1,-1.297897696E0,8.229639530E-1,1.250709742E-1
1.581214173E1,-1.361731291E0,8.243383765E-1,5.497625470E-2
1.582129413E1,-1.365396380E0,7.962393761E-1,-4.520269856E-2
1.583044652E1,-1.331188917E0,8.188407421E-1,-1.579040140E-1
1.583959887E1,-1.307060480E0,8.551861644E-1,-2.799207568E-1
1.584875126E1,-1.296065211E0,9.952229261E-1,-3.807105422E-1
1.585790366E1,-1.359135151E0,1.240783453E0,-4.216373265E-1
1.586705605E1,-1.524216652E0,1.573237062E0,-3.985778391E-1
1.587620845E1,-1.602557778E0,1.835443258E0,-3.553603888E-1
1.588536079E1,-1.601030707E0,1.994569063E0,-3.255815804E-1
1.589451319E1,-1.710983157E0,2.095053434E0,-3.167243004E-1
1.590366558E1,-1.834374309E0,2.115364075E0,-3.260397315E-1
1.591281798E1,-1.755575061E0,2.130940676E0,-3.687990308E-1
1.592195762E1,-1.692505002E0,2.017475843E0,-4.532486796E-1
1.593112272E1,-1.736333370E0,1.859113574E0,-5.383091569E-1
1.594027512E1,-1.722436547E0,1.777107358E0,-5.900784731E-1
1.594942751E1,-1.692810416E0,1.570946455E0,-6.329904795E-1
1.595857991E1,-1.731599212E0,1.321109891E0,-6.887302995E-1
1.596773225E1,-1.738929391E0,1.283390045E0,-7.669187188E-1
1.597688465E1,-1.681662560E0,1.264453769E0,-8.733588457E-1
1.598603704E1,-1.664711475E0,1.076007485E0,-9.830059409E-1
1.599518944E1,-1.699987888E0,9.081771374E-1,-1.051573515E0
1.600434183E1,-1.667002201E0,8.028060198E-1,-1.062263370E0
1.601349418E1,-1.596907496E0,7.481352091E-1,-1.035996914E0
1.602264657E1,-1.571099162E0,7.380561829E-1,-9.979717135E-1
1.603179897E1,-1.572626233E0,8.183826208E-1,-9.651386738E-1
1.604095136E1,-1.563768983E0,9.335273504E-1,-9.364288449E-1
1.605010371E1,-1.555369854E0,1.005912781E0,-9.193251133E-1
1.605925610E1,-1.529408813E0,9.999569654E-1,-9.043593407E-1
1.606840850E1,-1.468782187E0,9.652913809E-1,-8.722898960E-1
1.607756090E1,-1.383263588E0,8.770239353E-1,-8.147175312E-1
1.608670053E1,-1.249793530E0,7.293516397E-1,-7.350019813E-1
1.609586564E1,-1.047755718E0,6.270347238E-1,-6.296308041E-1
1.610501803E1,-8.222004175E-1,5.025745630E-1,-5.089884996E-1
1.611415767E1,-5.256340504E-1,3.649812341E-1,-3.778090179E-1
1.612332282E1,-6.795676053E-2,3.384093940E-1,-2.402156889E-1
1.613247522E1,5.491516590E-1,3.845283389E-1,-9.849911928E-2
1.614162756E1,1.275907159E0,4.103366435E-1,1.221694518E-3
1.615077996E1,2.002510071E0,4.240806997E-1,2.947338112E-2
1.615993235E1,2.629544735E0,4.488200247E-1,5.711421743E-2
1.616908475E1,3.109212637E0,4.590517282E-1,1.692046970E-1
1.617823715E1,3.396157980E0,3.437542915E-1,3.367295563E-1
1.618738949E1,3.501987219E0,1.630962193E-1,4.744756222E-1
1.619652912E1,3.558490753E0,6.062658876E-2,5.940489769E-1
1.620569428E1,3.569485903E0,-6.536065787E-2,7.475243211E-1
1.621484668E1,3.484578133E0,-2.867927849E-1,1.006065488E0
1.622398631E1,3.339501858E0,-5.444176197E-1,1.299424887E0
1.623315142E1,3.224662781E0,-6.807892919E-1,1.481304646E0
1.624230381E1,3.177474737E0,-8.076927662E-1,1.547734261E0
1.625144345E1,3.091039896E0,-1.168550849E0,1.601641536E0
1.626060860E1,2.937411785E0,-1.748703003E0,1.697544575E0
1.626976100E1,2.873425484E0,-2.231119633E0,1.805511832E0
1.627890064E1,3.010560751E0,-2.369934559E0,1.857128382E0
1.628806574E1,3.297964334E0,-2.212336063E0,1.804137349E0
1.629721814E1,3.569485903E0,-2.025874853E0,1.632489324E0
1.630635777E1,3.645078421E0,-1.966775417E0,1.436407328E0
1.631552293E1,3.536652803E0,-1.770998955E0,1.301104665E0
1.632467527E1,3.328964949E0,-1.410598993E0,1.243837714E0
1.633381491E1,3.090123653E0,-1.033706307E0,1.250404358E0
1.634298006E1,2.853267431E0,-6.862868667E-1,1.290109396E0
1.635213246E1,2.637943983E0,-4.129327536E-1,1.329203606E0
1.636127209E1,2.486453772E0,-2.733541429E-1,1.328745484E0
1.637043720E1,2.422772884E0,-2.977880239E-1,1.256207347E0
1.637958959E1,2.408112526E0,-3.965925872E-1,1.138313890E0
1.638872923E1,2.390550852E0,-5.091412067E-1,1.003316641E0
1.639789439E1,2.321525097E0,-5.862606764E-1,8.771766424E-1
1.640704678E1,2.182709932E0,-6.664343476E-1,7.783721089E-1
1.641618636E1,2.016101360E0,-7.308787704E-1,6.795675755E-1
1.642535152E1,1.860640764E0,-7.232431769E-1,5.544965863E-1
1.643450392E1,1.707623482E0,-6.420004964E-1,4.227063060E-1
1.644365631E1,1.528950691E0,-5.390726924E-1,3.071034551E-1
1.645280871E1,1.322789788E0,-4.572191834E-1,2.141019702E-1
1.646196105E1,1.095401883E0,-4.169032574E-1,1.366770715E-1
1.647111345E1,8.608365059E-1,-4.164451063E-1,6.001574174E-2
1.648026584E1,6.201626658E-1,-4.256078303E-1,-2.229592577E-2
1.648941824E1,3.689517379E-1,-4.159869850E-1,-1.023169160E-1
1.649855788E1,1.236965731E-1,-4.004103839E-1,-1.742441803E-1
1.650772298E1,-8.933641016E-2,-3.936910629E-1,-2.344126403E-1
1.651687538E1,-3.162661791E-1,-3.642176688E-1,-2.849602401E-1
1.652601501E1,-6.409314871E-1,-3.726168275E-1,-2.980934680E-1
1.653518017E1,-1.001484036E0,-3.539859951E-1,-3.226800561E-1
1.654433256E1,-1.087155461E0,-5.131116882E-2,-3.851391971E-1
1.655347215E1,-6.922426820E-1,4.723376334E-1,-4.182776511E-1
1.656263730E1,-4.521796703E-1,6.247440577E-1,-3.707842827E-1
1.657178970E1,-1.320957184E0,4.825693369E-2,-2.464768738E-1
1.658092933E1,-2.590908766E0,-2.098260373E-1,-2.447970361E-1
1.659009449E1,-3.343777895E0,-4.766135812E-1,-3.756710589E-1
1.659924683E1,-3.176863909E0,-9.926267713E-2,-4.042281806E-1
1.660838647E1,-2.294800520E0,1.564837933E0,-8.215895295E-2
1.661755162E1,-1.668987393E0,2.052446842E0,1.702736765E-1
1.662670402E1,-1.707623482E0,7.021689415E-1,4.275930673E-2
1.663584366E1,-2.004647970E0,-2.626643144E-2,-8.567132801E-2
1.664500876E1,-1.887976170E0,-3.518480062E-1,-1.511846948E-2
1.665416116E1,-1.518108130E0,-7.910472155E-1,2.031067200E-2
1.666330079E1,-1.352263093E0,-8.354863524E-1,-2.932066843E-2
1.667246595E1,-1.245212078E0,-7.295043468E-1,-8.170082420E-2
1.668161834E1,-1.226275921E0,-8.217422962E-1,-1.035386100E-1
1.669075798E1,-1.310114622E0,-8.386932611E-1,-7.116370648E-2
1.669992308E1,-1.319888234E0,-6.817055345E-1,-3.512371797E-3
1.670907548E1,-1.298813939E0,-4.088095427E-1,-2.367033064E-2
1.671821512E1,-1.259872437E0,-6.337540597E-2,-1.794363856E-1
1.672738027E1,-1.225359559E0,2.360924631E-1,-3.692571819E-1
1.673653262E1,-1.218945742E0,4.850127101E-1,-5.013529062E-1
1.674567225E1,-1.201994658E0,6.826218367E-1,-5.502206683E-1
1.675483741E1,-1.209019423E0,8.518264890E-1,-5.497625470E-1
1.676398980E1,-1.222305417E0,9.442171454E-1,-5.181511641E-1
1.677312944E1,-1.228719234E0,1.025612593E0,-4.798205197E-1
1.678229454E1,-1.213142633E0,1.122279167E0,-4.358395338E-1
1.679144694E1,-1.161067963E0,1.206881523E0,-3.891097009E-1
1.680059933E1,-1.102732062E0,1.207797766E0,-3.397837877E-1
1.680975173E1,-1.108382344E0,1.201841950E0,-3.006895781E-1
1.681890412E1,-1.143658757E0,1.145185947E0,-2.906105816E-1
1.682805647E1,-1.139688253E0,1.040883780E0,-3.057290614E-1
1.683720886E1,-1.151752472E0,9.732323885E-1,-3.454341292E-1
1.684636126E1,-1.161678791E0,9.338327646E-1,-4.010212123E-1
1.685551366E1,-1.094791055E0,9.318475127E-1,-4.689779878E-1
1.686466605E1,-1.063026905E0,9.852966070E-1,-5.451811552E-1
1.687381840E1,-1.121362805E0,1.010799527E0,-6.230642200E-1
1.688297079E1,-1.199245930E0,1.055085897E0,-6.835380793E-1
1.689212319E1,-1.258345366E0,1.139840961E0,-7.096518278E-1
1.690127558E1,-1.271020412E0,1.244601250E0,-7.073611021E-1
1.691042798E1,-1.269951463E0,1.394106150E0,-6.940752268E-1
1.691958038E1,-1.288429618E0,1.507570982E0,-6.697940230E-1
1.692873272E1,-1.327981949E0,1.577513099E0,-6.372663975E-1
1.693788512E1,-1.376697063E0,1.630656719E0,-5.832064152E-1
1.694703751E1,-1.351652265E0,1.703805685E0,-5.470137000E-1
1.695618991E1,-1.330883503E0,1.798945189E0,-5.561764240E-1
1.696532954E1,-1.382194638E0,1.769777179E0,-6.059604883E-1
1.697449465E1,-1.404948711E0,1.651425600E0,-6.639909744E-1
1.698364704E1,-1.363411069E0,1.580261827E0,-6.966713071E-1
1.699278668E1,-1.301104665E0,1.557965875E0,-6.980457306E-1
1.700195183E1,-1.268729806E0,1.447249889E0,-6.720846891E-1
1.701110418E1,-1.272242069E0,1.140604496E0,-6.358919740E-1
1.702025657E1,-1.284611821E0,7.618792653E-1,-5.716003180E-1
1.702940897E1,-1.298661232E0,4.349232614E-1,-4.926483035E-1
1.703856136E1,-1.324164152E0,1.667613089E-1,-4.566083252E-1
1.704770100E1,-1.338824511E0,-1.171299592E-1,-4.790569544E-1
1.705686616E1,-1.278961420E0,-3.836120665E-1,-5.425850749E-1
1.706601850E1,-1.187945247E0,-4.602734149E-1,-6.207735538E-1
1.707515814E1,-1.138466597E0,-3.718532622E-1,-6.905628443E-1
1.708432329E1,-1.078908920E0,-1.918060333E-1,-7.397360206E-1
1.709347569E1,-9.924740791E-1,2.809897438E-2,-7.802046537E-1
1.710261532E1,-9.098569751E-1,2.553341687E-1,-8.286142945E-1
1.711178043E1,-8.170081973E-1,4.445441067E-1,-8.678612709E-1
1.712093282E1,-6.397097707E-1,5.984776020E-1,-8.635852933E-1
1.713007246E1,-3.686463237E-1,7.279772162E-1,-8.050966859E-1
1.713923762E1,-8.124268800E-2,8.651124239E-1,-6.902574301E-1
1.714839001E1,2.339545041E-1,9.674293399E-1,-5.402944088E-1
1.715752965E1,6.088619828E-1,8.950439692E-1,-4.086568058E-1
1.716669475E1,9.912523627E-1,4.905103445E-1,-3.129065037E-1
1.717584715E1,1.346460104E0,-1.533226669E-1,-1.988307834E-1
1.718499954E1,1.688381791E0,-7.023216486E-1,-3.726168349E-2
1.719415194E1,2.013352633E0,-8.674030900E-1,1.490467340E-1
1.720330433E1,2.305032015E0,-6.806365848E-1,3.054236174E-1
1.721244397E1,2.529976606E0,-4.605788291E-1,4.228590131E-1
1.722160907E1,2.664973974E0,-2.971771955E-1,5.457920432E-1
1.723076147E1,2.692767382E0,-2.339545041E-1,6.846070886E-1
1.723990110E1,2.645426750E0,-4.636330605E-1,8.432746530E-1
1.724906626E1,2.574721098E0,-9.901834130E-1,1.055085897E0
1.725821866E1,2.539902925E0,-1.553384542E0,1.286597013E0
1.726735824E1,2.574873924E0,-1.992889166E0,1.486954927E0
1.727652340E1,2.630460978E0,-2.341835737E0,1.630504012E0
1.728567579E1,2.715674162E0,-2.736901045E0,1.681967974E0
1.729481543E1,2.837080002E0,-3.064009905E0,1.651883721E0
1.730398058E1,2.929623365E0,-3.171519041E0,1.560409307E0
1.731313293E1,2.963220119E0,-3.146626949E0,1.425717473E0
1.732227256E1,2.969328642E0,-3.007353783E0,1.293774486E0
1.733143772E1,2.962151051E0,-2.642525196E0,1.203063726E0
1.734059012E1,2.941992998E0,-2.090624809E0,1.185501814E0
1.734972975E1,2.920460701E0,-1.495659471E0,1.234369636E0
1.735889485E1,2.858001709E0,-9.610154629E-1,1.321415305E0
1.736804725E1,2.708649397E0,-4.998257756E-1,1.422663212E0
1.737718689E1,2.503252029E0,-9.544488788E-2,1.506349325E0
1.738635204E1,2.320303202E0,2.328855246E-1,1.537197113E0
1.739550444E1,2.229592562E0,4.066715539E-1,1.485122442E0
1.740464407E1,2.192941666E0,4.062134326E-1,1.393953443E0
1.741380923E1,2.149266005E0,2.973299026E-1,1.297744989E0
1.742296157E1,2.096733332E0,1.510319859E-1,1.198634982E0
1.743210121E1,2.039924383E0,3.512371797E-3,1.099983215E0
1.744126636E1,1.978839636E0,-1.429382563E-1,9.952229261E-1
1.745041876E1,1.910424829E0,-2.941229641E-1,8.709154725E-1
1.745955840E1,1.835901380E0,-4.611896873E-1,7.293516397E-1
1.746872350E1,1.749313831E0,-6.322268844E-1,5.981721878E-1
1.747787590E1,1.653105378E0,-7.925743461E-1,4.792096615E-1
1.748702829E1,1.550024867E0,-9.232956171E-1,3.833066523E-1
1.749618069E1,1.437934399E0,-9.707890153E-1,3.037438095E-1
1.750533308E1,1.327829242E0,-9.477295280E-1,2.058555335E-1
1.751447272E1,1.192984700E0,-8.357917666E-1,8.765657991E-2
1.752363782E1,1.011104941E0,-6.635328531E-1,-2.901524538E-3
1.753279022E1,7.736380696E-1,-4.825693369E-1,-4.199574888E-2
1.754192985E1,4.990622103E-1,-3.138227761E-1,-4.947862774E-2
1.755109501E1,2.061609477E-1,-1.635543555E-1,-5.344913527E-2
1.756024741E1,-7.177454978E-2,-7.498150319E-2,-6.108472496E-2
1.756939980E1,-3.089359999E-1,-3.497100621E-2,-6.581879407E-2
1.757855215E1,-4.885250926E-1,-1.160609815E-2,-5.131116882E-2
1.758770454E1,-6.183301210E-1,-5.207473040E-2,-1.298050396E-2
1.759684418E1,-7.589777112E-1,-1.269035190E-1,1.832541823E-2
1.760600933E1,-9.378032684E-1,-6.872031838E-2,3.787253052E-2
1.761516173E1,-1.159846187E0,9.605573118E-2,3.298575059E-2
1.762431412E1,-1.414111376E0,2.304421216E-1,-3.603998944E-2
1.763346647E1,-1.609277129E0,2.052446753E-1,-1.936385781E-1
1.764261887E1,-1.476875901E0,2.745758295E-1,-4.425588250E-1
1.765175850E1,-8.835905790E-1,7.250757217E-1,-7.507312894E-1
1.766092366E1,-6.044333577E-1,7.065975666E-1,-8.347227573E-1
1.767007605E1,-1.222305417E0,-2.657185495E-1,-6.351284385E-1
1.767921569E1,-2.245779991E0,-8.814526200E-1,-4.618005157E-1
1.768838079E1,-2.946421862E0,-2.267770469E-1,-2.742704153E-1
1.769753319E1,-2.592893839E0,1.237882018E0,1.162136942E-1
1.770667282E1,-1.975938201E0,2.044047594E0,4.839437306E-1
1.771583798E1,-1.786117435E0,9.613208771E-1,2.759502530E-1
1.772499038E1,-1.592936993E0,-5.685460567E-1,-9.284878522E-2
1.773413001E1,-1.343863964E0,-8.203678727E-1,-9.620844387E-3
1.774329512E1,-1.481304646E0,-5.839699507E-1,2.315111160E-1
1.775244751E1,-1.648982167E0,-3.984251320E-1,2.901524603E-1
1.776158715E1,-1.470309377E0,-5.606050491E-1,2.170034945E-1
1.777075230E1,-1.337908268E0,-8.046385646E-1,1.490467340E-1
1.777990470E1,-1.501157165E0,-8.174663186E-1,1.559187621E-1
1.778904433E1,-1.667002201E0,-7.537854910E-1,1.791309565E-1
1.779820944E1,-1.528034449E0,-8.040276766E-1,8.490777016E-2
1.780736183E1,-1.307518601E0,-9.152019024E-1,-8.811471611E-2
1.781650147E1,-1.249029875E0,-9.222266674E-1,-2.092151791E-1
1.782566662E1,-1.287360549E0,-7.562289238E-1,-2.644968629E-1
1.783481902E1,-1.296981454E0,-4.888305068E-1,-2.880144715E-1
1.784395866E1,-1.269646049E0,-2.373141646E-1,-2.874036431E-1
1.785312376E1,-1.235285878E0,4.123219103E-2,-2.513636351E-1
1.786227616E1,-1.225206852E0,2.825168669E-1,-1.928750277E-1
1.787142855E1,-1.232078910E0,4.714213610E-1,-1.423274130E-1
1.788058095E1,-1.226275921E0,6.461237073E-1,-1.284306347E-1
1.788973334E1,-1.211615562E0,8.118160367E-1,-1.571404636E-1
1.789888569E1,-1.207186937E0,9.568922520E-1,-2.035648525E-1
1.790803808E1,-1.203063726E0,1.071120620E0,-2.493783981E-1
1.791719048E1,-1.200162172E0,1.119835734E0,-2.855710983E-1
1.792634288E1,-1.230704546E0,1.093111157E0,-3.093941510E-1
1.793549527E1,-1.288124204E0,1.116476059E0,-3.361186981E-1
1.794464762E1,-1.302479029E0,1.159693480E0,-3.686463237E-1
1.795380001E1,-1.298661232E0,1.219251156E0,-4.034646153E-1
1.796295241E1,-1.307365894E0,1.314848781E0,-4.335488379E-1
1.797210480E1,-1.334548593E0,1.404032469E0,-4.446968138E-1
1.798125720E1,-1.387081385E0,1.481762767E0,-4.323271513E-1
1.799040959E1,-1.407392025E0,1.546818018E0,-4.234698713E-1
1.799956199E1,-1.420219898E0,1.532310367E0,-4.069769979E-1
1.800871433E1,-1.455038190E0,1.475196123E0,-3.845283389E-1
1.801786673E1,-1.519024372E0,1.437323570E0,-3.477247953E-1
1.802701913E1,-1.571557283E0,1.509556293E0,-3.017585576E-1
1.803617152E1,-1.564685225E0,1.768250108E0,-2.890834510E-1
1.804532392E1,-1.545596242E0,1.942188859E0,-3.397837877E-1
1.805447631E1,-1.607291818E0,1.989224076E0,-4.471401870E-1
1.806361595E1,-1.701667786E0,2.053821087E0,-5.674771070E-1
1.807278105E1,-1.683036923E0,2.093220949E0,-6.639909744E-1
1.808193345E1,-1.565754294E0,2.031067133E0,-7.423321605E-1
1.809108584E1,-1.483289838E0,1.874843001E0,-8.168554902E-1
1.810023824E1,-1.483595252E0,1.730530262E0,-8.814526200E-1
1.810939064E1,-1.539335132E0,1.571251869E0,-9.129112363E-1
1.811854298E1,-1.518718958E0,1.388150454E0,-8.961129189E-1
1.812769538E1,-1.359135151E0,1.180004239E0,-8.623636365E-1
1.813684777E1,-1.204743505E0,8.567132950E-1,-8.544226289E-1
1.814598741E1,-1.198024154E0,5.066977739E-1,-8.382351398E-1
1.815515256E1,-1.224596024E0,3.339807391E-1,-7.504258752E-1
1.816430491E1,-1.131136417E0,2.202104330E-1,-6.195518374E-1
1.817345730E1,-9.378032684E-1,1.304158866E-1,-5.234960914E-1
1.818260970E1,-7.554653287E-1,-7.788302377E-3,-5.074613690E-1
1.819176209E1,-6.079457402E-1,-1.630962193E-1,-5.361711979E-1
1.820090173E1,-4.295783341E-1,-2.292204350E-1,-5.555655956E-1
1.821006689E1,-1.956238300E-1,-1.980672181E-1,-5.570927262E-1
1.821921928E1,9.147437662E-2,-6.856760383E-2,-5.270084739E-1
1.822835892E1,4.405735731E-1,6.719319522E-2,-4.410317242E-1
1.823752402E1,8.478559852E-1,1.733279079E-1,-3.051182032E-1
1.824667642E1,1.273921967E0,2.861819267E-1,-1.324011385E-1
1.825582881E1,1.682120681E0,3.188622594E-1,5.726693198E-2
1.826498121E1,2.062983990E0,2.478512824E-1,2.151709497E-1
1.827413360E1,2.401240587E0,1.504211426E-1,3.159607351E-1
1.828327324E1,2.699792147E0,1.548497826E-1,4.010212123E-1
1.829243834E1,2.898164749E0,2.183778957E-2,5.332696438E-1
1.830159074E1,2.973299026E0,-3.410054743E-1,7.568397522E-1
1.831073038E1,2.943062067E0,-6.708629727E-1,1.020725727E0
1.831989553E1,2.881671906E0,-7.226322889E-1,1.218182087E0
1.832904793E1,2.839981556E0,-6.853706241E-1,1.354706526E0
1.833818756E1,2.786837816E0,-7.887565494E-1,1.466644287E0
1.834735267E1,2.714910746E0,-1.134496093E0,1.556286097E0
1.835650506E1,2.657490969E0,-1.626075387E0,1.596449256E0
1.836565746E1,2.652298689E0,-2.001593828E0,1.579040170E0
1.837480985E1,2.699334145E0,-2.214473963E0,1.522689462E0
1.838396225E1,2.792335510E0,-2.367644072E0,1.437934399E0
1.839310189E1,2.887780428E0,-2.516232491E0,1.330730796E0
1.840226699E1,2.922598600E0,-2.432088375E0,1.227650285E0
1.841141939E1,2.869760513E0,-2.000524759E0,1.153737783E0
1.842055902E1,2.759196997E0,-1.474127173E0,1.120293856E0
1.842972418E1,2.637943983E0,-1.066386580E0,1.118461370E0
1.843887657E1,2.510582209E0,-7.536327839E-1,1.133274436E0
1.844802897E1,2.365353346E0,-5.289937258E-1,1.178477049E0
1.845718136E1,2.259218693E0,-3.999522328E-1,1.236202121E0
1.846633371E1,2.227301836E0,-3.643703759E-1,1.285986185E0
1.847548610E1,2.243794680E0,-3.713951409E-1,1.317292094E0
1.848463850E1,2.230814219E0,-4.274403751E-1,1.306754947E0
1.849379090E1,2.159039736E0,-5.007420182E-1,1.251473308E0
1.850293053E1,2.052599430E0,-5.560237169E-1,1.162747741E0
1.851209569E1,1.948450089E0,-6.482616663E-1,1.055849433E0
1.852124803E1,1.854837656E0,-7.482879162E-1,9.448279738E-1
1.853038767E1,1.756491303E0,-8.000571728E-1,8.341119289E-1
1.853955282E1,1.651425600E0,-7.747070193E-1,7.252284288E-1
1.854870522E1,1.518566251E0,-6.951441765E-1,6.375718117E-1
1.855784485E1,1.355317354E0,-6.100836992E-1,5.709894896E-1
1.856701001E1,1.165038466E0,-5.329642296E-1,4.999784827E-1
1.857616235E1,9.584193230E-1,-4.703523815E-1,4.179722369E-1
1.858531475E1,7.492041588E-1,-4.672981501E-1,3.358132839E-1
1.859446715E1,5.642701387E-1,-4.934118688E-1,2.270824611E-1
1.860361954E1,3.830012381E-1,-4.350759685E-1,1.035386100E-1
1.861277194E1,1.786728203E-1,-2.701472044E-1,-1.404948719E-2
1.862192433E1,-4.443913698E-2,-1.003316641E-1,-9.513945878E-2
1.863107673E1,-2.683146596E-1,8.246437646E-3,-1.302631795E-1
1.864022907E1,-4.627167881E-1,2.550287358E-2,-1.043021679E-1
1.864938147E1,-6.006155610E-1,-1.191152167E-2,-4.963133857E-2
1.865853387E1,-7.253811359E-1,-1.740914769E-2,-1.817270555E-2
1.866767350E1,-9.086353183E-1,9.376505762E-2,-2.565558441E-2
1.867683866E1,-1.169467092E0,1.956238300E-1,-8.429691941E-2
1.868599105E1,-1.424037695E0,1.265980899E-1,-2.399102598E-1
1.869513069E1,-1.439156175E0,2.231119573E-1,-5.057815313E-1
1.870429584E1,-1.063943267E0,8.203678727E-1,-8.234221339E-1
1.871344819E1,-8.327375054E-1,1.305685997E0,-1.010799527E0
1.872258782E1,-1.267049909E0,5.746545792E-1,-9.907942414E-1
1.873175298E1,-2.088639498E0,-5.745018721E-1,-9.610154629E-1
1.874090538E1,-2.854794741E0,-7.614210844E-1,-8.232693672E-1
1.875004501E1,-2.671998739E0,7.930324674E-1,-3.646758199E-1
1.875921017E1,-2.063441992E0,2.452704430E0,2.002051920E-1
1.876836251E1,-1.831472754E0,1.947533727E0,2.084516287E-1
1.877750215E1,-1.736791492E0,5.100574717E-2,-1.663031727E-1
1.878666730E1,-1.494285107E0,-7.930324674E-1,-2.024958730E-1
1.879581970E1,-1.564074397E0,-6.940752268E-1,3.512371704E-2
1.880495933E1,-1.788560748E0,-5.059342384E-1,1.365243644E-1
1.881412449E1,-1.629587770E0,-5.276193023E-1,6.016845629E-2
1.882327689E1,-1.363105655E0,-7.765395641E-1,-5.207473040E-2
1.883241652E1,-1.406323075E0,-1.035844207E0,-8.811471611E-2
1.884158162E1,-1.611109614E0,-9.799517393E-1,-2.672456764E-2
1.885073402E1,-1.654021621E0,-8.003626466E-1,-1.985253580E-2
1.885988642E1,-1.494895935E0,-7.626428008E-1,-1.279724985E-1
1.886903881E1,-1.334243178E0,-6.838434935E-1,-2.454078794E-1
1.887819121E1,-1.279419541E0,-5.105155706E-1,-3.141281903E-1
1.888734360E1,-1.316986680E0,-2.206685692E-1,-3.255815804E-1
1.889649600E1,-1.372421026E0,4.321744293E-2,-2.962609231E-1
1.890564834E1,-1.381889224E0,2.417428046E-1,-2.452551723E-1
1.891480074E1,-1.367381573E0,4.660764635E-1,-1.927223057E-1
1.892395314E1,-1.371657491E0,6.458182931E-1,-1.568350345E-1
1.893310553E1,-1.386928678E0,8.405258060E-1,-1.479777545E-1
1.894225793E1,-1.397465825E0,9.199360013E-1,-1.603474021E-1
1.895141032E1,-1.405101418E0,9.674293399E-1,-1.853921413E-1
1.896056272E1,-1.425870180E0,1.019198656E0,-2.125748396E-1
1.896971512E1,-1.404032469E0,1.008814216E0,-2.538070381E-1
1.897886746E1,-1.366770744E0,9.254335761E-1,-2.999260128E-1
1.898801985E1,-1.331341624E0,8.470924497E-1,-3.368822634E-1
1.899717225E1,-1.309045672E0,7.861604095E-1,-3.648285270E-1
1.900632465E1,-1.304464340E0,7.565343380E-1,-3.946073353E-1
1.901547704E1,-1.309198380E0,8.249492049E-1,-4.338542521E-1
1.902462944E1,-1.289040446E0,9.417737722E-1,-4.776825607E-1
1.903378183E1,-1.235743999E0,1.069440842E0,-5.164713860E-1
1.904293418E1,-1.167939901E0,1.227344871E0,-5.509842038E-1
1.905208657E1,-1.130678296E0,1.417623758E0,-5.838172436E-1
1.906123897E1,-1.151294351E0,1.595991135E0,-6.079457402E-1
1.907039137E1,-1.208561301E0,1.811467528E0,-6.248967648E-1
1.907954376E1,-1.249946237E0,2.171103954E0,-6.487197876E-1
1.908869616E1,-1.179851532E0,2.488744497E0,-6.716265678E-1
1.909784855E1,-1.000567794E0,2.559449911E0,-6.850652099E-1
1.910700095E1,-8.782456517E-1,2.483705044E0,-6.951441765E-1
1.911615334E1,-8.608365059E-1,2.469655514E0,-7.291989326E-1
1.912530574E1,-9.703308940E-1,2.398186445E0,-7.725690603E-1
1.913444532E1,-1.050351858E0,2.240893126E0,-7.640172243E-1
1.914361048E1,-9.182561636E-1,2.186527729E0,-6.957550049E-1
1.915276288E1,-7.055285573E-1,2.079324007E0,-6.239804626E-1
1.916190251E1,-6.400152445E-1,1.758323789E0,-5.830537081E-1
1.917106767E1,-7.082774043E-1,1.245517612E0,-5.624375939E-1
1.918022006E1,-7.588250041E-1,6.766660213E-1,-5.519005060E-1
1.918937246E1,-7.646280527E-1,2.017323077E-1,-5.375455618E-1
1.919852485E1,-7.510367036E-1,-1.429382563E-1,-5.305208564E-1
1.920767720E1,-7.403468490E-1,-3.098522723E-1,-5.389199853E-1
1.921681683E1,-7.212579250E-1,-3.025220931E-1,-5.534276366E-1
1.922598199E1,-6.546755433E-1,-2.212794125E-1,-5.700731874E-1
1.923513439E1,-5.818319917E-1,-1.429382563E-1,-6.001574397E-1
1.924427402E1,-5.323534012E-1,-8.322793990E-2,-6.334486008E-1
1.925343918E1,-4.732539058E-1,-3.054236295E-3,-6.343649030E-1
1.926259157E1,-3.533751369E-1,1.533226669E-1,-5.859552622E-1
1.927173121E1,-1.688992679E-1,3.048127890E-1,-5.047125220E-1
1.928089631E1,6.337540597E-2,3.248180151E-1,-3.920112252E-1
1.929004871E1,3.235963285E-1,1.876828223E-1,-2.533488870E-1
1.929920110E1,5.737382770E-1,-5.955760833E-3,-1.255291104E-1
1.930835350E1,7.850914598E-1,-1.023169160E-1,-4.031591862E-2
1.931750590E1,9.807152748E-1,-1.145338640E-2,2.382304333E-2
1.932664553E1,1.206575990E0,4.886778072E-2,1.010952219E-1
1.933581069E1,1.472752690E0,-1.316375881E-1,2.081461996E-1
1.934496308E1,1.752673507E0,-4.837910235E-1,3.678827584E-1
1.935410272E1,1.951198816E0,-8.562551737E-1,5.552601814E-1
1.936326788E1,2.044963837E0,-1.185501814E0,7.631009221E-1
1.937242022E1,2.110324621E0,-1.426939249E0,9.678874612E-1
1.938155985E1,2.226691008E0,-1.627297044E0,1.141062737E0
1.939072501E1,2.394368649E0,-1.824295282E0,1.254069448E0
1.939987741E1,2.545553207E0,-2.005717039E0,1.324774981E0
1.940901704E1,2.618244171E0,-2.232646704E0,1.376238823E0
1.941818220E1,2.617480516E0,-2.519286871E0,1.408766508E0
1.942733459E1,2.616258860E0,-2.788212299E0,1.393037200E0
1.943647423E1,2.615342617E0,-2.932524920E0,1.313779712E0
1.944563939E1,2.583578587E0,-2.893888950E0,1.181073189E0
1.945479173E1,2.562504292E0,-2.691393137E0,1.046381354E0
1.946393136E1,2.585411072E0,-2.301672459E0,9.523108602E-1
1.947309652E1,2.614884377E0,-1.725796223E0,9.281824231E-1
1.948224892E1,2.616716862E0,-1.116934180E0,9.749122262E-1
1.949138855E1,2.590297699E0,-6.056550741E-1,1.060430884E0
1.950055371E1,2.544636965E0,-2.226538211E-1,1.169772506E0
1.950970610E1,2.469808102E0,3.374931216E-2,1.275754452E0
1.951884574E1,2.373599768E0,2.165453583E-1,1.344627500E0
1.952801090E1,2.280598164E0,3.243598938E-1,1.370130420E0
1.953716329E1,2.214932203E0,3.802524209E-1,1.348292589E0
1.954630293E1,2.158276081E0,4.075878263E-1,1.276365399E0
1.955546803E1,2.107270241E0,3.619270027E-1,1.181989431E0
1.956462043E1,2.056722641E0,2.023431510E-1,1.079825282E0
1.957376006E1,2.005717039E0,-1.145338640E-1,9.875873327E-1
1.958292522E1,1.960667014E0,-4.874561131E-1,8.849649429E-1
1.959207762E1,1.916533232E0,-8.049439788E-1,7.557707429E-1
1.960123001E1,1.868429065E0,-1.012784719E0,6.146650314E-1
1.961038241E1,1.800166845E0,-1.107466102E0,4.792096615E-1
1.961953480E1,1.694643021E0,-1.099066973E0,3.588727713E-1
1.962868720E1,1.542236567E0,-1.031110168E0,2.501419485E-1
1.963783959E1,1.360051394E0,-9.484930634E-1,1.579040140E-1
1.964699199E1,1.175422788E0,-8.725953102E-1,8.872556686E-2
1.965614433E1,9.940012097E-1,-7.711946368E-1,5.070032179E-2
1.966529673E1,8.237275481E-1,-6.606312990E-1,2.015795931E-2
1.967444913E1,6.548282504E-1,-5.147915483E-1,-2.687728032E-2
1.968360152E1,4.526378214E-1,-2.832804024E-1,-7.681404054E-2
1.969275392E1,1.947075576E-1,-1.145338640E-2,-1.288887709E-1
1.970190631E1,-7.589777559E-2,2.134911120E-1,-1.650814712E-1
1.971105871E1,-2.990097404E-1,3.552076817E-1,-1.747023165E-1
1.972021110E1,-4.651601911E-1,3.906368315E-1,-1.539335102E-1
1.972936350E1,-5.619794726E-1,3.761292100E-1,-1.198787764E-1
1.973850314E1,-6.343649030E-1,3.284831047E-1,-9.040539712E-2
1.974766824E1,-7.470661998E-1,3.217637837E-1,-9.361234307E-2
1.975682064E1,-8.935168386E-1,2.585411072E-1,-1.537808031E-1
1.976596027E1,-1.051420808E0,4.321744293E-2,-2.878617644E-1
1.977512543E1,-9.720106721E-1,-4.245388508E-2,-5.053234100E-1
1.978427782E1,-4.986040890E-1,3.370349705E-1,-7.434011102E-1
1.979341746E1,-3.512371778E-1,6.682668924E-1,-8.422056437E-1
1.980258262E1,-1.015228152E0,2.915268540E-1,-7.537854910E-1
1.981173501E1,-2.198591948E0,-2.052446753E-1,-7.977665067E-1
1.982088741E1,-3.203741074E0,-3.808632791E-1,-9.121476412E-1
1.983003980E1,-2.957264185E0,9.280297160E-1,-6.843016148E-1
1.983919220E1,-2.153847456E0,2.837080002E0,-8.093725890E-2
1.984833183E1,-1.803373814E0,2.548149347E0,1.519482583E-1
1.985749694E1,-1.654632568E0,9.268079996E-1,-1.316375881E-1
1.986664933E1,-1.460535765E0,2.312056869E-1,-2.658712566E-1
1.987578897E1,-1.419150949E0,-1.027750522E-1,-1.774511337E-1
1.988495412E1,-1.577054858E0,-5.796940327E-1,-1.776038408E-1
1.989410652E1,-1.521620512E0,-6.806365848E-1,-2.614426315E-1
1.990324616E1,-1.311794519E0,-6.261184216E-1,-2.837385535E-1
1.991241131E1,-1.277281642E0,-7.266027927E-1,-2.388412803E-1
1.992156371E1,-1.326302052E0,-7.227849960E-1,-1.672194302E-1
1.993070334E1,-1.376697063E0,-6.846070886E-1,-1.070509851E-1
1.993986850E1,-1.387997627E0,-6.473453641E-1,-1.285833418E-1
1.994902084E1,-1.350736022E0,-4.265241027E-1,-2.328855246E-1
1.995817329E1,-1.330730796E0,-5.696150661E-2,-3.533751369E-1
1.996732564E1,-1.307365894E0,2.217375487E-1,-4.504998624E-1
1.997647803E1,-1.277587056E0,3.481829464E-1,-4.967715442E-1
1.998561767E1,-1.310420036E0,4.289674759E-1,-4.842491746E-1
1.999478282E1,-1.365854502E0,4.821111858E-1,-4.277457893E-1
2.000393522E1,-1.355164647E0,5.438067913E-1,-3.442124426E-1
2.001308762E1,-1.313932419E0,6.442911625E-1,-2.528907657E-1
2.002224001E1,-1.270409584E0,6.476507783E-1,-1.817270666E-1
2.003139241E1,-1.254527569E0,6.387935281E-1,-1.353026628E-1
2.004054480E1,-1.269951463E0,5.503733754E-1,-1.096470803E-1
2.004969720E1,-1.289040446E0,4.834856093E-1,-1.085781008E-1
2.005884959E1,-1.294538021E0,4.291202128E-1,-1.366770715E-1
2.006800194E1,-1.287360549E0,3.987305462E-1,-1.890572309E-1
2.007715433E1,-1.273005724E0,3.448232710E-1,-2.634278834E-1
2.008630673E1,-1.270409584E0,2.258607745E-1,-3.469612300E-1
2.009545912E1,-1.259719729E0,1.701209545E-1,-4.060607255E-1
2.010461152E1,-1.245364904E0,2.351761907E-1,-4.347705245E-1
2.011376392E1,-1.240630746E0,3.959817290E-1,-4.488200247E-1
2.012291631E1,-1.226734042E0,5.778614879E-1,-4.709632397E-1
2.013206871E1,-1.217876673E0,7.707365155E-1,-4.984513521E-1
2.014122110E1,-1.229635477E0,9.272661209E-1,-5.187620521E-1
2.015037350E1,-1.218334913E0,1.062110662E0,-5.389199853E-1
2.015952590E1,-1.172063231E0,1.264148355E0,-5.552601814E-1
2.016867829E1,-1.124722481E0,1.487107635E0,-5.551074743E-1
2.017783069E1,-1.090362310E0,1.710219622E0,-5.416688323E-1
2.018698303E1,-1.033095479E0,1.866901994E0,-5.456393361E-1
2.019613543E1,-9.727742672E-1,2.019919157E0,-5.787777901E-1
2.020528782E1,-9.452861547E-1,2.224705696E0,-6.368082762E-1
2.021444022E1,-9.338327646E-1,2.347944260E0,-6.978929639E-1
2.022359262E1,-9.123004079E-1,2.306253910E0,-7.488987446E-1
2.023274501E1,-8.545753360E-1,2.209739923E0,-7.901309133E-1
2.024189741E1,-8.194515705E-1,2.161483049E0,-8.270871639E-1
2.025104980E1,-8.787037730E-1,2.111240864E0,-8.652651310E-1
2.026020220E1,-1.024390817E0,2.076575279E0,-8.730534315E-1
2.026935459E1,-1.177408099E0,2.004189968E0,-8.293778896E-1
2.027850699E1,-1.185349107E0,1.816965222E0,-7.585195899E-1
2.028764662E1,-1.054322362E0,1.611415029E0,-6.957550049E-1
2.029681173E1,-1.002858520E0,1.415180445E0,-6.543701291E-1
2.030596418E1,-1.078298092E0,1.092194915E0,-6.277982593E-1
2.031511652E1,-1.112658262E0,6.313106418E-1,-5.995466113E-1
2.032426892E1,-1.069135427E0,1.626380831E-1,-5.580089688E-1
2.033342131E1,-1.017213345E0,-2.287622988E-1,-5.079194903E-1
2.034256095E1,-9.652913809E-1,-5.401417017E-1,-4.712686539E-1
2.035172610E1,-9.026795626E-1,-7.243121266E-1,-4.598152637E-1
2.036087850E1,-8.254073858E-1,-7.609629631E-1,-4.634803534E-1
2.037001814E1,-7.412631512E-1,-7.145385742E-1,-4.695888162E-1
2.037918329E1,-6.606312990E-1,-6.390989423E-1,-4.856235683E-1
2.038833569E1,-5.531222224E-1,-5.233433843E-1,-4.958552718E-1
2.039748808E1,-3.914003670E-1,-3.422271907E-1,-4.839437306E-1
2.040664048E1,-1.304158866E-1,-3.848337755E-2,-4.419479966E-1
2.041579288E1,2.171562016E-1,2.035648525E-1,-3.414636254E-1
2.042493251E1,5.673243999E-1,1.675248593E-1,-1.569877416E-1
2.043409767E1,8.782456517E-1,-1.847812980E-1,1.111742035E-1
2.044325006E1,1.168245435E0,-6.839962006E-1,3.773508966E-1
2.045240241E1,1.443890214E0,-1.081199646E0,5.775560737E-1
2.046155480E1,1.693879485E0,-1.194053650E0,7.259919643E-1
2.047070720E1,1.879729748E0,-1.142131686E0,8.402203918E-1
2.047984683E1,2.047254562E0,-9.576557875E-1,9.345963001E-1
2.048901199E1,2.146975517E0,-7.591304183E-1,9.779664874E-1
2.049816439E1,2.164079189E0,-6.980457306E-1,1.033706307E0
2.050730402E1,2.133231401E0,-9.614735842E-1,1.156944752E0
2.051646918E1,2.134911060E0,-1.298966646E0,1.308587551E0
2.052562157E1,2.242573023E0,-1.606833696E0,1.430451512E0
2.053476121E1,2.435295343E0,-1.828724027E0,1.496728539E0
2.054392636E1,2.638401985E0,-1.927833915E0,1.495812178E0
2.055307876E1,2.786532402E0,-1.922947168E0,1.438850760E0
2.056223116E1,2.875105381E0,-1.934553266E0,1.360814929E0
2.057138355E1,2.929928780E0,-2.023431540E0,1.269646049E0
2.058053595E1,2.968717575E0,-2.166675329E0,1.145949483E0
2.058967558E1,2.990097284E0,-2.285332203E0,9.856020808E-1
2.059884074E1,2.947032690E0,-2.293731451E0,8.425110579E-1
2.060799308E1,2.830055237E0,-2.191872597E0,7.481352091E-1
2.061713277E1,2.664821148E0,-1.904163599E0,7.168292403E-1
2.062629788E1,2.514552832E0,-1.459008694E0,7.667660117E-1
2.063545027E1,2.420787573E0,-1.141673565E0,8.892409205E-1
2.064460267E1,2.405058384E0,-9.591829181E-1,1.022100210E0
2.065375506E1,2.460340023E0,-6.490252018E-1,1.127318621E0
2.066290746E1,2.507069826E0,-1.798945218E-1,1.197413325E0
2.067205985E1,2.476680279E0,2.426590770E-1,1.229941010E0
2.068121225E1,2.370239973E0,5.697677732E-1,1.229635477E0
2.069036465E1,2.224247694E0,7.666133046E-1,1.237576604E0
2.069950428E1,2.085585356E0,7.736380696E-1,1.234675050E0
2.070866944E1,1.976090908E0,6.894938350E-1,1.205354333E0
2.071782183E1,1.918976665E0,5.279247165E-1,1.180615067E0
2.072696147E1,1.891030431E0,2.974826097E-1,1.153126955E0
2.073612662E1,1.864763975E0,1.649287529E-2,1.099372387E0
2.074527902E1,1.826738715E0,-3.142809272E-1,1.006523609E0
2.075443142E1,1.773289561E0,-6.274928451E-1,8.884773254E-1
2.076358381E1,1.727628708E0,-9.167290330E-1,7.687512636E-1
2.077273621E1,1.673110604E0,-1.172063231E0,6.574243903E-1
2.078187584E1,1.601336122E0,-1.360814929E0,5.024218559E-1
2.079104095E1,1.509709001E0,-1.447708011E0,3.498627543E-1
2.080019334E1,1.387692213E0,-1.465728045E0,2.507528067E-1
2.080933303E1,1.247044683E0,-1.438545346E0,1.971509457E-1
2.081849814E1,1.089446068E0,-1.372573733E0,1.629435122E-1
2.082765053E1,9.156600237E-1,-1.287971497E0,1.385096163E-1
2.083680293E1,7.256865501E-1,-1.187181592E0,1.041494608E-1
2.084595532E1,5.207473040E-1,-1.057529330E0,4.825693369E-2
2.085510772E1,3.081724346E-1,-9.016105533E-1,-3.206948191E-2
2.086426012E1,8.582404256E-2,-7.256865501E-1,-1.169772521E-1
2.087341251E1,-1.458397806E-1,-5.671716928E-1,-1.852394342E-1
2.088259142E1,-3.675773442E-1,-4.888305068E-1,-2.331909388E-1
2.089171730E1,-5.566345453E-1,-4.381301999E-1,-2.730487287E-1
2.090086970E1,-6.998782754E-1,-3.095468581E-1,-3.162661791E-1
2.091002209E1,-8.229639530E-1,-3.023693897E-2,-3.515425920E-1
2.091920105E1,-9.639169574E-1,3.660502136E-1,-3.571929336E-1
2.092832689E1,-1.130067468E0,8.028060198E-1,-3.200839758E-1
2.093750590E1,-1.318971992E0,1.144422293E0,-2.539597452E-1
2.094661892E1,-1.469393134E0,1.263232112E0,-1.885990947E-1
2.095578407E1,-1.554606318E0,1.122889996E0,-1.401894391E-1
2.096493647E1,-1.673721433E0,7.870767117E-1,-1.408002973E-1
2.097407610E1,-1.918518543E0,4.862344265E-1,-2.357870489E-1
2.098324126E1,-2.141324997E0,5.315898061E-1,-3.985778391E-1
2.099239366E1,-1.804900885E0,8.554915786E-1,-5.905365944E-1
2.100153329E1,-3.965925872E-1,1.309961915E0,-6.725428104E-1
2.101069845E1,4.214846194E-1,1.332715988E0,-4.475983381E-1
2.101985079E1,-6.404733658E-1,4.921901822E-1,-1.614163816E-1
2.102899048E1,-1.749161124E0,6.664343476E-1,-4.282039404E-1
2.103815558E1,-2.429950476E0,3.275668323E-1,-8.254073858E-1
2.104730798E1,-2.026638508E0,-8.562551737E-1,-7.429429889E-1
2.105644762E1,-1.026681542E0,-7.108734846E-1,-3.501681983E-1
2.106561277E1,-1.021489382E0,3.451287001E-2,-5.818320066E-2
2.107476517E1,-1.701515079E0,3.437542915E-1,7.849387079E-2
2.108390480E1,-1.801235914E0,8.637380004E-1,2.612899244E-1
2.109306996E1,-1.561630964E0,9.765920639E-1,3.746020794E-1
2.110222235E1,-1.322026134E0,5.780141950E-1,2.122694254E-1
2.111136199E1,-1.122737288E0,-2.092151791E-1,-8.674030751E-2
2.112052715E1,-1.131747246E0,-8.793146014E-1,-3.640649617E-1
2.112967954E1,-1.197107911E0,-1.118155956E0,-5.567872524E-1
2.113881918E1,-1.214364409E0,-9.486457705E-1,-6.552863717E-1
2.114798433E1,-1.252847672E0,-6.244385839E-1,-6.742226481E-1
2.115713673E1,-1.302631736E0,-2.357870489E-1,-6.345176101E-1
2.116627636E1,-1.343711257E0,2.037175596E-1,-5.832064152E-1
2.117544152E1,-1.394258857E0,6.696413159E-1,-5.430431962E-1
2.118459392E1,-1.443279386E0,1.105328083E0,-4.996730685E-1
2.119374631E1,-1.441446781E0,1.450762272E0,-4.810422063E-1
2.120289871E1,-1.402657986E0,1.673110604E0,-4.955498278E-1
2.121205110E1,-1.380514860E0,1.750688195E0,-5.198310018E-1
2.122119074E1,-1.374559045E0,1.651272893E0,-5.294518471E-1
2.123035590E1,-1.368450522E0,1.495201349E0,-5.170822144E-1
2.123950829E1,-1.346154690E0,1.335770249E0,-4.929537475E-1
2.124866069E1,-1.313627005E0,1.206881523E0,-4.657710493E-1
2.125781308E1,-1.282626510E0,1.105328083E0,-4.381301999E-1
2.126696548E1,-1.247502804E0,9.607100487E-1,-4.187358022E-1
2.127611788E1,-1.244601250E0,8.252546191E-1,-4.034646153E-1
2.128527027E1,-1.270562291E0,7.505785823E-1,-3.875826001E-1
2.129442262E1,-1.288276911E0,7.397360206E-1,-3.744493723E-1
2.130357501E1,-1.277128935E0,7.198835015E-1,-3.608580232E-1
2.131272741E1,-1.277434349E0,6.783458591E-1,-3.480302393E-1
2.132187980E1,-1.328287363E0,7.078192830E-1,-3.397837877E-1
2.133103220E1,-1.386928678E0,7.963921428E-1,-3.457395434E-1
2.134018459E1,-1.389219403E0,8.539644480E-1,-3.758237660E-1
2.134933699E1,-1.335770249E0,8.950439692E-1,-4.077405334E-1
2.135848939E1,-1.256971002E0,8.443436027E-1,-4.248442650E-1
2.136764178E1,-1.213753462E0,7.046123147E-1,-4.286620617E-1
2.137679418E1,-1.186723471E0,5.751127005E-1,-4.388937652E-1
2.138594657E1,-1.160304427E0,4.564556181E-1,-4.538595080E-1
2.139509897E1,-1.112047434E0,2.848075330E-1,-4.466820657E-1
2.140425136E1,-1.062568784E0,1.162136942E-1,-4.169032574E-1
2.141340376E1,-1.047755718E0,-3.374931216E-2,-3.886515796E-1
2.142255616E1,-1.073105931E0,-1.192679256E-1,-3.758237660E-1
2.143170855E1,-1.099525094E0,-1.181989461E-1,-3.742966652E-1
2.144086095E1,-1.062263370E0,-7.834116369E-2,-3.691044450E-1
2.145001334E1,-9.471186996E-1,-1.664558798E-2,-3.536805511E-1
2.145916574E1,-8.327375054E-1,1.084253844E-2,-3.461976945E-1
2.146831814E1,-7.765395641E-1,1.450762246E-2,-3.640649617E-1
2.147747053E1,-7.963921428E-1,3.787253052E-2,-3.978142738E-1
2.148662293E1,-8.405258060E-1,8.948912472E-2,-4.085040987E-1
2.149577532E1,-8.440381885E-1,1.962346882E-1,-3.666610718E-1
2.150492772E1,-8.260182142E-1,3.352024257E-1,-2.793098986E-1
2.151408012E1,-8.130376935E-1,4.422534108E-1,-1.919587553E-1
2.152323251E1,-8.200624585E-1,4.587462842E-1,-1.577513069E-1
2.153238491E1,-8.353336453E-1,3.597890437E-1,-1.705790907E-1
2.154153730E1,-8.376243114E-1,2.209739983E-1,-2.011214644E-1
2.155068970E1,-8.336538076E-1,1.455343664E-1,-2.406738251E-1
2.155984209E1,-8.174663186E-1,1.459924877E-1,-2.820587158E-1
2.156899449E1,-7.924215794E-1,1.772984117E-1,-3.203893900E-1
2.157814689E1,-7.748597264E-1,2.368560284E-1,-3.442124426E-1
2.158729928E1,-7.661551833E-1,2.941229641E-1,-3.532224298E-1
2.159645168E1,-7.397360206E-1,3.110739589E-1,-3.451287150E-1
2.160560407E1,-6.862868667E-1,3.208475113E-1,-3.136700690E-1
2.161475647E1,-6.175665855E-1,3.170297146E-1,-2.521272004E-1
2.162390886E1,-5.465555787E-1,2.692309320E-1,-1.879882365E-1
2.163306126E1,-5.118899941E-1,1.621799469E-1,-1.443126649E-1
2.164221366E1,-5.292991400E-1,3.084778599E-2,-1.298050433E-1
2.165136605E1,-5.657972693E-1,-8.689302206E-2,-1.262926757E-1
2.166051845E1,-5.865660906E-1,-1.820324808E-1,-1.214058921E-1
2.166967084E1,-5.938962698E-1,-2.736595869E-1,-1.067455560E-1
2.167882324E1,-6.039752364E-1,-3.229855001E-1,-8.903098851E-2
2.168797564E1,-6.404733658E-1,-3.035911024E-1,-7.956285775E-2
2.169712803E1,-7.153021693E-1,-2.134911120E-1,-8.078455180E-2
2.170628043E1,-8.032641411E-1,-9.132166207E-2,-9.743013978E-2
2.171543282E1,-8.732061386E-1,2.305948362E-2,-1.211004704E-1
2.172458522E1,-9.009997249E-1,1.229330078E-1,-1.452289373E-1
2.173373762E1,-8.893936276E-1,1.982199401E-1,-1.708845198E-1
2.174289001E1,-8.351809382E-1,2.283041626E-1,-2.003578991E-1
2.175204241E1,-7.554653287E-1,2.199050188E-1,-2.389939874E-1
2.176119480E1,-6.586460471E-1,1.566823274E-1,-2.712161839E-1
2.177033444E1,-5.508314967E-1,3.924693540E-2,-2.788517773E-1
2.177949959E1,-4.306473136E-1,-1.105633527E-1,-2.516690791E-1
2.178865199E1,-3.122956753E-1,-2.289150059E-1,-1.866138428E-1
2.179780439E1,-2.116585821E-1,-2.861819267E-1,-1.059819981E-1
2.180695678E1,-1.256818175E-1,-2.707580328E-1,-3.878879920E-2
2.181610918E1,-6.322269142E-2,-1.915006191E-1,6.261184346E-3
2.182526157E1,-2.779355086E-2,-8.597674966E-2,3.329117596E-2
2.183441397E1,-1.954711229E-2,1.664558798E-2,4.245388508E-2
2.184356636E1,-2.275406010E-2,1.070509851E-1,4.230117425E-2
2.185271876E1,-2.947338112E-2,1.708845198E-1,3.237490356E-2
2.186187121E1,-5.115845799E-2,1.953184158E-1,8.551862091E-3
2.187102360E1,-9.910997003E-2,1.963873953E-1,-2.183778957E-2
2.188017600E1,-1.705790907E-1,2.015796006E-1,-5.161659420E-2
2.188932840E1,-2.443388999E-1,2.050919682E-1,-7.406523079E-2
2.189848079E1,-2.890834510E-1,1.760767251E-1,-8.292251825E-2
2.190763319E1,-2.959555089E-1,1.204896197E-1,-8.536590636E-2
2.191678558E1,-2.750339806E-1,4.107947648E-2,-9.071081877E-2
2.192593798E1,-2.347180545E-1,-4.764608666E-2,-1.036913246E-1
2.193509038E1,-1.864611208E-1,-1.349972486E-1,-1.168245375E-1
2.194424277E1,-1.437018216E-1,-2.115058601E-1,-1.279724985E-1
2.195339517E1,-1.101052165E-1,-2.542651594E-1,-1.394258887E-1
2.196254756E1,-1.014006436E-1,-2.542651594E-1,-1.502684206E-1
2.197169996E1,-1.194206402E-1,-2.313583940E-1,-1.577513069E-1
2.198085235E1,-1.351499557E-1,-2.012741715E-1,-1.456870735E-1
2.199000475E1,-1.275143623E-1,-1.753131598E-1,-1.188097894E-1
2.199915715E1,-8.750387281E-2,-1.750077456E-1,-9.040539712E-2
2.200830954E1,-4.062134400E-2,-1.995943487E-1,-6.444438547E-2
2.201746194E1,-1.679830020E-3,-2.186833173E-1,-4.092676565E-2
2.202661433E1,1.618745178E-2,-2.252499312E-1,-2.122694254E-2
2.203576673E1,2.397575416E-2,-2.052446753E-1,-5.344913341E-3
2.204491912E1,4.260659590E-2,-1.545443535E-1,1.053711493E-2
2.205407152E1,6.337540597E-2,-8.276980370E-2,2.351761982E-2
2.206322392E1,7.818844914E-2,-9.773556143E-3,2.962609194E-2
2.207237631E1,6.765133142E-2,6.490252167E-2,2.657185495E-2
2.208152871E1,3.817795217E-2,1.377460510E-1,1.649287529E-2
2.209068110E1,1.221694518E-3,1.960819662E-1,5.803049076E-3
2.209983350E1,-2.504473738E-2,2.437280566E-1,-3.665083554E-3
2.210898590E1,-3.390202299E-2,2.695363462E-1,-7.941014133E-3
2.211813834E1,-3.130592033E-2,2.658712566E-1,-1.832541823E-2
2.212729074E1,-2.550287358E-2,2.380777150E-1,-2.626643144E-2
2.213644314E1,-2.137965336E-2,1.814216375E-1,-2.855710872E-2
2.214559553E1,-7.635590620E-3,1.104106456E-1,-2.412846684E-2
2.215474793E1,1.695101149E-2,3.695625812E-2,-1.343864016E-2
2.216390032E1,3.955236077E-2,-2.932066843E-2,-2.901524538E-3
2.217305272E1,4.321744293E-2,-8.475505561E-2,3.206948051E-3
2.218220512E1,2.825168520E-2,-1.281252056E-1,1.985253533E-3
2.219135751E1,1.359135192E-2,-1.553079188E-1,-4.886778072E-3
2.220050991E1,1.374406368E-2,-1.608055383E-1,-6.719320081E-3
2.220966230E1,2.977880463E-2,-1.655396074E-1,2.596100792E-3
2.221881470E1,4.749337584E-2,-1.708845198E-1,1.863084175E-2
2.222796709E1,6.215370819E-2,-1.611109674E-1,3.084778599E-2
2.223711949E1,6.948387623E-2,-1.484358907E-1,3.329117596E-2
2.224627189E1,5.512896553E-2,-1.201841980E-1,1.985253580E-2
2.225542428E1,3.695625812E-2,-7.085828483E-2,5.650337320E-3
2.226457668E1,2.977880463E-2,-3.298575059E-2,6.108472589E-4
2.227372913E1,3.710897267E-2,-2.565558441E-2,4.275931045E-3
2.228288152E1,3.802524135E-2,-5.039490014E-2,7.482878864E-3
2.229203392E1,2.764083818E-2,-6.917845458E-2,4.886778072E-3
2.230118631E1,1.466033421E-2,-5.711421743E-2,-1.221694518E-3
2.231033871E1,1.618745178E-2,-2.870982140E-2,-8.093725890E-3
2.231949110E1,2.458660305E-2,-5.803049076E-3,-1.038440317E-2
2.232864350E1,3.069507517E-2,7.482878864E-3,-1.160609815E-2
2.233779590E1,2.947338112E-2,1.771457121E-2,-1.343864016E-2
2.234694829E1,1.832541823E-2,2.428117767E-2,-1.649287529E-2
2.235610069E1,-1.527118147E-4,2.901524492E-2,-2.214321308E-2
2.236525308E1,-1.511846948E-2,3.802524135E-2,-2.412846684E-2
2.237440548E1,-2.870982140E-2,4.230117425E-2,-2.550287358E-2
2.238355788E1,-3.054236248E-2,4.352286831E-2,-3.161134571E-2
2.239271032E1,-1.557660475E-2,3.985778242E-2,-3.878879920E-2
2.240186272E1,2.290677279E-3,3.023693897E-2,-4.352286831E-2
2.241101512E1,6.108472589E-3,2.122694254E-2,-4.596625641E-2
2.242016751E1,1.679830020E-3,2.535016090E-2,-4.107947648E-2
2.242931991E1,-2.748812549E-3,4.642439261E-2,-3.512371704E-2
2.243847230E1,6.108472589E-4,6.642963737E-2,-2.351761982E-2
2.244762470E1,1.832541777E-3,6.398624927E-2,-1.435491070E-2
2.245677709E1,-5.803049076E-3,3.512371704E-2,-1.007897966E-2
2.246592949E1,-1.420219894E-2,2.596100792E-3,-1.007897966E-2
2.247508189E1,-9.620844387E-3,-2.092151903E-2,-1.252236869E-2
2.248423428E1,5.803049076E-3,-3.237490356E-2,-1.420219894E-2
2.249338668E1,1.878355257E-2,-3.115320951E-2,-1.343864016E-2
2.250253913E1,2.657185495E-2,-1.542389300E-2,-1.343864016E-2
2.251169152E1,2.825168520E-2,8.704573847E-3,-1.343864016E-2
2.252084392E1,2.504473738E-2,2.794626169E-2,-1.588202827E-2
2.252999631E1,1.756185852E-2,3.695625812E-2,-1.969982497E-2
2.253914871E1,1.634016447E-2,4.184303805E-2,-2.092151903E-2
2.254830110E1,2.428117767E-2,3.817795217E-2,-2.382304333E-2
2.255745350E1,3.497100621E-2,2.855710872E-2,-2.443389036E-2
2.256660590E1,3.558185324E-2,1.771457121E-2,-2.443389036E-2
2.257575829E1,3.069507517E-2,1.343864016E-2,-2.443389036E-2
2.258491069E1,2.092151903E-2,6.872031838E-3,-2.565558441E-2
2.259406308E1,8.704573847E-3,-4.581354558E-3,-2.764083818E-2
2.260321553E1,-6.719320081E-3,-7.635590620E-3,-3.084778599E-2
2.261236793E1,-1.466033421E-2,-1.023169141E-2,-3.451287001E-2
2.262152032E1,-1.588202827E-2,-9.620844387E-3,-3.512371704E-2
2.263067272E1,-1.282779220E-2,-1.084253844E-2,-3.390202299E-2
2.263982512E1,-9.773556143E-3,-1.084253844E-2,-3.206948191E-2
2.264897751E1,-1.679830020E-3,-1.557660475E-2,-2.886253223E-2
2.265812991E1,1.068982668E-2,-2.168507688E-2,-2.947338112E-2
2.266728230E1,1.939439960E-2,-2.825168520E-2,-3.359659761E-2
2.267643470E1,1.939439960E-2,-2.458660305E-2,-3.726168349E-2
2.268558715E1,1.252236869E-2,-5.955760833E-3,-3.924693540E-2
2.269473954E1,6.719320081E-3,1.634016447E-2,-3.802524135E-2
2.270389194E1,7.788302377E-3,2.779355086E-2,-3.558185324E-2
2.271304433E1,1.023169141E-2,3.084778599E-2,-3.130592033E-2
2.272219673E1,1.756185852E-2,3.268032894E-2,-2.886253223E-2
2.273134912E1,2.260134928E-2,2.962609194E-2,-2.809897438E-2
2.274050152E1,2.260134928E-2,2.183778957E-2,-2.443389036E-2
2.274965392E1,1.832541823E-2,1.343864016E-2,-2.275406010E-2
2.275880636E1,1.099525020E-2,5.039489828E-3,-2.336490713E-2
2.276795876E1,6.261184346E-3,-8.857285604E-3,-2.947338112E-2
2.277711116E1,1.496575773E-2,-1.145338640E-2,-3.298575059E-2
2.278626355E1,3.329117596E-2,-1.068982761E-3,-3.420744836E-2
2.279541595E1,5.360184610E-2,9.162708884E-4,-2.672456764E-2
2.280456834E1,6.154286116E-2,1.954711229E-2,-1.328592747E-2
2.281372074E1,5.207473040E-2,3.649812192E-2,1.527118147E-4
2.282287314E1,3.726168349E-2,2.565558441E-2,7.941014133E-3
2.283202558E1,3.130592033E-2,3.359660041E-3,9.773556143E-3
2.284117798E1,3.573456407E-2,-2.015795931E-2,1.710372418E-2
2.285033038E1,3.894151375E-2,-3.283303976E-2,2.870982140E-2
2.285948277E1,3.771981969E-2,-4.596625641E-2,3.665083647E-2
2.286863517E1,3.558185324E-2,-7.498150319E-2,3.680354729E-2
2.287778756E1,4.398100078E-2,-1.105633527E-1,3.008422814E-2
2.288693996E1,5.955760926E-2,-1.340809762E-1,1.924168877E-2
2.289609241E1,7.742489129E-2,-1.334701329E-1,1.389677543E-2
2.290524480E1,9.208522737E-2,-1.177408099E-1,2.122694254E-2
2.291439720E1,9.437590092E-2,-9.529217333E-2,2.672456764E-2
2.292354959E1,8.185353130E-2,-7.192726433E-2,3.100049868E-2
2.293270199E1,6.245913357E-2,-4.535540938E-2,3.145863488E-2
2.294185439E1,3.878879920E-2,-2.015795931E-2,2.886253223E-2
2.295100678E1,1.893626526E-2,-3.206948051E-3,2.748812735E-2
2.296015918E1,1.145338640E-2,-1.374406274E-3,2.672456764E-2
2.296931163E1,2.153236605E-2,-1.771457121E-2,2.870982140E-2
2.297846402E1,4.092676565E-2,-4.963133857E-2,3.252761811E-2
2.298761642E1,5.848862603E-2,-9.422318637E-2,3.084778599E-2
2.299676881E1,6.887302548E-2,-1.328592747E-1,2.718270384E-2
2.300592121E1,7.085828483E-2,-1.521009654E-1,2.367033064E-2
2.301507360E1,7.330167294E-2,-1.453816444E-1,2.000524849E-2
2.302422605E1,7.299624383E-2,-1.123958975E-1,1.695101149E-2
2.303337845E1,6.887302548E-2,-7.207997888E-2,1.313321572E-2
2.304253084E1,5.818320066E-2,-4.123219103E-2,7.635590620E-3
2.305168324E1,4.016320780E-2,-2.031067200E-2,7.635590737E-4
2.306083564E1,2.718270384E-2,-8.704573847E-3,-2.443389036E-3
2.306998803E1,1.847812906E-2,-3.359660041E-3,-5.039489828E-3
2.307914043E1,1.359135192E-2,-4.581354558E-3,-9.315420873E-3
2.308829288E1,6.872031838E-3,-1.679829881E-2,-1.542389300E-2
2.309744527E1,3.206948051E-3,-1.985253580E-2,-1.664558798E-2
2.310659767E1,6.872031838E-3,-1.679829881E-2,-1.603474095E-2
2.311575006E1,1.603474095E-2,-5.803049076E-3,-1.786728203E-2
2.312490246E1,1.832541823E-2,1.527118124E-2,-1.969982497E-2
2.313405485E1,1.313321572E-2,4.474456236E-2,-1.725643501E-2
2.314320730E1,-1.832541777E-3,7.238540053E-2,-1.496575773E-2
2.315235970E1,-1.740914769E-2,8.750387281E-2,-9.468132630E-3
2.316151209E1,-2.809897438E-2,1.007898003E-1,-8.399149403E-3
2.317066449E1,-3.374931216E-2,1.159082651E-1,-5.497625098E-3