"Time (s)","Gyroscope x (rad/s)","Gyroscope y (rad/s)","Gyroscope z (rad/s)"
8.197027258E0,-1.206423342E-2,-2.551814318E-1,-2.153236605E-2
8.206179654E0,-3.283303976E-2,-1.974563748E-1,-2.779355086E-2
8.215331998E0,-4.581354558E-2,-1.408002973E-1,-2.428117767E-2
8.224484342E0,-4.718795046E-2,-1.076618284E-1,-2.061609551E-2
8.233636685E0,-4.001049697E-2,-9.315420687E-2,-2.305948362E-2
8.242789029E0,-3.634541109E-2,-8.597674966E-2,-3.329117596E-2
8.251941425E0,-4.260659590E-2,-6.184828654E-2,-3.894151375E-2
8.261093769E0,-5.283828825E-2,-2.397575416E-2,-3.481829539E-2
8.270246113E0,-6.597150117E-2,-3.512371797E-3,-2.870982140E-2
8.279398456E0,-7.528692484E-2,-4.581354558E-3,-1.969982497E-2
8.288550800E0,-7.437065244E-2,-3.833066672E-2,-1.175880991E-2
8.297703196E0,-6.826218218E-2,-1.064401343E-1,-7.330167107E-3
8.306855540E0,-6.093201414E-2,-1.727170646E-1,-4.123218823E-3
8.316007883E0,-4.642439261E-2,-2.159345001E-1,1.985253533E-3
8.325160227E0,-1.542389300E-2,-2.315111160E-1,1.023169141E-2
8.334312623E0,1.832541823E-2,-2.272351831E-1,1.588202827E-2
8.343464967E0,4.779879749E-2,-2.133384049E-1,1.924168877E-2
8.352617310E0,5.787777901E-2,-1.771457046E-1,2.290677279E-2
8.361769654E0,4.321744293E-2,-1.120904684E-1,2.825168520E-2
8.370921998E0,1.527118124E-2,-2.473931387E-2,3.466558084E-2
8.380074394E0,-1.267508045E-2,7.040014863E-2,3.741439432E-2
8.389226738E0,-2.565558441E-2,1.432436854E-1,3.252761811E-2
8.398379081E0,-2.535016090E-2,1.698155403E-1,2.458660305E-2
8.407531425E0,-1.954711229E-2,1.589729935E-1,2.275406010E-2
8.416683769E0,-1.145338640E-2,1.366770715E-1,2.764083818E-2
8.425836165E0,-4.581354558E-3,1.233911440E-1,3.206948191E-2
8.434988508E0,-7.941014133E-3,1.004843712E-1,2.779355086E-2
8.444140852E0,-1.801999472E-2,5.833591148E-2,1.313321572E-2
8.453293196E0,-2.794626169E-2,2.748812549E-3,-2.901524538E-3
8.462445540E0,-3.420744836E-2,-4.856235534E-2,-1.145338640E-2
8.471597935E0,-3.023693897E-2,-7.986827940E-2,-9.468132630E-3
8.480750279E0,-2.519745007E-2,-9.972081333E-2,3.359660041E-3
8.489902623E0,-2.565558441E-2,-1.243074164E-1,2.168507688E-2
8.499054967E0,-3.237490356E-2,-1.472141892E-1,3.634541109E-2
8.508207363E0,-4.138490185E-2,-1.736333370E-1,4.230117425E-2
8.517359706E0,-4.902049154E-2,-2.122694254E-1,4.107947648E-2
8.526512050E0,-5.283828825E-2,-2.556395829E-1,2.825168520E-2
8.535664394E0,-4.963133857E-2,-2.756448388E-1,1.496575773E-2
8.544816738E0,-3.313846514E-2,-2.605263591E-1,6.413896102E-3
8.553969133E0,-1.236965694E-2,-2.255553454E-1,5.955760833E-3
8.563121477E0,3.817795310E-3,-1.840177327E-1,7.941014133E-3
8.572273821E0,4.581354558E-3,-1.351499557E-1,7.788302377E-3
8.581426165E0,-3.206948051E-3,-8.093725890E-2,1.084253844E-2
8.590578508E0,-1.527118124E-2,-4.657710344E-2,1.130067464E-2
8.599730904E0,-2.702999115E-2,-4.062134400E-2,1.527118147E-4
8.608883248E0,-3.603998944E-2,-4.795150831E-2,-1.695101149E-2
8.618035592E0,-3.542914242E-2,-5.390727147E-2,-2.183778957E-2
8.627187935E0,-3.176405653E-2,-5.512896553E-2,-9.009997360E-3
8.636340331E0,-3.313846514E-2,-5.207473040E-2,9.315420873E-3
8.645492675E0,-4.520269856E-2,-7.131642103E-2,1.420219894E-2
8.654645019E0,-5.222744122E-2,-1.201841980E-1,1.359135192E-2
8.663797363E0,-5.207473040E-2,-2.075353563E-1,1.786728203E-2
8.672949706E0,-4.993676394E-2,-3.171824515E-1,2.168507688E-2
8.682102102E0,-4.092676565E-2,-4.311054647E-1,1.435491070E-2
8.691254446E0,1.374406274E-3,-5.244123936E-1,1.374406274E-3
8.700406790E0,5.024218559E-2,-6.064186096E-1,-1.969982497E-2
8.709559133E0,6.841489673E-2,-6.420004964E-1,-4.260659590E-2
8.718711529E0,6.810946763E-2,-5.975613594E-1,-5.360184610E-2
8.727863873E0,7.666133344E-2,-5.190674663E-1,-5.176930502E-2
8.737016217E0,1.032331884E-1,-4.556920528E-1,-4.932591692E-2
8.746168560E0,1.270562261E-1,-4.274403751E-1,-4.352286831E-2
8.755320904E0,1.244601309E-1,-4.237752855E-1,-3.695625812E-2
8.764473300E0,9.529217333E-2,-3.978142738E-1,-2.855710872E-2
8.773625644E0,5.573981255E-2,-3.231382072E-1,-1.863084175E-2
8.782777988E0,3.069507517E-2,-2.243336588E-1,-1.068982761E-3
8.791930331E0,2.993151546E-2,-1.476723254E-1,2.031067200E-2
8.801082727E0,4.184303805E-2,-1.139230132E-1,3.069507517E-2
8.810235071E0,5.115845799E-2,-1.049130186E-1,1.908897609E-2
8.819387415E0,5.589252338E-2,-7.131642103E-2,-6.413896102E-3
8.828539758E0,6.581879407E-2,-1.985253533E-3,-2.473931387E-2
8.837692102E0,8.475505561E-2,8.185353130E-2,-2.535016090E-2
8.846844498E0,1.101052165E-1,1.493521482E-1,-1.236965694E-2
8.855996842E0,1.319430023E-1,1.740914732E-1,-0.000000000E0
8.865149185E0,1.380514801E-1,1.760767251E-1,4.886778072E-3
8.874301529E0,1.307213157E-1,1.771457046E-1,4.275931045E-3
8.883453925E0,1.134648770E-1,1.849340051E-1,4.123218823E-3
8.892606269E0,9.284878522E-2,2.029540092E-1,7.635590620E-3
8.901758613E0,7.543963939E-2,2.199050188E-1,8.704573847E-3
8.910910956E0,7.360709459E-2,2.192941606E-1,3.206948051E-3
8.920063352E0,7.696675509E-2,1.908897758E-1,-5.344913341E-3
8.929215696E0,8.108997345E-2,1.624853760E-1,-1.618745178E-2
8.938368040E0,8.551861346E-2,1.444653720E-1,-2.779355086E-2
8.947520383E0,8.857285231E-2,1.438545287E-1,-3.512371704E-2
8.956672779E0,9.407047927E-2,1.667613089E-1,-4.367557913E-2
8.965825123E0,1.091889441E-1,2.040229887E-1,-5.573981255E-2
8.974977467E0,1.331647038E-1,2.269297540E-1,-7.391251624E-2
8.984129810E0,1.615691036E-1,2.153236568E-1,-9.819369763E-2
8.993282154E0,1.756185889E-1,1.797417998E-1,-1.230857223E-1
9.002434550E0,1.637070626E-1,1.429382563E-1,-1.481304616E-1
9.011586894E0,1.206423342E-1,1.440072358E-1,-1.630962193E-1
9.020739238E0,5.879404768E-2,1.745496094E-1,-1.611109674E-1
9.029891581E0,-5.039489828E-3,1.927223057E-1,-1.377460510E-1
9.039043977E0,-5.558710173E-2,1.692046970E-1,-8.689302206E-2
9.048196321E0,-8.246438205E-2,1.050657257E-1,-1.435491070E-2
9.057348665E0,-8.536590636E-2,-9.773556143E-3,6.749862432E-2
9.066501008E0,-7.513421029E-2,-1.612636745E-1,1.336228400E-1
9.075653404E0,-6.413896382E-2,-3.118375242E-1,1.724116355E-1
9.084805748E0,-5.146388337E-2,-4.321744442E-1,1.872246861E-1
9.093958092E0,-1.511846948E-2,-4.947862923E-1,1.905843467E-1
9.103110435E0,5.451811850E-2,-4.966188073E-1,1.818797737E-1
9.112250071E0,1.382041872E-1,-4.524851143E-1,1.574458778E-1
9.121415175E0,2.024958730E-1,-3.904841244E-1,1.137702987E-1
9.130567519E0,2.254026383E-1,-3.026748300E-1,5.650337040E-2
9.139707102E0,2.113531530E-1,-1.571404636E-1,2.596100792E-3
9.148872206E0,1.795890927E-1,3.680354729E-2,-3.497100621E-2
9.158024602E0,1.377460510E-1,2.438807636E-1,-4.886778072E-2
9.167176946E0,9.849911928E-2,4.227063060E-1,-4.260659590E-2
9.176329290E0,5.421269313E-2,5.480827093E-1,-2.718270384E-2
9.185481633E0,8.551862091E-3,6.102364063E-1,-1.649287529E-2
9.194634029E0,-1.985253580E-2,6.139014959E-1,-1.175880991E-2
9.203786373E0,-2.733541466E-2,5.546492934E-1,-1.114796288E-2
9.212938717E0,-1.404948719E-2,4.456130862E-1,-1.099525020E-2
9.222091060E0,1.130067464E-2,3.052709103E-1,-1.145338640E-2
9.231243456E0,3.359659761E-2,1.545443535E-1,-1.847812906E-2
9.240395800E0,4.596625641E-2,1.664558798E-2,-3.588727489E-2
9.249548144E0,3.771981969E-2,-8.842013776E-2,-5.787777901E-2
9.258700488E0,2.916795574E-2,-1.426328421E-1,-7.070557028E-2
9.267852883E0,3.741439432E-2,-1.698155403E-1,-7.070557028E-2
9.277005227E0,5.528167635E-2,-1.890572309E-1,-5.955760926E-2
9.286157571E0,6.154286116E-2,-1.997470558E-1,-5.085303262E-2
9.295309915E0,5.283828825E-2,-1.901262105E-1,-4.672981426E-2
9.304462310E0,3.161134571E-2,-1.624853760E-1,-4.627167806E-2
9.313614654E0,1.023169141E-2,-1.125486046E-1,-5.131116882E-2
9.322766998E0,-6.261184346E-3,-5.344913527E-2,-5.940489471E-2
9.331919342E0,-1.847812906E-2,-1.679830020E-3,-7.116370648E-2
9.341071685E0,-2.794626169E-2,3.619270027E-2,-8.536590636E-2
9.350224081E0,-2.855710872E-2,4.764608666E-2,-9.758284688E-2
9.359376425E0,-2.244863659E-2,4.520269856E-2,-9.926267713E-2
9.368528769E0,-1.435491070E-2,3.497100621E-2,-9.132166207E-2
9.377681165E0,-3.054236295E-3,1.634016447E-2,-7.711946964E-2
9.386833508E0,1.130067464E-2,-1.542389300E-2,-6.245913357E-2
9.395985852E0,1.527118124E-2,-5.222744122E-2,-5.253286287E-2
9.405138196E0,2.596100792E-3,-8.964183182E-2,-4.657710344E-2
9.414290592E0,-1.924168877E-2,-1.227803007E-1,-4.672981426E-2
9.423442935E0,-3.894151375E-2,-1.336228400E-1,-4.871506989E-2
9.432595279E0,-4.825693369E-2,-1.168245375E-1,-4.810422286E-2
9.441747623E0,-5.665608495E-2,-8.368607610E-2,-4.886778072E-2
9.450899967E0,-7.421794534E-2,-4.566083103E-2,-5.879404768E-2
9.460052363E0,-1.053711548E-1,-3.665083554E-3,-7.605048269E-2
9.469204706E0,-1.290414780E-1,4.077405483E-2,-8.842013776E-2
9.478357050E0,-1.275143623E-1,7.391251624E-2,-9.513945878E-2
9.487509394E0,-1.090362370E-1,8.475505561E-2,-9.880454093E-2
9.496661790E0,-8.551861346E-2,7.207997888E-2,-1.023169160E-1
9.505814133E0,-6.490252167E-2,5.283828825E-2,-1.009425074E-1
9.514966477E0,-5.008947477E-2,4.092676565E-2,-9.834641218E-2
9.524118821E0,-4.703523964E-2,3.374931216E-2,-1.012479365E-1
9.533271217E0,-5.070032179E-2,3.848337755E-2,-1.081199646E-1
9.542423560E0,-4.902049154E-2,6.200099736E-2,-1.117850468E-1
9.551575904E0,-2.962609194E-2,1.029277667E-1,-1.030804738E-1
9.560728248E0,1.007897966E-2,1.368297935E-1,-8.460234851E-2
9.569880644E0,6.474980712E-2,1.466033459E-1,-6.704048812E-2
9.579032988E0,1.264453828E-1,1.252236813E-1,-5.192201585E-2
9.588185331E0,1.853921413E-1,8.124268800E-2,-4.291202128E-2
9.597337675E0,2.399102598E-1,3.924693540E-2,-3.527642787E-2
9.606490071E0,2.976353168E-1,4.428642802E-3,-2.932066843E-2
9.615642415E0,3.581092060E-1,-2.260134928E-2,-2.397575416E-2
9.624794758E0,4.298837483E-1,-4.306473210E-2,-1.603474095E-2
9.633947102E0,5.167768002E-1,-5.192201585E-2,1.068982761E-3
9.643099498E0,6.166502833E-1,-5.344913527E-2,2.367033064E-2
9.652251842E0,7.194253802E-1,-5.680879578E-2,4.642439261E-2
9.661404185E0,8.272398710E-1,-5.772506446E-2,6.917845458E-2
9.670556581E0,9.478822351E-1,-4.947862774E-2,1.047603041E-1
9.679708925E0,1.089446068E0,-5.146388337E-2,1.608055383E-1
9.688861269E0,1.242463350E0,-9.437590092E-2,2.168507725E-1
9.698013613E0,1.396549582E0,-1.934858710E-1,2.692309320E-1
9.707166008E0,1.541320324E0,-3.364241421E-1,3.095468581E-1
9.716318352E0,1.673874259E0,-4.993676245E-1,3.293993771E-1
9.725470696E0,1.794974685E0,-6.589514613E-1,3.231382072E-1
9.734623040E0,1.911035657E0,-8.107470274E-1,2.898470163E-1
9.743775383E0,2.033357859E0,-9.602518678E-1,2.382304370E-1
9.752927779E0,2.163620949E0,-1.099983215E0,1.733279079E-1
9.762080123E0,2.291288137E0,-1.200773001E0,1.041494608E-1
9.771219706E0,2.390398026E0,-1.241699815E0,3.833066672E-2
9.780384863E0,2.440181971E0,-1.192526579E0,-4.581354442E-4
9.789537206E0,2.436975241E0,-1.047144890E0,1.404948719E-2
9.798689550E0,2.390703440E0,-8.477032781E-1,5.573981255E-2
9.807841894E0,2.312362194E0,-6.577298045E-1,1.032331884E-1
9.816994290E0,2.208518267E0,-5.028799772E-1,1.432436854E-1
9.826146633E0,2.079018593E0,-3.721587062E-1,1.667613089E-1
9.835298977E0,1.948602796E0,-2.724378705E-1,1.681357026E-1
9.844451321E0,1.833763480E0,-2.304421216E-1,1.521009654E-1
9.853603717E0,1.738623977E0,-2.203631550E-1,1.679829955E-1
9.862756060E0,1.660435557E0,-2.324273884E-1,1.881409585E-1
9.871908404E0,1.604390383E0,-2.493783981E-1,2.047865391E-1
9.881048040E0,1.583163381E0,-2.958027720E-1,2.194468826E-1
9.890213144E0,1.603321314E0,-3.993414044E-1,2.012741715E-1
9.899365488E0,1.661504507E0,-5.633538961E-1,1.701209545E-1
9.908517831E0,1.737249613E0,-7.525638342E-1,1.377460510E-1
9.917670175E0,1.806275368E0,-9.356653094E-1,1.133121699E-1
9.926822571E0,1.836817741E0,-1.038134933E0,1.014006436E-1
9.935974915E0,1.822768211E0,-1.070051670E0,1.038440317E-1
9.945127258E0,1.784742951E0,-1.081046939E0,1.010952219E-1
9.954279654E0,1.742899895E0,-1.082421303E0,7.574506104E-2
9.963431998E0,1.703500271E0,-1.060889006E0,4.245388508E-2
9.972584342E0,1.661046386E0,-9.875873327E-1,1.038440317E-2
9.981736685E0,1.616760015E0,-8.509102464E-1,-6.566607859E-3
9.990889081E0,1.571709991E0,-7.015580535E-1,-7.635590620E-3
1.000004143E1,1.527270913E0,-5.618267655E-1,-1.221694518E-3
1.000919377E1,1.484206080E0,-4.431696832E-1,1.236965694E-2
1.001834611E1,1.441446781E0,-3.568875194E-1,3.344388679E-2
1.002749851E1,1.392731786E0,-3.032856584E-1,5.986303091E-2
1.003665085E1,1.349361539E0,-2.785463631E-1,8.399149776E-2
1.004580320E1,1.311030984E0,-2.767138183E-1,9.712471068E-2
1.005495554E1,1.286444306E0,-2.791571915E-1,9.636115283E-2
1.006410794E1,1.266591787E0,-2.678565085E-1,8.887827396E-2
1.007326028E1,1.239409089E0,-2.545706034E-1,8.139539510E-2
1.008241262E1,1.196191669E0,-2.473931462E-1,8.170082420E-2
1.009156497E1,1.140757203E0,-2.516690791E-1,9.590301663E-2
1.010071736E1,1.079672575E0,-2.596100867E-1,1.149920002E-1
1.010986971E1,1.021031141E0,-2.518217862E-1,1.336228400E-1
1.011902205E1,9.561286569E-1,-2.606790662E-1,1.678302884E-1
1.012817439E1,8.967237473E-1,-3.155026138E-1,1.992889196E-1
1.013732679E1,8.452599049E-1,-3.596363366E-1,2.160872221E-1
1.014647913E1,7.939487100E-1,-4.036173224E-1,2.241809368E-1
1.015563148E1,7.424848676E-1,-4.434750974E-1,2.330382317E-1
1.016478387E1,7.009472251E-1,-4.862344265E-1,2.431172132E-1
1.017393622E1,6.668924689E-1,-5.453338623E-1,2.466295809E-1
1.018308856E1,6.334486008E-1,-6.013791561E-1,2.403683960E-1
1.019224090E1,5.975613594E-1,-6.407787800E-1,2.260134816E-1
1.020139330E1,5.494571328E-1,-6.468872428E-1,2.073826492E-1
1.021054564E1,4.944808483E-1,-6.265766025E-1,1.893626451E-1
1.021969799E1,4.332434237E-1,-5.821374655E-1,1.766875684E-1
1.022885033E1,3.603998721E-1,-5.063923597E-1,1.669140160E-1
1.023800273E1,2.880144715E-1,-4.046863019E-1,1.634016484E-1
1.024715507E1,2.194468826E-1,-3.203893900E-1,1.676775664E-1
1.025630742E1,1.498102844E-1,-2.602209449E-1,1.786728203E-1
1.026545981E1,7.650861889E-2,-1.927223057E-1,1.861557066E-1
1.027461215E1,-3.817795310E-3,-1.007898003E-1,1.853921413E-1
1.028376450E1,-9.345962852E-2,9.926267900E-3,1.756185889E-1
1.029291684E1,-1.881409585E-1,1.218640283E-1,1.620272398E-1
1.030206924E1,-2.825168669E-1,2.023431510E-1,1.539335102E-1
1.031122158E1,-3.752129376E-1,2.342599183E-1,1.582094431E-1
1.032037392E1,-4.582881629E-1,2.112004459E-1,1.740914732E-1
1.032952627E1,-5.138752460E-1,1.443126649E-1,1.968455315E-1
1.033867866E1,-5.305208564E-1,6.123743951E-2,2.188360244E-1
1.034783101E1,-4.972296655E-1,-1.817270555E-2,2.392994165E-1
1.035698335E1,-4.314108789E-1,-9.086353332E-2,2.539597452E-1
1.036613575E1,-3.593308926E-1,-1.559187621E-1,2.593046725E-1
1.037527533E1,-3.074088693E-1,-2.220429778E-1,2.589992285E-1
1.038444044E1,-2.889307439E-1,-2.967190444E-1,2.525853515E-1
1.039359283E1,-2.841966748E-1,-4.149180055E-1,2.423536479E-1
1.040273242E1,-2.672456801E-1,-5.812211633E-1,2.272351831E-1
1.041189752E1,-2.441861928E-1,-7.374453545E-1,2.031067163E-1
1.042104986E1,-2.192941606E-1,-8.115105629E-1,1.740914732E-1
1.043018950E1,-2.183778882E-1,-7.707365155E-1,1.545443535E-1
1.043935460E1,-2.351761907E-1,-6.152759194E-1,1.444653720E-1
1.044850695E1,-2.376195788E-1,-4.002576768E-1,1.363716573E-1
1.045764658E1,-2.168507725E-1,-2.321219593E-1,1.217113137E-1
1.046681169E1,-1.743968874E-1,-2.057028115E-1,8.719844371E-2
1.047596403E1,-1.467560530E-1,-2.383831441E-1,4.352286831E-2
1.048511637E1,-1.510319859E-1,-1.817270666E-1,3.970507160E-2
1.049426877E1,-2.237228155E-1,-7.727217674E-2,9.468132257E-2
1.050342111E1,-3.794888556E-1,1.374406368E-2,1.736333370E-1
1.051257346E1,-5.415160656E-1,1.088835225E-1,2.309002578E-1
1.052172585E1,-6.329904795E-1,1.998997629E-1,2.706053257E-1
1.053087820E1,-6.487197876E-1,2.186833173E-1,2.948864996E-1
1.054003054E1,-6.299362183E-1,1.896680743E-1,2.925958335E-1
1.054918288E1,-6.126797795E-1,2.005106062E-1,2.603736520E-1
1.055833523E1,-6.449019909E-1,2.423536479E-1,2.038702667E-1
1.056748762E1,-7.197307944E-1,2.389939874E-1,1.264453828E-1
1.057663997E1,-7.551599145E-1,1.730224788E-1,6.337540597E-2
1.058579231E1,-7.472189069E-1,1.789782494E-1,4.566083103E-2
1.059494471E1,-7.545490861E-1,3.037438095E-1,6.810946763E-2
1.060409705E1,-8.003626466E-1,4.659237564E-1,9.391776472E-2
1.061324939E1,-8.987090588E-1,6.183301210E-1,1.139230132E-1
1.062240174E1,-1.042410851E0,7.006418109E-1,1.232384369E-1
1.063155413E1,-1.178629756E0,7.058340311E-1,1.215586066E-1
1.064070648E1,-1.269951463E0,7.768449783E-1,1.221694499E-1
1.064985882E1,-1.294996142E0,8.901571631E-1,1.316375881E-1
1.065901122E1,-1.307671309E0,9.171871543E-1,1.406475753E-1
1.066816356E1,-1.344780207E0,9.268079996E-1,1.409530044E-1
1.067730314E1,-1.383569002E0,9.472714067E-1,1.375933439E-1
1.068646830E1,-1.442363143E0,9.634588361E-1,1.360662282E-1
1.069562064E1,-1.485122442E0,9.307785034E-1,1.247655526E-1
1.070477299E1,-1.422052383E0,8.284615874E-1,1.137702987E-1
1.071392533E1,-1.377307892E0,7.828007340E-1,1.391204596E-1
1.072307773E1,-1.395022392E0,6.655181050E-1,2.018850148E-1
1.073223007E1,-1.408155680E0,5.861079693E-1,2.812951505E-1
1.074138242E1,-1.359440565E0,4.756973088E-1,3.544441164E-1
1.075053476E1,-1.283084631E0,3.193204105E-1,4.143071473E-1
1.075968715E1,-1.255901933E0,2.044811249E-1,4.669927359E-1
1.076883950E1,-1.235743999E0,7.925742865E-2,5.051707029E-1
1.077799184E1,-1.174353838E0,-1.097997949E-1,5.063923597E-1
1.078714424E1,-1.083948493E0,-2.635805905E-1,4.564556181E-1
1.079629658E1,-1.002705812E0,-3.547495604E-1,3.672719002E-1
1.080544892E1,-9.437590241E-1,-4.164451063E-1,2.553341687E-1
1.081460132E1,-8.961129189E-1,-3.897205591E-1,1.487413049E-1
1.082375366E1,-8.660287261E-1,-2.695363462E-1,6.597150117E-2
1.083290601E1,-8.273926377E-1,-1.467560530E-1,6.261184346E-3
1.084205835E1,-7.730271816E-1,-5.528167635E-2,-4.291202128E-2
1.085121075E1,-7.075138092E-1,7.299624383E-2,-8.170082420E-2
1.086036309E1,-6.558972597E-1,2.423536479E-1,-1.015533581E-1
1.086951544E1,-6.125270724E-1,4.321744442E-1,-1.105633527E-1
1.087866783E1,-5.639647245E-1,6.505523324E-1,-1.165191159E-1
1.088782018E1,-4.946335554E-1,8.403730989E-1,-1.246128380E-1
1.089697252E1,-4.474456310E-1,1.009730577E0,-1.360662282E-1
1.090612486E1,-4.388937652E-1,1.168703556E0,-1.598892659E-1
1.091527726E1,-4.900522232E-1,1.315612316E0,-1.878355294E-1
1.092442960E1,-5.711421967E-1,1.440225124E0,-2.055501044E-1
1.093358195E1,-6.348230243E-1,1.536433578E0,-2.067717910E-1
1.094273434E1,-6.675033569E-1,1.599045396E0,-1.966928244E-1
1.095188668E1,-6.774296165E-1,1.546054363E0,-1.924168915E-1
1.096103903E1,-7.023216486E-1,1.430909753E0,-2.015796006E-1
1.097019137E1,-7.284353375E-1,1.322331548E0,-2.157817930E-1
1.097934377E1,-7.069029808E-1,1.264453769E0,-2.278460264E-1
1.098849611E1,-6.708629727E-1,1.227650285E0,-2.452551723E-1
1.099764846E1,-6.406260729E-1,1.173437595E0,-2.754921019E-1
1.100680085E1,-6.059604883E-1,1.111894727E0,-3.179459870E-1
1.101595320E1,-5.703786016E-1,1.075549364E0,-3.573456407E-1
1.102510554E1,-5.636593103E-1,1.091125965E0,-3.732276857E-1
1.103425794E1,-5.740436912E-1,1.135870457E0,-3.605526090E-1
1.104341028E1,-5.679352283E-1,1.201078415E0,-3.232909143E-1
1.105256262E1,-5.845808387E-1,1.336686492E0,-2.867927849E-1
1.106171497E1,-6.543701291E-1,1.535670042E0,-2.649549842E-1
1.107086736E1,-7.621846795E-1,1.665627718E0,-2.510582209E-1
1.108001971E1,-8.043331504E-1,1.684258580E0,-2.354816198E-1
1.108915929E1,-7.354601026E-1,1.630809426E0,-2.185306102E-1
1.109832445E1,-6.476507783E-1,1.519635320E0,-2.110477239E-1
1.110747679E1,-6.252021790E-1,1.353332043E0,-2.101314515E-1
1.111661637E1,-6.754443645E-1,1.110978484E0,-2.024958730E-1
1.112578153E1,-7.127060294E-1,7.939487100E-1,-2.122694254E-1
1.113493387E1,-6.981984377E-1,5.438067913E-1,-2.302894145E-1
1.114408622E1,-7.065975666E-1,3.978142738E-1,-2.486148328E-1
1.115323856E1,-7.461498976E-1,2.724378705E-1,-2.603736520E-1
1.116239096E1,-7.679877281E-1,1.669140160E-1,-2.585411072E-1
1.117153054E1,-7.563816309E-1,1.730224788E-1,-2.444916219E-1
1.118069564E1,-7.586722970E-1,2.785463631E-1,-2.238755226E-1
1.118984804E1,-8.154810667E-1,3.561239541E-1,-2.192941606E-1
1.119898762E1,-8.637380004E-1,3.837648034E-1,-2.411319613E-1
1.120815273E1,-8.678612709E-1,4.570664763E-1,-2.808370292E-1
1.121730512E1,-8.449544907E-1,5.395308137E-1,-3.368822634E-1
1.122645747E1,-8.188407421E-1,6.267293096E-1,-4.027010500E-1
1.123560981E1,-8.002098799E-1,7.012526393E-1,-4.595098495E-1
1.124476215E1,-7.976137996E-1,7.143858671E-1,-5.004366040E-1
1.125391455E1,-7.913526297E-1,6.997255087E-1,-5.173876286E-1
1.126306689E1,-7.823426127E-1,7.168292403E-1,-5.027272701E-1
1.127221924E1,-7.719582319E-1,7.832589149E-1,-4.660764635E-1
1.128137163E1,-7.398887277E-1,8.967237473E-1,-4.201101959E-1
1.129052398E1,-6.867450476E-1,1.001178622E0,-3.782671690E-1
1.129967632E1,-6.137487888E-1,1.032789946E0,-3.460449576E-1
1.130882866E1,-5.080721974E-1,9.830059409E-1,-3.257342875E-1
1.131798106E1,-3.472666740E-1,8.454126120E-1,-3.129065037E-1
1.132713340E1,-1.272089481E-1,6.378772259E-1,-2.996205688E-1
1.133628575E1,1.027750522E-1,4.086568058E-1,-2.782409191E-1
1.134543814E1,3.115321100E-1,2.018850148E-1,-2.418955117E-1
1.135459049E1,5.094466209E-1,2.031067200E-2,-1.890572309E-1
1.136374283E1,7.382088900E-1,-1.441599578E-1,-1.298050433E-1
1.137289523E1,1.011868477E0,-3.086305857E-1,-7.650861889E-2
1.138204757E1,1.320651770E0,-4.724903405E-1,-2.779355086E-2
1.139119992E1,1.632794738E0,-6.030589342E-1,3.924693540E-2
1.140035231E1,1.901262045E0,-6.908682585E-1,1.345391124E-1
1.140950465E1,2.093068123E0,-7.443174124E-1,2.446443290E-1
1.141865700E1,2.190498352E0,-7.956285477E-1,3.516952991E-1
1.142780939E1,2.202409744E0,-8.012788892E-1,4.359922409E-1
1.143696174E1,2.203020573E0,-6.780404449E-1,5.018110275E-1
1.144610132E1,2.211572409E0,-7.779139876E-1,5.593833923E-1
1.145526643E1,2.229745150E0,-1.354706526E0,6.638382673E-1
1.146441882E1,2.269603014E0,-2.227912664E0,8.325847983E-1
1.147355840E1,2.415595531E0,-3.082640648E0,1.020573020E0
1.148272351E1,2.653367758E0,-3.674704313E0,1.130067468E0
1.149187590E1,2.908243895E0,-3.819169760E0,1.081810474E0
1.150101549E1,3.071034670E0,-3.617131948E0,8.985562921E-1
1.151018059E1,3.102340460E0,-3.275057554E0,6.511631608E-1
1.151933299E1,3.087832928E0,-2.982614517E0,4.023956358E-1
1.152847257E1,3.107074499E0,-2.825474024E0,2.038702667E-1
1.153763768E1,3.147696018E0,-2.687269688E0,7.345438004E-2
1.154679007E1,3.152124643E0,-2.402462244E0,3.481829539E-2
1.155592965E1,3.088443756E0,-1.905232549E0,7.482878864E-2
1.156509476E1,2.984905243E0,-1.252389550E0,1.615691036E-1
1.157424715E1,2.885184288E0,-5.005893111E-1,2.910687327E-1
1.158339950E1,2.807454109E0,2.047865391E-1,4.407263100E-1
1.159255184E1,2.734152317E0,7.574505806E-1,5.937435627E-1
1.160170419E1,2.639012814E0,1.132052660E0,7.502731681E-1
1.161084382E1,2.532419920E0,1.340809703E0,8.843541145E-1
1.162000892E1,2.426132679E0,1.405406833E0,9.599464536E-1
1.162916127E1,2.325037479E0,1.333021402E0,9.739959836E-1
1.163830090E1,2.226996422E0,1.135106921E0,9.434536099E-1
1.164746601E1,2.127733707E0,8.273926377E-1,8.892409205E-1
1.165661835E1,2.018239260E0,4.785988331E-1,8.191461563E-1
1.166575799E1,1.902636528E0,1.466033459E-1,7.116370797E-1
1.167492309E1,1.794516563E0,-1.769929975E-1,5.938962698E-1
1.168407544E1,1.707318068E0,-5.138752460E-1,4.781406820E-1
1.169322783E1,1.615080118E0,-8.313631415E-1,3.573456407E-1
1.170238018E1,1.517802715E0,-1.148392797E0,2.457133085E-1
1.171153252E1,1.413958669E0,-1.404948711E0,1.487413049E-1
1.172067215E1,1.302937150E0,-1.574764252E0,7.605048269E-2
1.172983726E1,1.195275426E0,-1.647455096E0,4.062134400E-2
1.173898960E1,1.103801012E0,-1.627144337E0,3.008422814E-2
1.174812924E1,1.018587828E0,-1.534448266E0,3.680354729E-2
1.175729434E1,9.254335761E-1,-1.404337883E0,5.131116882E-2
1.176644668E1,8.070819378E-1,-1.258039951E0,6.383354217E-2
1.177558632E1,6.662816405E-1,-1.086544514E0,7.299624383E-2
1.178475143E1,5.187620521E-1,-8.667922616E-1,7.681404054E-2
1.179390377E1,3.746020794E-1,-5.934380889E-1,7.559234649E-2
1.180305617E1,2.336490750E-1,-2.748812735E-1,7.742489129E-2
1.181220851E1,9.437590092E-2,6.291726977E-2,8.475505561E-2
1.182136085E1,-3.665083647E-2,3.736858070E-1,9.086353332E-2
1.183051320E1,-1.493521482E-1,5.844281316E-1,9.651386738E-2
1.183966559E1,-2.408265322E-1,6.699467301E-1,1.038440317E-1
1.184881794E1,-3.303156495E-1,6.794148684E-1,1.136175916E-1
1.185795757E1,-4.399627447E-1,6.697940230E-1,1.255291104E-1
1.186712268E1,-5.848862529E-1,6.719319820E-1,1.368297935E-1
1.187627502E1,-7.449282408E-1,6.529957056E-1,1.437018216E-1
1.188541465E1,-8.871029615E-1,5.551074743E-1,1.456870735E-1
1.189457976E1,-9.816315174E-1,3.704788685E-1,1.342336833E-1
1.190373210E1,-1.016144395E0,2.510582209E-1,1.145338640E-1
1.191287174E1,-1.033400893E0,3.261924386E-1,7.711946964E-2
1.192203684E1,-1.045617819E0,4.831801951E-1,1.038440317E-2
1.193118919E1,-1.010341406E0,5.250232220E-1,-1.072036922E-1
1.194032882E1,-8.990144730E-1,6.259657145E-1,-2.501419485E-1
1.194949392E1,-7.685985565E-1,6.939224601E-1,-3.358132839E-1
1.195864627E1,-8.761076927E-1,2.296785712E-1,-3.497100472E-1
1.196778585E1,-1.196344376E0,-7.246175408E-1,-3.164188862E-1
1.197695101E1,-1.210699320E0,-1.019656777E0,-2.192941606E-1
1.198610335E1,-9.765920639E-1,-5.059342384E-1,-7.879929990E-2
1.199525570E1,-1.113116384E0,2.046338283E-2,2.794626169E-2
1.200440809E1,-1.680746198E0,3.504736125E-1,6.826218218E-2
1.201356044E1,-2.016101360E0,6.875085831E-1,9.498675168E-2
1.202270007E1,-1.836206913E0,9.597937465E-1,1.485885978E-1
1.203186518E1,-1.582705259E0,9.933903813E-1,1.637070626E-1
1.204101752E1,-1.439614296E0,7.450809479E-1,9.407047927E-2
1.205015710E1,-1.505433083E0,6.255075932E-1,2.535016090E-2
1.205932226E1,-1.642415524E0,5.775560737E-1,4.886778072E-3
1.206847460E1,-1.611109614E0,4.433223903E-1,3.695625812E-2
1.207761424E1,-1.477639556E0,1.647760421E-1,9.972081333E-2
1.208677934E1,-1.324774981E0,-2.144073844E-1,1.505738497E-1
1.209593168E1,-1.213295341E0,-4.352286756E-1,1.936385781E-1
1.210508403E1,-1.125027895E0,-4.795151055E-1,2.363978922E-1
1.211423643E1,-1.035233378E0,-4.689779878E-1,2.699944973E-1
1.212338877E1,-9.831586480E-1,-4.249969721E-1,2.776300907E-1
1.213252835E1,-9.758284688E-1,-3.323009014E-1,2.409792393E-1
1.214169351E1,-1.002400398E0,-1.609582454E-1,1.594311297E-1
1.215084585E1,-1.043174386E0,5.497625470E-2,4.672981426E-2
1.215999820E1,-1.067761064E0,2.435753495E-1,-8.429691941E-2
1.216915059E1,-1.068677306E0,3.975088596E-1,-1.893626451E-1
1.217830294E1,-1.069593549E0,5.430431962E-1,-2.579302490E-1
1.218745528E1,-1.051115394E0,7.563816309E-1,-2.903051674E-1
1.219660768E1,-1.030193925E0,9.744541049E-1,-2.909159958E-1
1.220576002E1,-1.021947503E0,1.074022174E0,-2.689255178E-1
1.221489960E1,-1.034317136E0,1.138619304E0,-2.299840003E-1
1.222406476E1,-1.034317136E0,1.178018928E0,-1.847812980E-1
1.223321710E1,-1.041036487E0,1.150988936E0,-1.470614821E-1
1.224236945E1,-1.024543524E0,1.034775257E0,-1.273616552E-1
1.225152184E1,-1.019045949E0,8.823688626E-1,-1.294996142E-1
1.226067419E1,-1.050504565E0,7.719582319E-1,-1.450762302E-1
1.226982653E1,-1.092194915E0,6.736118197E-1,-1.647760421E-1
1.227897892E1,-1.096318126E0,5.951179266E-1,-1.989834905E-1
1.228813127E1,-1.077839971E0,5.503733754E-1,-2.347180545E-1
1.229728361E1,-1.068219185E0,4.622586668E-1,-2.675510943E-1
1.230643601E1,-1.083032131E0,4.054498672E-1,-2.903051674E-1
1.231558835E1,-1.125486016E0,4.578300118E-1,-2.906105816E-1
1.232474070E1,-1.158929944E0,5.337277651E-1,-2.695363462E-1
1.233389309E1,-1.158929944E0,6.009209752E-1,-2.341072112E-1
1.234304544E1,-1.174506545E0,7.269082665E-1,-1.983726472E-1
1.235219778E1,-1.216044188E0,8.191461563E-1,-1.681357026E-1
1.236135018E1,-1.251015186E0,8.571714163E-1,-1.574458778E-1
1.237050252E1,-1.250251651E0,9.203941226E-1,-1.684411317E-1
1.237965486E1,-1.240325332E0,1.061957955E0,-1.911951900E-1
1.238880726E1,-1.273921967E0,1.186570764E0,-2.208212912E-1
1.239795960E1,-1.304158926E0,1.197718740E0,-2.655658424E-1
1.240711195E1,-1.335464835E0,1.209019423E0,-2.976353168E-1
1.241626434E1,-1.358982444E0,1.220472813E0,-2.970244884E-1
1.242541668E1,-1.338977218E0,1.170536041E0,-2.730487287E-1
1.243456903E1,-1.265675545E0,1.039356589E0,-2.486148328E-1
1.244372143E1,-1.169161677E0,9.237537384E-1,-2.637332976E-1
1.245287377E1,-1.072953224E0,8.851176500E-1,-3.332171738E-1
1.246202611E1,-1.052489877E0,9.106205702E-1,-4.297310412E-1
1.247117851E1,-1.139230132E0,9.283351302E-1,-5.066977739E-1
1.248033085E1,-1.229330063E0,9.652913809E-1,-5.573981404E-1
1.248948320E1,-1.243074179E0,1.010341406E0,-5.935907960E-1
1.249863559E1,-1.207034230E0,1.045770526E0,-6.219952106E-1
1.250778794E1,-1.178629756E0,1.118155956E0,-6.346703172E-1
1.251694028E1,-1.162595034E0,1.194817185E0,-6.181774139E-1
1.252609268E1,-1.105175376E0,1.163053155E0,-5.871769190E-1
1.253524502E1,-9.987352490E-1,1.040883780E0,-5.686988235E-1
1.254439736E1,-8.820634484E-1,9.501729012E-1,-5.683933496E-1
1.255354976E1,-8.108997345E-1,8.304468393E-1,-5.580089688E-1
1.256270210E1,-7.626428008E-1,6.839962006E-1,-5.691569448E-1
1.257185445E1,-7.543963790E-1,6.128324866E-1,-6.019899845E-1
1.258100684E1,-7.795938253E-1,6.114581227E-1,-6.253548861E-1
1.259015919E1,-7.872294188E-1,6.349757314E-1,-6.253548861E-1
1.259931153E1,-7.424848676E-1,6.392516494E-1,-6.006155610E-1
1.260846392E1,-6.375718117E-1,6.070294380E-1,-5.541911721E-1
1.261761627E1,-4.854708612E-1,5.273138881E-1,-4.979932308E-1
1.262675590E1,-2.823641598E-1,3.917058110E-1,-4.390464723E-1
1.263592101E1,-3.252761811E-2,2.127275616E-1,-3.779617548E-1
1.264507335E1,2.331909388E-1,3.084778599E-2,-3.112266660E-1
1.265422575E1,4.842491746E-1,-1.003316641E-1,-2.342599183E-1
1.266337809E1,7.185090780E-1,-1.936385781E-1,-1.476723254E-1
1.267253044E1,9.402466416E-1,-2.953446507E-1,-6.184828654E-2
1.268168283E1,1.142284393E0,-4.520269632E-1,1.786728203E-2
1.269083518E1,1.316070437E0,-6.358919740E-1,8.948912472E-2
1.269998752E1,1.481762767E0,-7.794411182E-1,1.560714692E-1
1.270913992E1,1.659213901E0,-8.831323981E-1,2.099787444E-1
1.271829226E1,1.793753028E0,-9.045121074E-1,2.316638231E-1
1.272744460E1,1.923099875E0,-7.513421178E-1,2.208212912E-1
1.273658424E1,2.088486671E0,-5.630484819E-1,2.145601064E-1
1.274574934E1,2.256011724E0,-5.693096519E-1,2.658712566E-1
1.275490168E1,2.358328581E0,-9.222266674E-1,4.170559645E-1
1.276404132E1,2.424452782E0,-1.459466815E0,6.230642200E-1
1.277320643E1,2.516537905E0,-2.062831163E0,8.318212628E-1
1.278235877E1,2.656269312E0,-2.613509893E0,9.943066239E-1
1.279151117E1,2.817991018E0,-2.894346952E0,1.065928459E0
1.280066351E1,2.959860325E0,-2.870829344E0,1.023627281E0
1.280981590E1,3.056526899E0,-2.718117476E0,8.715263009E-1
1.281895549E1,3.108143568E0,-2.536848783E0,6.763606071E-1
1.282812059E1,3.130592108E0,-2.425979853E0,5.103628635E-1
1.283727299E1,3.107074499E0,-2.510735035E0,4.198047817E-1
1.284641257E1,3.012393236E0,-2.641761780E0,3.678827584E-1
1.285557768E1,2.875257969E0,-2.537917614E0,3.229855001E-1
1.286473007E1,2.766680002E0,-2.163468361E0,2.956500649E-1
1.287386965E1,2.759502411E0,-1.567739487E0,3.397837877E-1
1.288303476E1,2.844104767E0,-8.773293495E-1,4.595098495E-1
1.289218715E1,2.918169975E0,-1.258345395E-1,6.120689511E-1
1.290132674E1,2.912367105E0,5.178457499E-1,7.679877281E-1
1.291049184E1,2.800276518E0,9.593356252E-1,8.871029615E-1
1.291964424E1,2.598391533E0,1.172521353E0,9.466605186E-1
1.292878382E1,2.387038469E0,1.159540772E0,9.481876493E-1
1.293794892E1,2.225774765E0,1.010341406E0,9.251281619E-1
1.294710132E1,2.113684177E0,8.075400591E-1,8.970292211E-1
1.295624090E1,2.031983376E0,5.198310018E-1,8.515210748E-1
1.296540606E1,1.971967697E0,1.452289373E-1,7.866185308E-1
1.297455840E1,1.915158868E0,-2.197522968E-1,7.143858671E-1
1.298371075E1,1.821088433E0,-5.361711979E-1,5.906893015E-1
1.299286314E1,1.713273883E0,-8.284615874E-1,4.582881629E-1
1.300201549E1,1.607597232E0,-1.096012712E0,3.422271907E-1
1.301116783E1,1.494590521E0,-1.310420036E0,2.640387416E-1
1.302032023E1,1.381583810E0,-1.463284612E0,2.017323077E-1
1.302947257E1,1.276670814E0,-1.568044901E0,1.265980899E-1
1.303861221E1,1.138772011E0,-1.554606318E0,8.093725890E-2
1.304777731E1,9.732323885E-1,-1.427244663E0,5.222744122E-2
1.305692965E1,7.948650122E-1,-1.261857748E0,2.886253223E-2
1.306606929E1,6.111527085E-1,-1.104411840E0,4.886778072E-3
1.307523439E1,4.269822240E-1,-9.709417224E-1,-1.298050396E-2
1.308438674E1,2.539597452E-1,-8.544226289E-1,-2.107422985E-2
1.309353913E1,7.818844914E-2,-7.124006152E-1,-2.244863659E-2
1.310269148E1,-1.261399537E-1,-5.277720094E-1,-3.008422814E-2
1.311184382E1,-3.585673273E-1,-2.987042964E-1,-4.825693369E-2
1.312099622E1,-5.993938446E-1,-2.504473738E-2,-7.528692484E-2
1.313014856E1,-7.918107510E-1,2.657185495E-1,-9.330692142E-2
1.313930090E1,-9.187142849E-1,4.672981501E-1,-9.987352788E-2
1.314844054E1,-9.857547879E-1,4.611896873E-1,-9.666658193E-2
1.315760564E1,-1.026834249E0,2.985515893E-1,-9.254335612E-2
1.316675799E1,-1.078603506E0,8.872556686E-2,-8.551861346E-2
1.317591038E1,-1.111742020E0,-1.456870735E-1,-9.223793447E-2
1.318506273E1,-1.008050680E0,-1.965401024E-1,-1.611109674E-1
1.319421512E1,-7.183563709E-1,-6.291726977E-2,-3.118375242E-1
1.320335471E1,-4.173613787E-1,-1.221694499E-1,-5.135698318E-1
1.321251981E1,-1.940967143E-1,-7.359182239E-1,-7.136223316E-1
1.322167221E1,-1.343863904E-1,-1.351804972E0,-7.238540053E-1
1.323081179E1,-6.520794630E-1,-1.287055135E0,-4.294256270E-1
1.323997695E1,-1.835595965E0,-7.113316059E-1,-3.405473381E-2
1.324912929E1,-2.810813665E0,9.182561636E-1,2.492256761E-1
1.325826887E1,-2.616258860E0,3.338433027E0,4.880669713E-1
1.326743398E1,-2.067107201E0,4.718183994E0,6.980457306E-1
1.327658637E1,-1.928139329E0,3.618353844E0,6.027535200E-1
1.328572596E1,-1.725032687E0,2.272809982E0,2.441861928E-1
1.329489111E1,-1.315917730E0,2.070008755E0,-2.687728032E-2
1.330404346E1,-1.259414315E0,2.010603666E0,-1.327065676E-1
1.331318309E1,-1.574153423E0,1.532615781E0,-1.962346882E-1
1.332234820E1,-1.787491798E0,9.078717232E-1,-2.180724740E-1
1.333150054E1,-1.657075882E0,2.237228155E-1,-1.635543555E-1
1.334064018E1,-1.461452127E0,-4.237752855E-1,-1.634016447E-2
1.334980528E1,-1.354248405E0,-9.387195110E-1,1.887518018E-1
1.335895762E1,-1.304158926E0,-1.254374862E0,3.645231128E-1
1.336809726E1,-1.256512761E0,-1.513679504E0,4.494308829E-1
1.337726236E1,-1.199551344E0,-1.703958392E0,4.541649222E-1
1.338641471E1,-1.141520858E0,-1.618439794E0,4.288147688E-1
1.339555434E1,-1.128692985E0,-1.308129430E0,3.956763148E-1
1.340471945E1,-1.159998894E0,-9.517000318E-1,3.367295563E-1
1.341387179E1,-1.197566032E0,-4.995203316E-1,2.457133085E-1
1.342301142E1,-1.218487620E0,-1.496575773E-2,1.322484314E-1
1.343217653E1,-1.226886749E0,4.902049303E-1,2.183778957E-2
1.344132887E1,-1.222763538E0,8.907679915E-1,-6.139015034E-2
1.345048127E1,-1.223374367E0,1.191152096E0,-1.154501289E-1
1.345963361E1,-1.231315374E0,1.403879762E0,-1.363716573E-1
1.346878601E1,-1.235285878E0,1.508029222E0,-1.284306347E-1
1.347793835E1,-1.238798261E0,1.549719453E0,-1.236965731E-1
1.348709070E1,-1.224748731E0,1.509250879E0,-1.424801201E-1
1.349624309E1,-1.198634982E0,1.428924441E0,-1.838650256E-1
1.350538268E1,-1.169619799E0,1.308892965E0,-2.263189107E-1
1.351454783E1,-1.141520858E0,1.136481285E0,-2.564031482E-1
1.352370018E1,-1.133732557E0,9.713998437E-1,-2.812951505E-1
1.353285252E1,-1.127318621E0,8.176190853E-1,-2.939702570E-1
1.354200492E1,-1.111894727E0,6.748335361E-1,-3.066453338E-1
1.355115726E1,-1.103495598E0,5.699204803E-1,-3.234436214E-1
1.356030960E1,-1.110367656E0,5.141806602E-1,-3.472666740E-1
1.356946200E1,-1.132816195E0,5.581616759E-1,-3.634541333E-1
1.357861434E1,-1.173895717E0,6.033644080E-1,-3.698680103E-1
1.358776668E1,-1.211310148E0,7.185090780E-1,-3.457395434E-1
1.359691908E1,-1.232537031E0,9.240592122E-1,-3.016058207E-1
1.360607143E1,-1.249946237E0,1.141215444E0,-2.467822880E-1
1.361522382E1,-1.266744494E0,1.321568012E0,-1.835595965E-1
1.362437617E1,-1.284000993E0,1.447097182E0,-1.362189353E-1
1.363355518E1,-1.304464340E0,1.510930657E0,-1.168245375E-1
1.364268090E1,-1.351804972E0,1.574764252E0,-1.238492802E-1
1.365183325E1,-1.440530539E0,1.638445020E0,-1.331647038E-1
1.366098564E1,-1.505891204E0,1.647455096E0,-1.293469071E-1
1.367012523E1,-1.473821759E0,1.563768983E0,-1.143811494E-1
1.367929033E1,-1.417929173E0,1.386165142E0,-1.139230132E-1
1.368844273E1,-1.437781692E0,1.198024154E0,-1.365243644E-1
1.369759507E1,-1.481304646E0,1.053711534E0,-1.672194302E-1
1.370674742E1,-1.452136636E0,9.000834227E-1,-1.980672181E-1
1.371589981E1,-1.301410079E0,7.507312894E-1,-2.389939874E-1
1.372505215E1,-1.125333309E0,6.006155610E-1,-3.280249834E-1
1.373420455E1,-1.054627776E0,4.030064642E-1,-4.671454430E-1
1.374335689E1,-1.092500329E0,2.886253297E-1,-5.949652195E-1
1.375250924E1,-1.191304922E0,3.423798978E-1,-6.531484127E-1
1.376166163E1,-1.237423778E0,5.292991400E-1,-6.413896084E-1
1.377081398E1,-1.162595034E0,7.652388811E-1,-5.958815217E-1
1.377996637E1,-1.033248186E0,8.829796910E-1,-5.638120174E-1
1.378911872E1,-9.671239257E-1,8.692356348E-1,-5.621321797E-1
1.379827106E1,-9.662076235E-1,8.415948153E-1,-5.651864409E-1
1.380742346E1,-9.684983492E-1,7.482879162E-1,-5.535803437E-1
1.381657580E1,-9.449806809E-1,5.832064152E-1,-5.337277651E-1
1.382572814E1,-8.930587173E-1,4.158342779E-1,-5.141806602E-1
1.383488054E1,-8.163973689E-1,2.605263591E-1,-5.092939138E-1
1.384403288E1,-7.182036638E-1,8.948912472E-2,-5.140279531E-1
1.385318528E1,-6.013791561E-1,-8.811471611E-2,-5.076140761E-1
1.386232486E1,-4.747810364E-1,-2.041756958E-1,-4.804313779E-1
1.387148997E1,-3.385621011E-1,-1.464506239E-1,-4.367557764E-1
1.388064236E1,-1.701209545E-1,8.780929446E-2,-3.849864900E-1
1.388979471E1,3.374931216E-2,3.613161445E-1,-3.257342875E-1
1.389894705E1,2.722851634E-1,5.312843919E-1,-2.698417902E-1
1.390809945E1,5.373928547E-1,5.192201734E-1,-2.270824611E-1
1.391725179E1,8.191461563E-1,3.377985358E-1,-1.809635013E-1
1.392640418E1,1.110520363E0,5.176930502E-2,-1.163664013E-1
1.393555653E1,1.395175099E0,-2.415900975E-1,-4.459185153E-2
1.394470887E1,1.663489819E0,-5.066977739E-1,2.229592577E-2
1.395386127E1,1.921420097E0,-7.728744745E-1,8.536590636E-2
1.396301361E1,2.179350376E0,-1.040425539E0,1.411057115E-1
1.397215325E1,2.400018930E0,-1.192526579E0,1.739387512E-1
1.398131835E1,2.587854385E0,-1.038440347E0,1.646233350E-1
1.399047070E1,2.717659473E0,-7.841751575E-1,1.240019947E-1
1.399961033E1,2.768512487E0,-6.140542030E-1,1.351499557E-1
1.400877544E1,2.694141865E0,-6.137487888E-1,2.530434728E-1
1.401792778E1,2.579302549E0,-7.794411182E-1,4.746283293E-1
1.402706742E1,2.563420534E0,-1.211004734E0,7.643226385E-1
1.403623252E1,2.695210934E0,-1.814063668E0,1.055696726E0
1.404538492E1,2.900150061E0,-2.292204380E0,1.246891975E0
1.405452450E1,3.070729256E0,-2.499587059E0,1.277587056E0
1.406368960E1,3.155942440E0,-2.597017050E0,1.154195905E0
1.407284200E1,3.147390604E0,-2.789433956E0,9.509364963E-1
1.408198158E1,3.110586882E0,-3.062024593E0,7.322531343E-1
1.409114674E1,3.107990742E0,-3.213514805E0,5.179984570E-1
1.410029908E1,3.124483824E0,-3.106463671E0,3.293993771E-1
1.410943872E1,3.101577044E0,-2.764083862E0,2.154763639E-1
1.411860382E1,3.060497522E0,-2.170493126E0,2.214321345E-1
1.412775617E1,3.030565977E0,-1.409071922E0,3.232909143E-1
1.413689580E1,2.997122049E0,-7.111788988E-1,4.891359508E-1
1.414606090E1,2.942145824E0,-1.453816444E-1,6.781931520E-1
1.415521325E1,2.855100155E0,3.439069986E-1,8.513683677E-1
1.416436564E1,2.737511873E0,6.882721782E-1,9.718579650E-1
1.417351799E1,2.597627878E0,8.799254894E-1,1.016449809E0
1.418267033E1,2.449039459E0,8.964183331E-1,9.921686649E-1
1.419180997E1,2.306101084E0,7.658497691E-1,9.307785034E-1
1.420097507E1,2.169576645E0,5.572454333E-1,8.536590338E-1
1.421012747E1,2.058249950E0,2.953446507E-1,7.699729800E-1
1.421926705E1,1.970440507E0,2.672456764E-2,6.884248853E-1
1.422843221E1,1.889197826E0,-2.292204350E-1,6.067240238E-1
1.423758455E1,1.806122661E0,-4.779879749E-1,5.166240931E-1
1.424673689E1,1.724879980E0,-7.232431769E-1,4.112529159E-1
1.425588929E1,1.637528777E0,-9.750649333E-1,2.941229641E-1
1.426504163E1,1.532463074E0,-1.232384324E0,1.818797737E-1
1.427419403E1,1.382500052E0,-1.459619522E0,9.788827598E-2
1.428334637E1,1.193595529E0,-1.604084849E0,4.718795046E-2
1.429249872E1,9.888089895E-1,-1.648524046E0,1.832541777E-3
1.430163835E1,8.069292307E-1,-1.602710485E0,-5.558710173E-2
1.431080346E1,6.525375843E-1,-1.478861213E0,-9.956810623E-2
1.431995585E1,5.089884996E-1,-1.285222650E0,-1.104106456E-1
1.432909544E1,3.490992188E-1,-1.063485026E0,-8.979454637E-2
1.433826059E1,1.678302884E-1,-8.539644480E-1,-5.405998230E-2
1.434741294E1,-1.007897966E-2,-6.354338527E-1,-3.512371797E-3
1.435656528E1,-1.579040140E-1,-3.955236077E-1,6.184828654E-2
1.436571768E1,-2.788517773E-1,-1.320957243E-1,1.346918195E-1
1.437487002E1,-4.007157981E-1,1.728697717E-1,1.928750277E-1
1.438402242E1,-5.424323678E-1,4.987567961E-1,2.295258641E-1
1.439317476E1,-6.989619732E-1,7.618792653E-1,2.495311052E-1
1.440232710E1,-8.573241234E-1,8.948912621E-1,2.489202619E-1
1.441147950E1,-1.014770031E0,9.307785034E-1,2.325800955E-1
1.442063184E1,-1.191152096E0,8.912261724E-1,2.075353563E-1
1.442978424E1,-1.387692213E0,7.576032877E-1,1.719534993E-1
1.443892382E1,-1.509861708E0,5.209000111E-1,1.181989461E-1
1.444808898E1,-1.538877010E0,3.440597057E-1,6.322269142E-2
1.445724132E1,-1.540862203E0,5.288410187E-1,-7.788302377E-3
1.446638096E1,-1.502378821E0,1.035233378E0,-1.136175916E-1
1.447554606E1,-1.417776465E0,1.363258362E0,-2.573194206E-1
1.448469840E1,-1.257581830E0,1.249640822E0,-4.289674759E-1
1.449383804E1,-1.096470833E0,8.034168482E-1,-5.679352283E-1
1.450300314E1,-1.263842940E0,1.276670843E-1,-5.465555787E-1
1.451215554E1,-1.459161401E0,-4.039227366E-1,-3.210002482E-1
1.452129512E1,-1.305685997E0,-8.414421231E-2,3.512371704E-2
1.453046028E1,-1.196344376E0,7.773031592E-1,3.681881726E-1
1.453961262E1,-1.524522066E0,1.182142138E0,4.637857676E-1
1.454875226E1,-1.970287800E0,5.480827093E-1,3.390202224E-1
1.455791736E1,-1.792531252E0,-1.258345395E-1,2.247917950E-1
1.456706971E1,-1.395327806E0,-3.964398801E-1,1.812689304E-1
1.457620934E1,-1.391051888E0,-3.026748300E-1,1.311794519E-1
1.458537445E1,-1.580872655E0,-9.009997360E-3,8.200624585E-2
1.459452684E1,-1.639972210E0,6.734590977E-2,5.589252338E-2
1.460366642E1,-1.514443040E0,-1.789782494E-1,5.635065958E-2
1.461283158E1,-1.372726560E0,-4.063661397E-1,9.177979827E-2
1.462198392E1,-1.317597508E0,-5.929799676E-1,1.325538605E-1
1.463113627E1,-1.270562291E0,-6.349757314E-1,1.572931707E-1
1.464028867E1,-1.183669329E0,-4.787515402E-1,1.444653720E-1
1.464944101E1,-1.126707792E0,-2.257080674E-1,1.018587798E-1
1.465859340E1,-1.104411840E0,6.566607859E-3,3.527642787E-2
1.466774575E1,-1.086086392E0,2.021904439E-1,-3.436015919E-2
1.467689814E1,-1.099983215E0,4.002576768E-1,-7.299624383E-2
1.468605049E1,-1.140451789E0,5.906893015E-1,-6.734590977E-2
1.469520288E1,-1.171910524E0,7.788302302E-1,-3.405473381E-2
1.470435523E1,-1.130220175E0,9.935430884E-1,7.482878864E-3
1.471350762E1,-1.052489877E0,1.174659252E0,4.703523964E-2
1.472265997E1,-1.012021184E0,1.188556075E0,5.650337040E-2
1.473181236E1,-1.017366052E0,1.124569774E0,2.290677279E-2
1.474096471E1,-1.044548869E0,1.021183848E0,-3.390202299E-2
1.475011705E1,-1.037371397E0,8.655705452E-1,-9.620844573E-2
1.475926945E1,-1.007287145E0,7.484406233E-1,-1.472141892E-1
1.476842179E1,-1.003927469E0,6.646018028E-1,-1.831014603E-1
1.477757418E1,-1.040120125E0,5.877877474E-1,-2.015796006E-1
1.478672653E1,-1.068982720E0,5.088357925E-1,-2.084516287E-1
1.479587892E1,-1.068830013E0,4.268295169E-1,-2.113531530E-1
1.480503127E1,-1.077687263E0,4.521796703E-1,-2.066190839E-1
1.481418367E1,-1.086849928E0,5.233433843E-1,-2.104368806E-1
1.482333601E1,-1.123348117E0,6.111527085E-1,-2.296785712E-1
1.483248840E1,-1.171452284E0,7.038487792E-1,-2.619007528E-1
1.484164075E1,-1.201689243E0,7.802046537E-1,-2.913741469E-1
1.485079314E1,-1.243379593E0,8.354863524E-1,-3.089359999E-1
1.485994549E1,-1.267966151E0,9.764393568E-1,-3.090887070E-1
1.486909788E1,-1.265370131E0,1.153585076E0,-2.964136302E-1
1.487825023E1,-1.264148355E0,1.291789293E0,-2.725905776E-1
1.488740262E1,-1.264912009E0,1.356844425E0,-2.434226274E-1
1.489655497E1,-1.292705536E0,1.437781692E0,-2.278460264E-1
1.490570736E1,-1.331494331E0,1.567739487E0,-2.293731421E-1
1.491485971E1,-1.320193648E0,1.690672517E0,-2.458660156E-1
1.492401205E1,-1.267202616E0,1.772526026E0,-2.858765125E-1
1.493316445E1,-1.224290609E0,1.770082593E0,-3.374931216E-1
1.494231684E1,-1.189166903E0,1.718007922E0,-4.001049399E-1
1.495146918E1,-1.154654026E0,1.694337606E0,-4.731011987E-1
1.496062153E1,-1.200925708E0,1.725948930E0,-5.418215394E-1
1.496977392E1,-1.319888234E0,1.752062678E0,-5.824428797E-1
1.497892632E1,-1.404796004E0,1.655548811E0,-5.761816502E-1
1.498807867E1,-1.381889224E0,1.485122442E0,-5.489989519E-1
1.499723106E1,-1.265522838E0,1.344932914E0,-5.346440673E-1
1.500638340E1,-1.161220670E0,1.151599765E0,-5.593833923E-1
1.501553580E1,-1.147781968E0,9.049702287E-1,-6.000047326E-1
1.502468814E1,-1.197107911E0,6.216897964E-1,-6.117635369E-1
1.503384054E1,-1.222152710E0,2.921377122E-1,-5.696150661E-1
1.504299288E1,-1.218487620E0,-7.223268598E-2,-5.114318728E-1
1.505214528E1,-1.224137902E0,-3.524588645E-1,-4.873034060E-1
1.506129762E1,-1.230093718E0,-4.989095032E-1,-5.086830258E-1
1.507045002E1,-1.224748731E0,-6.158867478E-1,-5.402944088E-1
1.507960236E1,-1.206881523E0,-7.459971905E-1,-5.511369109E-1
1.508875476E1,-1.178018928E0,-8.719844818E-1,-5.441122055E-1
1.509789434E1,-1.165649295E0,-9.626953006E-1,-5.109737515E-1
1.510705950E1,-1.167329073E0,-9.981244206E-1,-4.584408700E-1
1.511621184E1,-1.150988936E0,-9.155073166E-1,-4.271349311E-1
1.512536424E1,-1.083490372E0,-6.623111367E-1,-4.475983381E-1
1.513451658E1,-9.374978542E-1,-2.855710983E-1,-4.944808483E-1
1.514366898E1,-7.128587365E-1,1.134648770E-1,-5.183038712E-1
1.515280856E1,-4.375193417E-1,3.961344361E-1,-4.848600030E-1
1.516197372E1,-1.177408099E-1,4.422534108E-1,-3.878880143E-1
1.517112606E1,2.411319613E-1,3.565820754E-1,-2.473931462E-1
1.518027846E1,6.067240238E-1,3.600944579E-1,-1.091889441E-1
1.518943080E1,9.408574700E-1,4.532486796E-1,-5.497625098E-3
1.519858320E1,1.251778722E0,4.630222321E-1,5.955760926E-2
1.520773554E1,1.579803705E0,3.636068404E-1,8.704573661E-2
1.521688794E1,1.938981891E0,2.454078794E-1,7.192726433E-2
1.522604028E1,2.292662382E0,2.060082406E-1,2.977880463E-2
1.523517992E1,2.558381081E0,2.883199155E-1,-1.053711493E-2
1.524434502E1,2.730029106E0,4.680617154E-1,-2.886253223E-2
1.525349742E1,2.777827978E0,4.755446017E-1,1.236965694E-2
1.526263705E1,2.717812061E0,9.147437662E-2,1.452289373E-1
1.527180215E1,2.636264086E0,-6.942279339E-1,3.736858070E-1
1.528095450E1,2.654894829E0,-1.597518325E0,6.510104537E-1
1.529009413E1,2.816616774E0,-2.361077309E0,9.019159675E-1
1.529925929E1,3.046295166E0,-2.835552931E0,1.061499834E0
1.530841163E1,3.236574173E0,-2.975436926E0,1.099525094E0
1.531755127E1,3.331713676E0,-2.968870401E0,1.053711534E0
1.532671637E1,3.305141687E0,-3.008422852E0,9.747595191E-1
1.533586877E1,3.243293524E0,-2.936037302E0,8.722898960E-1
1.534500835E1,3.227716923E0,-2.715368748E0,7.401941419E-1
1.535417351E1,3.220539570E0,-2.588312626E0,5.745018721E-1
1.536332585E1,3.166479588E0,-2.584342003E0,3.610107303E-1
1.537246549E1,3.066606045E0,-2.332825661E0,1.525591016E-1
1.538163059E1,2.964136362E0,-1.712663054E0,5.619794875E-2
1.539078299E1,2.922446012E0,-9.315420985E-1,1.114796251E-1
1.539992257E1,2.931150675E0,-1.919587553E-1,3.063398898E-1
1.540908773E1,2.945352793E0,3.761292100E-1,5.764871240E-1
1.541824007E1,2.922598600E0,7.380561829E-1,8.362498879E-1
1.542739247E1,2.857390881E0,9.857547879E-1,1.028514028E0
1.543654481E1,2.754768372E0,1.103495598E0,1.121821046E0
1.544569721E1,2.635347843E0,1.081505060E0,1.118003249E0
1.545483684E1,2.523562670E0,9.371923804E-1,1.051268101E0
1.546400195E1,2.426896095E0,6.800256968E-1,9.683456421E-1
1.547315429E1,2.323815584E0,3.883461356E-1,8.939749599E-1
1.548229392E1,2.208212852E0,1.023169160E-1,8.304468393E-1
1.549145908E1,2.088334084E0,-1.679829955E-1,7.583668828E-1
1.550061142E1,1.981893897E0,-4.289674759E-1,6.558972597E-1
1.550975106E1,1.896680713E0,-6.983511448E-1,5.241069198E-1
1.551891616E1,1.790087938E0,-9.124531150E-1,3.758237660E-1
1.552806856E1,1.658450365E0,-1.102884769E0,2.681619525E-1
1.553722090E1,1.519788027E0,-1.269187927E0,1.921114624E-1
1.554637330E1,1.371352077E0,-1.384179831E0,1.123958975E-1
1.555552564E1,1.214517117E0,-1.461757541E0,5.451811850E-2
1.556466528E1,1.049588323E0,-1.484969735E0,3.512371704E-2
1.557383044E1,8.826742768E-1,-1.437781692E0,2.168507688E-2
1.558298278E1,7.116370797E-1,-1.319888234E0,-5.803049076E-3
1.559213518E1,5.285356045E-1,-1.161373377E0,-5.008947477E-2
1.560128752E1,3.431434333E-1,-1.010035992E0,-1.015533581E-1
1.561043992E1,1.655396074E-1,-9.006943107E-1,-1.339282542E-1
1.561959226E1,5.803049076E-3,-8.189934492E-1,-1.345391124E-1
1.562874465E1,-1.264453828E-1,-6.720846891E-1,-9.468132257E-2
1.563789700E1,-2.293731421E-1,-3.610107303E-1,-5.955760833E-3
1.564703663E1,-3.268032968E-1,8.032641560E-2,9.147437662E-2
1.565620174E1,-4.604261220E-1,5.270084739E-1,1.634016484E-1
1.566535413E1,-6.404733658E-1,8.590039611E-1,2.180724740E-1
1.567450653E1,-8.483141065E-1,9.920159578E-1,2.696890533E-1
1.568365887E1,-1.072036982E0,8.906152844E-1,3.133646548E-1
1.569281127E1,-1.323247910E0,6.449019909E-1,3.361186981E-1
1.570195085E1,-1.600572586E0,3.533751369E-1,3.405473530E-1
1.571111601E1,-1.884005666E0,1.600419879E-1,2.916795611E-1
1.572026835E1,-2.082989216E0,2.067717910E-1,1.528645307E-1
1.572940799E1,-2.004495382E0,6.363501549E-1,-5.329642445E-2
1.573857309E1,-1.520246148E0,1.264759302E0,-2.848075330E-1
1.574772549E1,-9.292513728E-1,1.295148849E0,-4.724903405E-1
1.575686512E1,-6.187883019E-1,2.997733057E-1,-5.543438792E-1
1.576603023E1,-7.359182239E-1,-1.048824787E0,-4.902049303E-1
1.577518262E1,-1.341725945E0,-1.190999389E0,-2.373141646E-1
1.578432221E1,-1.793294787E0,1.354553849E-1,1.684411317E-1
1.579348736E1,-1.834221601E0,1.361578584E0,4.370612204E-1
1.580263971E1,-1.917602301E0,8.431219459E-1,3.886515796E-1
1.581177934E1,-1.718771458E0,-2.454078794E-1,2.693836391E-1
1.582094445E1,-1.265980959E0,-3.316900730E-1,3.391729295E-1
1.583009684E1,-1.254527569E0,3.077143133E-1,5.262449384E-1
1.583923648E1,-1.496881247E0,8.325847983E-1,6.310052276E-1
1.584840158E1,-1.575833201E0,7.860077024E-1,5.729747415E-1
1.585755398E1,-1.518413544E0,2.513636351E-1,3.881934285E-1
1.586669356E1,-1.422968745E0,-3.333698809E-1,1.542389393E-1
1.587585872E1,-1.356539011E0,-5.815265775E-1,-3.695625812E-2
1.588501106E1,-1.300951958E0,-5.929799676E-1,-1.798945218E-1
1.589416346E1,-1.191610336E0,-5.601469278E-1,-3.043546379E-1
1.590331580E1,-1.113116384E0,-4.682144225E-1,-4.132381678E-1
1.591246820E1,-1.086849928E0,-1.911951900E-1,-4.895940721E-1
1.592160783E1,-1.107313395E0,2.454078794E-1,-5.242596865E-1
1.593077294E1,-1.150683522E0,6.896465421E-1,-5.175403357E-1
1.593992533E1,-1.203674555E0,1.097539783E0,-4.888305068E-1
1.594907768E1,-1.229788303E0,1.376086116E0,-4.440859556E-1
1.595823007E1,-1.247808218E0,1.580109119E0,-3.710896969E-1
1.596738242E1,-1.254527569E0,1.741220117E0,-2.838912606E-1
1.597652205E1,-1.267966151E0,1.825364351E0,-2.021904439E-1
1.598568721E1,-1.256665468E0,1.841093659E0,-1.484358907E-1
1.599483955E1,-1.217113137E0,1.761225343E0,-1.401894391E-1
1.600397919E1,-1.175728321E0,1.622563004E0,-1.667613089E-1
1.601314429E1,-1.147934675E0,1.432589531E0,-2.121167034E-1
1.602229668E1,-1.125027895E0,1.164885759E0,-2.625116110E-1
1.603144903E1,-1.121362805E0,9.074136019E-1,-3.110739589E-1
1.604060143E1,-1.127471328E0,7.047650218E-1,-3.530697227E-1
1.604975377E1,-1.113116384E0,5.792359114E-1,-3.871244490E-1
1.605890616E1,-1.108993173E0,5.919110179E-1,-4.066715539E-1
1.606805856E1,-1.105328083E0,6.870504618E-1,-4.237752855E-1
1.607721090E1,-1.084712029E0,8.026533127E-1,-4.480564594E-1
1.608636330E1,-1.086086392E0,8.900044560E-1,-4.683671296E-1
1.609551564E1,-1.099372387E0,9.403993487E-1,-4.782933891E-1
1.610466804E1,-1.092500329E0,9.996515512E-1,-4.770717025E-1
1.611382038E1,-1.060125470E0,1.093111157E0,-4.701996744E-1
1.612297278E1,-1.037829518E0,1.213142633E0,-4.462239146E-1
1.613212518E1,-1.049741030E0,1.293469071E0,-4.048390090E-1
1.614127752E1,-1.069593549E0,1.275449038E0,-3.524588645E-1
1.615042992E1,-1.056918502E0,1.218487620E0,-2.907632887E-1
1.615958226E1,-1.039203882E0,1.197718740E0,-2.197522968E-1
1.616873465E1,-1.027903199E0,1.210088372E0,-1.487413049E-1
1.617788700E1,-1.001331329E0,1.186112642E0,-1.088835225E-1
1.618703939E1,-9.801044464E-1,1.150683522E0,-1.068982705E-1
1.619619179E1,-9.807152748E-1,1.095707297E0,-1.362189353E-1
1.620534413E1,-9.762866497E-1,1.029888511E0,-1.788255423E-1
1.621449653E1,-9.823951125E-1,9.061918855E-1,-2.203631550E-1
1.622364887E1,-9.976662993E-1,7.565343380E-1,-2.521272004E-1
1.623280127E1,-9.827005267E-1,6.818582416E-1,-2.757975459E-1
1.624195366E1,-9.541434050E-1,6.835380793E-1,-3.072561622E-1
1.625110601E1,-9.320002198E-1,7.014053464E-1,-3.541387022E-1
1.626025840E1,-9.283351302E-1,7.386670709E-1,-4.017847776E-1
1.626941075E1,-9.223793745E-1,7.667660117E-1,-4.280512035E-1
1.627856314E1,-9.332218766E-1,6.757497787E-1,-4.353813827E-1
1.628771549E1,-9.448279738E-1,4.532486796E-1,-4.395045936E-1
1.629686788E1,-9.538379908E-1,2.279987335E-1,-4.462239146E-1
1.630602028E1,-9.985825419E-1,1.308740228E-1,-4.573718905E-1
1.631517262E1,-1.081199646E0,1.491994411E-1,-4.854708612E-1
1.632432502E1,-1.144880533E0,2.490729690E-1,-5.221216679E-1
1.633347736E1,-1.177255392E0,3.567348123E-1,-5.352548957E-1
1.634262976E1,-1.187639832E0,3.423798978E-1,-5.212054253E-1
1.635178210E1,-1.169314384E0,2.044811249E-1,-4.929537475E-1
1.636093450E1,-1.130220175E0,2.565558441E-2,-4.680617154E-1
1.637008684E1,-1.081657767E0,-8.933641016E-2,-4.559974670E-1
1.637923924E1,-1.022252917E0,-1.241547018E-1,-4.561502039E-1
1.638839163E1,-9.521581531E-1,-1.101052165E-1,-4.440859556E-1
1.639754398E1,-8.674030900E-1,-8.750387281E-2,-4.129327536E-1
1.640669637E1,-7.487460375E-1,-6.673506647E-2,-3.742966652E-1
1.641584872E1,-5.593833923E-1,-3.069507517E-2,-3.400892019E-1
1.642500111E1,-2.985515893E-1,1.221694518E-3,-3.040492237E-1
1.643415351E1,1.725643501E-2,-4.581354558E-2,-2.614426315E-1
1.644330585E1,3.862081766E-1,-1.811162084E-1,-2.153236568E-1
1.645245825E1,7.970029712E-1,-3.642176688E-1,-1.707318127E-1
1.646161059E1,1.207186937E0,-5.525113344E-1,-1.330119967E-1
1.647076299E1,1.561630964E0,-7.116370797E-1,-1.127013192E-1
1.647991533E1,1.818339586E0,-8.070819378E-1,-1.163664013E-1
1.648906773E1,1.987544298E0,-8.357917666E-1,-1.371352077E-1
1.649820736E1,2.096427679E0,-8.025006056E-1,-1.569877416E-1
1.650737247E1,2.181182861E0,-6.897992492E-1,-1.687465608E-1
1.651652486E1,2.258760452E0,-4.564556181E-1,-1.861557066E-1
1.652566445E1,2.313278675E0,-6.474980712E-2,-1.988307834E-1
1.653482960E1,2.329313278E0,4.651601911E-1,-1.575985998E-1
1.654398200E1,2.315569162E0,9.875873327E-1,-1.756185852E-2
1.655312158E1,2.280445576E0,1.285986185E0,2.078407854E-1
1.656228674E1,2.287928343E0,1.106244445E0,4.614951015E-1
1.657143908E1,2.387038469E0,5.071559548E-1,7.209524512E-1
1.658057872E1,2.492562294E0,-3.472666740E-1,1.015991688E0
1.658974382E1,2.501266718E0,-1.335617542E0,1.291025639E0
1.659889622E1,2.480039835E0,-2.180113792E0,1.394106150E0
1.660803585E1,2.515621662E0,-2.596864462E0,1.288429618E0
1.661720096E1,2.594420910E0,-2.764541864E0,1.069746256E0
1.662635335E1,2.689254999E0,-2.899844646E0,7.927270532E-1
1.663549294E1,2.794015408E0,-3.033925533E0,4.943281412E-1
1.664465809E1,2.860750437E0,-3.089054585E0,2.469350100E-1
1.665381044E1,2.815547705E0,-2.999259949E0,1.108687744E-1
1.666295007E1,2.637027502E0,-2.725600481E0,5.818320066E-2
1.667211523E1,2.413457632E0,-2.258760452E0,8.200624585E-2
1.668126757E1,2.258455038E0,-1.643484592E0,1.713426560E-1
1.669040721E1,2.197217703E0,-9.903361201E-1,3.096995652E-1
1.669957231E1,2.185764313E0,-4.546230733E-1,4.648547769E-1
1.670872471E1,2.197981119E0,-8.002099395E-2,5.838172436E-1
1.671787705E1,2.231425047E0,2.228065431E-1,6.528429985E-1
1.672702945E1,2.265326977E0,5.418215394E-1,7.065975666E-1
1.673618184E1,2.278460264E0,8.428165317E-1,7.540909648E-1
1.674532142E1,2.244252920E0,1.004996419E0,7.757760286E-1
1.675448658E1,2.145295620E0,1.045159698E0,7.866185308E-1
1.676363893E1,2.007396698E0,9.402466416E-1,7.973083854E-1
1.677277856E1,1.867054701E0,7.212579250E-1,7.994463444E-1
1.678194366E1,1.736333370E0,4.534013867E-1,7.847860456E-1
1.679109606E1,1.636917949E0,1.365243644E-1,7.372926474E-1
1.680023570E1,1.574764252E0,-2.452551723E-1,6.558972597E-1
1.680940080E1,1.546970725E0,-6.204680800E-1,5.485408306E-1
1.681855320E1,1.534142852E0,-9.199360013E-1,4.289674759E-1
1.682770554E1,1.499324560E0,-1.104106426E0,3.170297146E-1
1.683685794E1,1.424190402E0,-1.219709277E0,2.305948436E-1
1.684601033E1,1.309198380E0,-1.298355818E0,1.869192570E-1
1.685514992E1,1.158166409E0,-1.290872931E0,1.713426560E-1
1.686431507E1,1.001942158E0,-1.169467092E0,1.426328421E-1
1.687346742E1,8.586985469E-1,-1.045159698E0,1.030804738E-1
1.688261981E1,7.221741676E-1,-9.429954290E-1,7.574506104E-2
1.689177221E1,5.757235289E-1,-8.330429196E-1,6.551336497E-2
1.690092455E1,4.066715539E-1,-7.368345261E-1,7.162184268E-2
1.691007695E1,2.362451702E-1,-6.346703172E-1,7.513421029E-2
1.691922929E1,7.024743408E-2,-4.727957845E-1,7.024743408E-2
1.692838168E1,-8.536590636E-2,-2.399102598E-1,6.352811307E-2
1.693753403E1,-2.165453583E-1,3.756710514E-2,6.780404598E-2
1.694668642E1,-3.274141252E-1,2.961082160E-1,9.009996802E-2
1.695583882E1,-4.413371384E-1,5.479300022E-1,1.232384369E-1
1.696499116E1,-5.538857579E-1,7.853968740E-1,1.595838517E-1
1.697414356E1,-6.601731777E-1,9.300149679E-1,1.989834905E-1
1.698329590E1,-7.750124335E-1,9.468132257E-1,2.377723008E-1
1.699244830E1,-8.918370008E-1,8.202151656E-1,2.579302490E-1
1.700160070E1,-9.642223716E-1,5.795413256E-1,2.533488870E-1
1.701075304E1,-1.007592559E0,3.333698809E-1,2.134911120E-1
1.701989268E1,-1.040425539E0,1.149920002E-1,1.487413049E-1
1.702905778E1,-1.143047929E0,-2.168507688E-2,5.650337040E-2
1.703821018E1,-1.389982939E0,1.592784226E-1,-9.697200358E-2
1.704734981E1,-1.556438804E0,5.647283196E-1,-3.449759781E-1
1.705651492E1,-1.356080890E0,1.270714998E0,-6.769714952E-1
1.706566731E1,-1.251320601E0,1.814063668E0,-9.403993487E-1
1.707480689E1,-1.733737230E0,3.159607351E-1,-1.042258143E0
1.708397205E1,-2.138576269E0,-1.386470556E0,-8.783983588E-1
1.709312439E1,-1.641957402E0,-8.758022785E-1,-4.337015450E-1
1.710226403E1,-1.071426034E0,5.012001991E-1,1.322484314E-1
1.711142919E1,-1.450151443E0,1.230246425E0,5.528167486E-1
1.712058153E1,-2.186375141E0,1.715564489E0,7.580614686E-1
1.712972116E1,-1.976090908E0,1.292094707E0,7.524111271E-1
1.713888627E1,-1.237423778E0,1.704263836E-1,5.410579443E-1
1.714803866E1,-9.953756332E-1,-6.233696342E-1,2.136438340E-1
1.715717830E1,-1.218945742E0,-6.817055345E-1,2.153236605E-2
1.716634340E1,-1.428160906E0,-4.036173224E-1,6.444438547E-2
1.717549580E1,-1.371504784E0,-2.063136548E-1,2.454078794E-1
1.718463544E1,-1.218029380E0,-9.804098308E-2,4.688252807E-1
1.719380054E1,-1.187792540E0,-1.805053651E-1,6.284091473E-1
1.720295294E1,-1.223985195E0,-4.052971601E-1,6.331431866E-1
1.721210528E1,-1.230399132E0,-5.155550838E-1,4.891359508E-1
1.722125768E1,-1.237882018E0,-4.007157981E-1,2.454078794E-1
1.723041002E1,-1.223985195E0,-2.324273884E-1,-2.825168520E-2
1.723954965E1,-1.194206357E0,-1.423274130E-1,-2.632751763E-1
1.724871481E1,-1.164885759E0,-5.421269313E-2,-4.065188468E-1
1.725786715E1,-1.192679286E0,1.806580722E-1,-4.318690002E-1
1.726700679E1,-1.263079405E0,4.424061179E-1,-3.501681983E-1
1.727617189E1,-1.296676040E0,6.826218367E-1,-2.084516287E-1
1.728532429E1,-1.300035715E0,8.562551737E-1,-5.100574717E-2
1.729447663E1,-1.291789293E0,8.941276670E-1,8.460234851E-2
1.730362903E1,-1.277281642E0,8.167027831E-1,1.623326540E-1
1.731278142E1,-1.246433854E0,6.812474132E-1,1.705790907E-1
1.732192101E1,-1.230399132E0,5.587725043E-1,1.159082651E-1
1.733108617E1,-1.215433359E0,4.474456310E-1,2.443389036E-2
1.734023851E1,-1.211768270E0,3.483356535E-1,-6.887302548E-2
1.734939090E1,-1.194817185E0,2.883199155E-1,-1.420219839E-1
1.735854330E1,-1.161831498E0,2.707580328E-1,-1.918060333E-1
1.736769564E1,-1.155722976E0,2.965663373E-1,-2.150182426E-1
1.737684804E1,-1.182142138E0,3.507790267E-1,-2.299840003E-1
1.738600038E1,-1.206270576E0,4.433223903E-1,-2.478512824E-1
1.739515278E1,-1.227344871E0,5.378510356E-1,-2.657185495E-1
1.740430518E1,-1.245670319E0,6.542174220E-1,-2.672456801E-1
1.741345752E1,-1.272394896E0,8.211314082E-1,-2.583884001E-1
1.742260992E1,-1.314848781E0,1.021183848E0,-2.472404242E-1
1.743176226E1,-1.330730796E0,1.197107911E0,-2.370087355E-1
1.744091465E1,-1.314543247E0,1.322026134E0,-2.339545041E-1
1.745006705E1,-1.292400122E0,1.466644287E0,-2.394521236E-1
1.745921939E1,-1.278808713E0,1.611720443E0,-2.535016239E-1
1.746837179E1,-1.286444306E0,1.714190125E0,-2.719797492E-1
1.747752413E1,-1.299883008E0,1.730835676E0,-3.116848171E-1
1.748666377E1,-1.304311633E0,1.688992620E0,-3.654393852E-1
1.749582892E1,-1.301104665E0,1.617828965E0,-3.917058110E-1
1.750498127E1,-1.276365399E0,1.464811683E0,-3.865135908E-1
1.751413367E1,-1.205965161E0,1.316681266E0,-3.950654566E-1
1.752328601E1,-1.106091619E0,1.284153700E0,-4.547757804E-1
1.753243840E1,-1.062874198E0,1.298355818E0,-5.215108395E-1
1.754159080E1,-1.091889501E0,1.243379593E0,-5.303681493E-1
1.755074314E1,-1.088835239E0,1.135259628E0,-4.746283293E-1
1.755989554E1,-1.001025915E0,1.011410356E0,-4.190412164E-1
1.756904788E1,-8.926005363E-1,8.652651310E-1,-3.936910629E-1
1.757820028E1,-8.344173431E-1,7.085828185E-1,-4.121691883E-1
1.758735262E1,-8.359444737E-1,5.709894896E-1,-4.749337435E-1
1.759650502E1,-8.619054556E-1,4.686725736E-1,-5.409052372E-1
1.760565742E1,-8.930587173E-1,3.872771561E-1,-5.728220344E-1
1.761480976E1,-9.274188280E-1,3.619270027E-1,-5.712949038E-1
1.762396215E1,-9.509364963E-1,3.642176688E-1,-5.702258945E-1
1.763311450E1,-9.491039515E-1,3.713951409E-1,-5.861079693E-1
1.764226689E1,-9.103151560E-1,3.961344361E-1,-6.090146899E-1
1.765141929E1,-8.451071978E-1,4.172086716E-1,-6.213843822E-1
1.766057163E1,-7.719582319E-1,4.233171642E-1,-6.154286265E-1
1.766972403E1,-7.038487792E-1,3.946073353E-1,-5.990884304E-1
1.767887643E1,-6.465818286E-1,3.206948042E-1,-5.796940327E-1
1.768802877E1,-5.926745534E-1,2.087570578E-1,-5.602996349E-1
1.769718116E1,-4.990622103E-1,1.348445266E-1,-5.363239050E-1
1.770632080E1,-3.203893900E-1,1.160609797E-1,-4.856235683E-1
1.771548590E1,-6.291726977E-2,9.758284688E-2,-3.939964771E-1
1.772463830E1,2.342599183E-1,2.382304333E-2,-2.770192325E-1
1.773379064E1,5.320479870E-1,-9.880454093E-2,-1.600419879E-1
1.774294304E1,8.084563613E-1,-2.455606014E-1,-5.787777901E-2
1.775209538E1,1.057223916E0,-3.918585181E-1,2.031067200E-2
1.776124778E1,1.281710267E0,-5.034908652E-1,7.879929990E-2
1.777040018E1,1.511083364E0,-5.402944088E-1,1.238492802E-1
1.777955252E1,1.764432311E0,-4.873034060E-1,1.597365588E-1
1.778869215E1,2.012894392E0,-2.927485406E-1,1.766875684E-1
1.779785726E1,2.189582109E0,1.540862173E-1,1.879882365E-1
1.780700965E1,2.341988325E0,6.697940230E-1,2.344126403E-1
1.781614929E1,2.449497461E0,8.058602214E-1,3.150444627E-1
1.782531439E1,2.506764412E0,4.062134326E-1,4.373666346E-1
1.783446679E1,2.515774488E0,-3.474193811E-1,6.168029904E-1
1.784360642E1,2.569834471E0,-1.063026905E0,8.386932611E-1
1.785277153E1,2.698265076E0,-1.666391373E0,1.059361815E0
1.786192393E1,2.850976944E0,-2.148960590E0,1.202452779E0
1.787106351E1,2.978643894E0,-2.437280655E0,1.221999884E0
1.788022866E1,3.055763483E0,-2.681008577E0,1.122431874E0
1.788938101E1,3.073019743E0,-3.021555901E0,9.451334476E-1
1.789852064E1,3.086763859E0,-3.229091406E0,7.377507687E-1
1.790768580E1,3.103409529E0,-3.123720169E0,5.332696438E-1
1.791683814E1,3.063246250E0,-2.804552555E0,3.318427801E-1
1.792597778E1,2.979560137E0,-2.474542141E0,1.588202864E-1
1.793514288E1,2.902287960E0,-2.109255552E0,6.139015034E-2
1.794429528E1,2.849602461E0,-1.522994876E0,5.940489471E-2
1.795343492E1,2.808522940E0,-8.153283596E-1,1.435490996E-1
1.796260002E1,2.757211924E0,-1.217113137E-1,3.173351586E-1
1.797175242E1,2.684673786E0,4.497362971E-1,5.428904891E-1
1.798090476E1,2.584189415E0,8.487722874E-1,7.482879162E-1
1.799005715E1,2.472862482E0,1.099677801E0,8.840487003E-1
1.799920955E1,2.364437103E0,1.209477544E0,9.468132257E-1
1.800834913E1,2.280292749E0,1.167787194E0,9.620844126E-1
1.801751429E1,2.222567797E0,1.004996419E0,9.458969831E-1
1.802666663E1,2.161483049E0,7.522584200E-1,9.083298445E-1
1.803580627E1,2.068023443E0,4.811949134E-1,8.475505710E-1
1.804497142E1,1.961125135E0,1.933331639E-1,7.705838084E-1
1.805412377E1,1.865832925E0,-1.313321590E-1,6.841489077E-1
1.806326340E1,1.799097896E0,-5.059342384E-1,6.003101468E-1
1.807242851E1,1.768097401E0,-8.600729704E-1,5.123481154E-1
1.808158090E1,1.715411782E0,-1.132358074E0,4.242334068E-1
1.809073330E1,1.618134379E0,-1.318361044E0,3.480302393E-1
1.809988564E1,1.483747959E0,-1.416402102E0,2.890834510E-1
1.810903804E1,1.324927688E0,-1.421746969E0,2.177670449E-1
1.811817768E1,1.153432369E0,-1.367534280E0,1.432436854E-1
1.812734278E1,9.796462655E-1,-1.264912009E0,9.559759498E-2
1.813649518E1,8.089144826E-1,-1.121821046E0,6.978929788E-2
1.814563476E1,6.398624778E-1,-9.492566586E-1,5.741964281E-2
1.815479992E1,4.709632397E-1,-7.452336550E-1,5.436540768E-2
1.816395226E1,2.974826097E-1,-5.213581324E-1,5.833591148E-2
1.817310465E1,1.175880954E-1,-3.089359999E-1,5.757235363E-2
1.818225705E1,-6.642963737E-2,-1.320957243E-1,5.436540768E-2
1.819140939E1,-2.408265322E-1,3.206948051E-3,5.054761097E-2
1.820056179E1,-3.830012381E-1,1.211004704E-1,4.947862774E-2
1.820971419E1,-4.897467792E-1,2.667875290E-1,6.077930331E-2
1.821886653E1,-5.789304972E-1,4.433223903E-1,8.750387281E-2
1.822801892E1,-6.829272509E-1,6.180247068E-1,1.201841980E-1
1.823717127E1,-8.383878469E-1,7.553126216E-1,1.435490996E-1
1.824632367E1,-1.041952729E0,7.791357040E-1,1.420219839E-1
1.825546330E1,-1.274074674E0,6.297835112E-1,1.087308154E-1
1.826462840E1,-1.505891204E0,3.264978528E-1,3.710897267E-2
1.827378080E1,-1.686549306E0,-3.390202299E-2,-8.047912270E-2
1.828292044E1,-1.678150177E0,-1.160609815E-2,-2.179197669E-1
1.829208554E1,-1.341878772E0,6.445965767E-1,-3.936910629E-1
1.830123788E1,-9.170344472E-1,1.280794024E0,-5.932853818E-1
1.831037752E1,-7.711946368E-1,4.999784827E-1,-7.785248160E-1
1.831954268E1,-1.254374862E0,-1.216807723E0,-8.698465228E-1
1.832869502E1,-1.880645990E0,-1.296523333E0,-6.788040400E-1
1.833783465E1,-1.590035439E0,-2.168507688E-2,-2.136438340E-1
1.834699981E1,-1.215891480E0,1.615385532E0,4.784461260E-1
1.835615215E1,-1.778939962E0,2.376348495E0,8.489249945E-1
1.836529179E1,-2.211877823E0,1.076465607E0,7.001836896E-1
1.837445695E1,-1.527881742E0,-2.371614426E-1,4.367557764E-1
1.838360929E1,-8.805363178E-1,-4.801259339E-1,3.223746419E-1
1.839274893E1,-9.796462655E-1,-2.718270421E-1,2.794626355E-1
1.840191403E1,-1.264301062E0,-1.493521482E-1,2.852656841E-1
1.841106642E1,-1.300646544E0,-3.078670204E-1,3.095468581E-1
1.842020606E1,-1.192831993E0,-5.943543911E-1,3.465031087E-1
1.842937117E1,-1.142895222E0,-8.116632700E-1,3.617742956E-1
1.843852356E1,-1.189472318E0,-9.631534219E-1,3.339807391E-1
1.844766320E1,-1.192831993E0,-9.767447710E-1,2.631224692E-1
1.845682830E1,-1.127165914E0,-8.131904006E-1,1.499630064E-1
1.846598070E1,-1.067302823E0,-6.123743653E-1,-3.665083554E-3
1.847512028E1,-1.053864241E0,-3.730749488E-1,-1.661504507E-1
1.848428544E1,-1.067455530E0,-1.065928489E-1,-2.825168669E-1
1.849343778E1,-1.074785709E0,1.925695986E-1,-3.382566571E-1
1.850257742E1,-1.132816195E0,4.732539058E-1,-3.292466700E-1
1.851174257E1,-1.230399132E0,8.079982400E-1,-2.623589039E-1
1.852089492E1,-1.303242683E0,1.059514523E0,-1.653869003E-1
1.853004731E1,-1.312710762E0,1.164733052E0,-6.963659078E-2
1.853919971E1,-1.287055135E0,1.166260123E0,3.817795310E-3
1.854835205E1,-1.266591787E0,1.139993668E0,4.428642616E-2
1.855749169E1,-1.224596024E0,1.055544019E0,4.413371533E-2
1.856665679E1,-1.167023659E0,8.422056437E-1,8.093725890E-3
1.857580918E1,-1.138008475E0,6.546755433E-1,-5.207473040E-2
1.858496158E1,-1.131441832E0,4.892886579E-1,-1.282779276E-1
1.859411393E1,-1.131136417E0,3.490992188E-1,-2.044811249E-1
1.860326632E1,-1.139535546E0,2.958027720E-1,-2.728960216E-1
1.861241866E1,-1.146713018E0,3.016058207E-1,-3.242071867E-1
1.862157106E1,-1.152974248E0,3.881934285E-1,-3.610107303E-1
1.863072346E1,-1.176033735E0,4.996730685E-1,-3.857500553E-1
1.863987580E1,-1.205659747E0,5.958815217E-1,-4.054498672E-1
1.864902820E1,-1.235896707E0,7.296570539E-1,-4.155288339E-1
1.865818059E1,-1.232537031E0,8.483141065E-1,-4.175141156E-1
1.866733294E1,-1.182905674E0,9.507837296E-1,-4.245388508E-1
1.867648533E1,-1.107160687E0,1.043632507E0,-4.454603493E-1
1.868563768E1,-1.056918502E0,1.159388065E0,-4.701996744E-1
1.869479007E1,-1.028514028E0,1.293774486E0,-4.957025647E-1
1.870394247E1,-9.903361201E-1,1.386928678E0,-5.260922313E-1
1.871309481E1,-9.462023973E-1,1.498408318E0,-5.612159371E-1
1.872224721E1,-9.130639434E-1,1.602557778E0,-5.928272605E-1
1.873139960E1,-8.958075047E-1,1.676775694E0,-5.989357233E-1
1.874055195E1,-8.774821162E-1,1.776801944E0,-6.195518374E-1
1.874970434E1,-8.693883419E-1,1.856670260E0,-6.671979427E-1
1.875885668E1,-8.812998533E-1,1.907065153E0,-7.192726731E-1
1.876800908E1,-9.277243018E-1,1.947228312E0,-7.611156702E-1
1.877714872E1,-9.848384857E-1,1.944632292E0,-8.012788892E-1
1.878631382E1,-1.036913276E0,1.990751266E0,-8.247964978E-1
1.879546622E1,-1.094180107E0,2.035953999E0,-7.959339619E-1
1.880460585E1,-1.207950473E0,1.906607032E0,-7.185090780E-1
1.881377096E1,-1.322789788E0,1.606680989E0,-6.164975762E-1
1.882292335E1,-1.311794519E0,1.217265844E0,-5.166240931E-1
1.883207570E1,-1.184585571E0,8.634325862E-1,-4.237752855E-1
1.884122809E1,-1.069440842E0,5.824428797E-1,-3.672719002E-1
1.885038049E1,-1.068830013E0,2.962609231E-1,-3.530697227E-1
1.885953283E1,-1.166260123E0,-4.749337584E-2,-3.584146202E-1
1.886868523E1,-1.225970507E0,-3.463504016E-1,-3.518480062E-1
1.887783762E1,-1.233147860E0,-4.500417113E-1,-3.359659910E-1
1.888698997E1,-1.235438585E0,-3.379512429E-1,-3.261924386E-1
1.889614236E1,-1.230704546E0,-1.033858955E-1,-3.190149665E-1
1.890529471E1,-1.197107911E0,6.902574003E-2,-3.086305857E-1
1.891444710E1,-1.127776742E0,1.052184403E-1,-3.055763543E-1
1.892359950E1,-1.059056401E0,5.360184610E-2,-3.081724346E-1
1.893275184E1,-9.880454540E-1,-1.634016447E-2,-3.222219348E-1
1.894190424E1,-8.948912621E-1,-7.589777559E-2,-3.503209054E-1
1.895105663E1,-7.812736630E-1,-7.589777559E-2,-3.868190348E-1
1.896020898E1,-6.452074051E-1,1.404948719E-2,-4.201101959E-1
1.896934861E1,-4.593571424E-1,1.293469071E-1,-4.188885093E-1
1.897851372E1,-2.116585821E-1,2.299840003E-1,-3.504736125E-1
1.898766611E1,7.574506104E-2,2.925958335E-1,-2.112004459E-1
1.899681851E1,3.506263196E-1,2.732014358E-1,-3.512371704E-2
1.900597085E1,5.906893015E-1,1.078145429E-1,1.088835225E-1
1.901512325E1,7.957812548E-1,-1.785201132E-1,1.696628332E-1
1.902426288E1,9.959864616E-1,-4.240806997E-1,1.469087601E-1
1.903342799E1,1.223832488E0,-5.095993280E-1,8.689302206E-2
1.904258038E1,1.460077643E0,-4.497362971E-1,3.237490356E-2
1.905172002E1,1.669598222E0,-2.305948436E-1,4.291202128E-2
1.906088512E1,1.808107853E0,2.672456764E-2,1.255291104E-1
1.907003752E1,1.932873487E0,2.328855246E-1,2.519744933E-1
1.907917710E1,2.088639498E0,3.069507517E-2,4.156815708E-1
1.908834226E1,2.281361818E0,-6.780404449E-1,6.276455522E-1
1.909749460E1,2.448581219E0,-1.583163381E0,8.713735938E-1
1.910663424E1,2.581440449E0,-2.186222315E0,1.043632507E0
1.911579939E1,2.736748457E0,-2.340766668E0,1.058292866E0
1.912495174E1,2.918475389E0,-2.278765678E0,9.385668039E-1
1.913409137E1,3.060955524E0,-2.199050188E0,7.795938253E-1
1.914325653E1,3.107379913E0,-2.172783613E0,6.699467301E-1
1.915240887E1,3.069507360E0,-2.201493502E0,6.433748603E-1
1.916154851E1,3.002925158E0,-2.262425423E0,6.380299330E-1
1.917071366E1,2.943214893E0,-2.310377121E0,5.748072863E-1
1.917986601E1,2.877090693E0,-2.309613466E0,4.705050886E-1
1.918900564E1,2.793862581E0,-2.264410734E0,3.588727713E-1
1.919817075E1,2.735984802E0,-2.159192324E0,2.757975459E-1
1.920732314E1,2.749881744E0,-1.918213129E0,2.690782249E-1
1.921646278E1,2.807148695E0,-1.454427361E0,3.376458287E-1
1.922562788E1,2.903662443E0,-7.241594195E-1,4.659237564E-1
1.923478028E1,3.013309479E0,1.041494608E-1,6.517740488E-1
1.924391992E1,3.050876617E0,7.835643291E-1,8.499939442E-1
1.925308502E1,2.960623980E0,1.170230627E0,9.914051294E-1
1.926223742E1,2.781492949E0,1.251473308E0,1.043174386E0
1.927137705E1,2.589839697E0,1.112505555E0,1.029735804E0
1.928054215E1,2.447817564E0,8.892409205E-1,9.982771277E-1
1.928969455E1,2.348707676E0,6.158867478E-1,9.666658044E-1
1.929883418E1,2.254026413E0,3.191677034E-1,9.271134138E-1
1.930799929E1,2.145295620E0,3.298575059E-2,8.472451568E-1
1.931715169E1,2.039008141E0,-2.351761907E-1,7.366818190E-1
1.932630403E1,1.942036152E0,-5.117372870E-1,6.366555691E-1
1.933545642E1,1.857128382E0,-7.652388811E-1,5.508314967E-1
1.934460877E1,1.757407546E0,-9.633061290E-1,4.714213610E-1
1.935376116E1,1.620577812E0,-1.134343386E0,3.979669809E-1
1.936291356E1,1.448929667E0,-1.273463845E0,3.352024257E-1
1.937206590E1,1.261246920E0,-1.344474792E0,2.832804024E-1
1.938120554E1,1.060583591E0,-1.284153700E0,2.108950168E-1
1.939037070E1,8.582404256E-1,-1.145644069E0,1.244601309E-1
1.939952304E1,6.587987542E-1,-1.016144395E0,6.551336497E-2
1.940866268E1,4.504998624E-1,-9.315420985E-1,2.305948362E-2
1.941782778E1,2.247917950E-1,-8.935168386E-1,-2.061609551E-2
1.942698018E1,-8.399149403E-3,-8.645015955E-1,-5.283828825E-2
1.943613257E1,-2.269297540E-1,-8.191461563E-1,-7.635590434E-2
1.944528492E1,-4.153761268E-1,-6.839962006E-1,-8.017370105E-2
1.945443731E1,-5.526640415E-1,-4.358395338E-1,-6.429167092E-2
1.946357695E1,-6.702521443E-1,-4.428642616E-2,-3.848337755E-2
1.947274205E1,-8.521319032E-1,4.448495209E-1,-2.183778957E-2
1.948189445E1,-1.089751482E0,8.373188972E-1,-4.275930673E-2
1.949103408E1,-1.325691223E0,9.203941226E-1,-1.171299592E-1
1.950019918E1,-1.420678020E0,7.800519466E-1,-2.422009408E-1
1.950935158E1,-1.195275426E0,8.845068216E-1,-4.092676640E-1
1.951849122E1,-7.603521347E-1,1.688992620E0,-5.992411375E-1
1.952765632E1,-6.238277555E-1,2.131093264E0,-7.108734846E-1
1.953680872E1,-1.170077920E0,9.791881442E-1,-7.389724851E-1
1.954596106E1,-2.232494116E0,-2.637332976E-1,-6.911736727E-1
1.955511346E1,-2.937106371E0,1.777565479E-1,-4.253024161E-1
1.956426585E1,-2.483857632E0,1.462826490E0,6.474980712E-2
1.957340549E1,-1.679829955E0,2.455453157E0,5.601469278E-1
1.958257059E1,-1.527729034E0,1.974869132E0,7.392778993E-1
1.959172299E1,-1.609124422E0,7.046123147E-1,6.015318632E-1
1.960086257E1,-1.428771734E0,3.426853120E-1,4.333961308E-1
1.961002773E1,-1.171452284E0,-1.131594554E-1,2.712161839E-1
1.961918012E1,-1.147476554E0,-9.153546095E-1,7.773031294E-2
1.962831971E1,-1.163816690E0,-1.394106150E0,-7.482878864E-3
1.963748486E1,-1.108229637E0,-1.368450522E0,4.123219103E-2
1.964663721E1,-1.112963676E0,-1.031873703E0,1.496575773E-1
1.965577684E1,-1.188861489E0,-6.339067221E-1,2.446443290E-1
1.966494200E1,-1.259414315E0,-4.634803534E-1,2.342599183E-1
1.967409434E1,-1.255749226E0,-3.965925872E-1,8.826743066E-2
1.968324674E1,-1.257887244E0,-1.751604527E-1,-1.348445266E-1
1.969239913E1,-1.299424887E0,1.505738497E-1,-3.374931216E-1
1.970155148E1,-1.265522838E0,3.544441164E-1,-4.753918648E-1
1.971069111E1,-1.198329568E0,4.369085133E-1,-5.329642296E-1
1.971985627E1,-1.192526579E0,4.816530645E-1,-5.091412067E-1
1.972900861E1,-1.236965656E0,5.958815217E-1,-4.295783341E-1
1.973814825E1,-1.268882513E0,7.227849960E-1,-3.107685447E-1
1.974731340E1,-1.282321095E0,8.594620824E-1,-1.772984117E-1
1.975646575E1,-1.272394896E0,9.249754548E-1,-6.001574174E-2
1.976561814E1,-1.230551839E0,8.422056437E-1,1.863084175E-2
1.977477049E1,-1.168856263E0,7.531746626E-1,4.840964451E-2
1.978392288E1,-1.147781968E0,7.308787704E-1,3.695625812E-2
1.979307528E1,-1.190999389E0,6.896465421E-1,-3.054236295E-3
1.980222762E1,-1.232078910E0,6.236750484E-1,-7.406523079E-2
1.981138002E1,-1.256512761E0,5.763344169E-1,-1.591257155E-1
1.982053242E1,-1.261246920E0,5.326588154E-1,-2.385358512E-1
1.982968476E1,-1.273616552E0,5.577035546E-1,-2.929012477E-1
1.983883715E1,-1.279419541E0,5.207473040E-1,-3.258870244E-1
1.984798955E1,-1.295301557E0,5.099047422E-1,-3.290939629E-1
1.985714189E1,-1.313168883E0,5.667135715E-1,-3.042019308E-1
1.986629429E1,-1.303548098E0,6.462764144E-1,-2.681619525E-1
1.987544668E1,-1.292400122E0,6.983511448E-1,-2.309002578E-1
1.988459903E1,-1.320651770E0,7.369872332E-1,-2.079934925E-1
1.989375142E1,-1.412889719E0,7.162184119E-1,-2.122694254E-1
1.990290377E1,-1.637681484E0,6.948387623E-1,-2.186833173E-1
1.991205617E1,-1.902331114E0,6.450546980E-1,-1.869192570E-1
1.992120856E1,-1.888281584E0,5.622848868E-1,-1.232384369E-1
1.993034820E1,-1.515359282E0,6.792621613E-1,-7.009471953E-2
1.993951330E1,-1.120599270E0,8.756495714E-1,-9.910997003E-2
1.994866570E1,-9.674293399E-1,9.585720897E-1,-2.116585821E-1
1.995781804E1,-1.019351363E0,8.971819282E-1,-3.426853120E-1
1.996697044E1,-1.068524599E0,8.545753360E-1,-4.382829070E-1
1.997612283E1,-1.032789946E0,8.092198968E-1,-5.033381581E-1
1.998527518E1,-9.691091776E-1,7.356128097E-1,-5.480827093E-1
1.999442757E1,-9.582666159E-1,6.975875497E-1,-5.662553906E-1
2.000357997E1,-9.796462655E-1,6.853706241E-1,-5.688515306E-1
2.001273231E1,-9.639169574E-1,7.240067124E-1,-5.680879354E-1
2.002188471E1,-9.373451471E-1,8.554915786E-1,-5.638120174E-1
2.003103710E1,-9.324583411E-1,9.802571535E-1,-5.540384650E-1
2.004018945E1,-9.258917570E-1,1.008661509E0,-5.503733754E-1
2.004934184E1,-8.929060102E-1,9.779664874E-1,-5.531222224E-1
2.005849418E1,-8.605310917E-1,9.503256083E-1,-5.529694557E-1
2.006764658E1,-8.719844818E-1,9.116895199E-1,-5.438067913E-1
2.007679898E1,-8.967237473E-1,8.357917666E-1,-5.311316848E-1
2.008595132E1,-9.081771374E-1,7.321004272E-1,-5.176930428E-1
2.009510372E1,-9.051229358E-1,5.948125124E-1,-5.095993280E-1
2.010425611E1,-8.831323981E-1,4.718795121E-1,-5.076140761E-1
2.011340846E1,-8.614473343E-1,3.352024257E-1,-5.018110275E-1
2.012256085E1,-8.409839869E-1,1.664558798E-1,-4.862344265E-1
2.013171325E1,-7.876875401E-1,5.329642445E-2,-4.643966258E-1
2.014086559E1,-7.003363967E-1,5.848862603E-2,-4.381301999E-1
2.015001799E1,-5.981721878E-1,1.299577504E-1,-4.002576768E-1
2.015917038E1,-4.859289825E-1,1.759240031E-1,-3.561239541E-1
2.016832273E1,-3.191677034E-1,1.847812980E-1,-3.147390485E-1
2.017747512E1,-5.818320066E-2,2.034121305E-1,-2.774773538E-1
2.018662752E1,2.669402659E-1,2.318165302E-1,-2.422009408E-1
2.019577986E1,6.038225293E-1,2.325800955E-1,-1.976090819E-1
2.020493226E1,9.206995368E-1,1.392731816E-1,-1.398840249E-1
2.021408465E1,1.191763043E0,-8.536590636E-2,-6.688777357E-2
2.022323700E1,1.406933904E0,-4.184303582E-1,1.420219894E-2
2.023238939E1,1.581636310E0,-7.554653287E-1,9.269607067E-2
2.024154179E1,1.734500766E0,-9.976662993E-1,1.568350345E-1
2.025069413E1,1.856975675E0,-1.138313890E0,2.053973973E-1
2.025983377E1,1.902331114E0,-1.120141149E0,2.368560284E-1
2.026899887E1,1.914089918E0,-8.596147895E-1,2.586938143E-1
2.027815127E1,2.012130976E0,-4.694361091E-1,2.964136302E-1
2.028730366E1,2.162704706E0,-2.263189107E-1,3.419217467E-1
2.029645606E1,2.293731451E0,-3.093941510E-1,4.289674759E-1
2.030560840E1,2.356190681E0,-6.184828281E-1,5.743491650E-1
2.031474804E1,2.463699818E0,-1.057071209E0,7.311841846E-1
2.032391314E1,2.651077032E0,-1.474432588E0,8.475505710E-1
2.033306554E1,2.860292196E0,-1.727628708E0,9.048175216E-1
2.034221794E1,3.028886080E0,-1.789324284E0,9.226847887E-1
2.035137028E1,3.104936600E0,-1.725490808E0,8.900044560E-1
2.036052268E1,3.076074123E0,-1.628213406E0,8.098307252E-1
2.036966231E1,2.996511221E0,-1.573848009E0,7.255338430E-1
2.037882742E1,2.922446012E0,-1.614621997E0,6.583406329E-1
2.038797981E1,2.861666679E0,-1.739082098E0,5.883986354E-1
2.039711945E1,2.773551941E0,-1.847354770E0,4.993676245E-1
2.040628455E1,2.643594265E0,-1.805206418E0,4.056025743E-1
2.041543695E1,2.508749723E0,-1.594158649E0,3.422271907E-1
2.042457658E1,2.425521851E0,-1.246586561E0,3.432961702E-1
2.043374168E1,2.405210972E0,-8.457180262E-1,4.075878263E-1
2.044289408E1,2.430103064E0,-4.443913698E-1,5.222744346E-1
2.045204648E1,2.466295719E0,-7.391251624E-2,6.632274389E-1
2.046119882E1,2.489813328E0,2.063136548E-1,8.018897176E-1
2.047035122E1,2.496990919E0,3.839175105E-1,9.055810571E-1
2.047949085E1,2.491035223E0,5.335750580E-1,9.738432169E-1
2.048865596E1,2.476069450E0,6.181774139E-1,1.006065488E0
2.049780835E1,2.427659750E0,5.813738704E-1,1.013090134E0
2.050694799E1,2.334505558E0,5.274665952E-1,9.972081780E-1
2.051611309E1,2.193857908E0,4.269822240E-1,9.620844126E-1
2.052526549E1,2.033510447E0,2.518217862E-1,9.086353183E-1
2.053440512E1,1.898207903E0,3.374931216E-2,8.435800672E-1
2.054357023E1,1.803679228E0,-2.721324563E-1,7.924215794E-1
2.055272262E1,1.734806180E0,-6.079457402E-1,7.366818190E-1
2.056187502E1,1.663947940E0,-8.638907075E-1,6.752916574E-1
2.057102736E1,1.593547821E0,-1.083643079E0,6.004628539E-1
2.058017976E1,1.520551562E0,-1.287665963E0,5.085303187E-1
2.058931939E1,1.424648523E0,-1.406475782E0,4.046863019E-1
2.059848450E1,1.298203111E0,-1.413042426E0,2.925958335E-1
2.060763689E1,1.116170645E0,-1.355928183E0,1.918060333E-1
2.061677653E1,8.768712282E-1,-1.243837714E0,1.272089481E-1
2.062594163E1,6.210789680E-1,-1.093111157E0,9.590301663E-2
2.063509403E1,3.959817290E-1,-9.374978542E-1,8.994726092E-2
2.064424637E1,2.058555335E-1,-7.715001106E-1,8.658760041E-2
2.065339877E1,1.496575773E-2,-5.693096519E-1,8.689302206E-2
2.066255116E1,-1.806580722E-1,-3.364241421E-1,8.658760041E-2
2.067170351E1,-3.576510847E-1,-1.149920002E-1,8.093725890E-2
2.068085590E1,-4.938700199E-1,1.035386100E-1,7.192726433E-2
2.069000830E1,-6.131379604E-1,3.472666740E-1,6.413896382E-2
2.069916064E1,-7.342383862E-1,5.207473040E-1,7.177454978E-2
2.070831304E1,-8.710681796E-1,5.725166202E-1,9.513945878E-2
2.071746544E1,-1.003163934E0,5.204418898E-1,1.131594554E-1
2.072661778E1,-1.090362310E0,4.022429287E-1,1.108687744E-1
2.073577018E1,-1.134648800E0,2.707580328E-1,1.093416587E-1
2.074492257E1,-1.172215939E0,1.261399537E-1,1.134648770E-1
2.075407492E1,-1.225970507E0,-1.740914769E-2,1.211004704E-1
2.076322731E1,-1.296217918E0,-1.632489264E-1,1.372879148E-1
2.077237971E1,-1.366618037E0,-2.922904193E-1,1.649287641E-1
2.078153205E1,-1.441446781E0,-3.651339412E-1,2.072299272E-1
2.079068445E1,-1.547581553E0,-3.788780272E-1,2.510582209E-1
2.079983684E1,-1.693268657E0,-4.123218954E-1,2.739650011E-1
2.080898918E1,-1.831472754E0,-4.541649222E-1,2.490729690E-1
2.081814158E1,-1.818186879E0,-5.340332389E-1,1.443126649E-1
2.082729398E1,-1.403727055E0,-6.076403260E-1,-4.627167806E-2
2.083643361E1,-5.315898061E-1,-5.732801557E-1,-2.466295809E-1
2.084559872E1,1.014006436E-1,-5.311316848E-1,-3.478775024E-1
2.085475111E1,9.345962852E-2,-6.794148684E-1,-3.483356535E-1
2.086389075E1,-2.031067163E-1,-4.837910235E-1,-2.980934680E-1
2.087305585E1,-8.895463347E-1,4.792096615E-1,-3.090887070E-1
2.088220825E1,-1.690672517E0,7.026270628E-1,-3.669664860E-1
2.089134788E1,-1.736791492E0,1.817270555E-2,-2.786990702E-1
2.090051299E1,-1.293316364E0,-8.353336155E-2,2.183778957E-2
2.090966538E1,-1.111742020E0,9.008470178E-1,3.417690396E-1
2.091880502E1,-1.347376347E0,1.781383276E0,4.683671296E-1
2.092797012E1,-1.655243397E0,2.304421186E0,4.492781460E-1
2.093712252E1,-1.669445515E0,2.538681269E0,4.123218954E-1
2.094626215E1,-1.463437319E0,2.116433144E0,3.726168275E-1
2.095542726E1,-1.243074179E0,1.287207842E0,2.721324563E-1
2.096457965E1,-1.199856758E0,4.495835900E-1,1.125486046E-1
2.097371929E1,-1.291636586E0,-1.646233350E-1,-7.207997888E-2
2.098288439E1,-1.295148849E0,-5.990884304E-1,-2.134911120E-1
2.099203679E1,-1.204590797E0,-8.432746530E-1,-2.890834510E-1
2.100117642E1,-1.138619304E0,-9.704836011E-1,-3.153499067E-1
2.101034153E1,-1.130220175E0,-9.475768209E-1,-3.145863414E-1
2.101949393E1,-1.119530320E0,-6.998782754E-1,-3.086305857E-1
2.102863356E1,-1.134496093E0,-2.551814318E-1,-3.219164908E-1
2.103779866E1,-1.177408099E0,2.345653474E-1,-3.732276857E-1
2.104695106E1,-1.220320106E0,7.343910933E-1,-4.410317242E-1
2.105610340E1,-1.280488610E0,1.131899953E0,-4.711159468E-1
2.106525580E1,-1.349819779E0,1.431825995E0,-4.559974670E-1
2.107440820E1,-1.381125689E0,1.668834686E0,-3.964398801E-1
2.108354783E1,-1.325691223E0,1.778939962E0,-3.161134422E-1
2.109271294E1,-1.245670319E0,1.763057947E0,-2.368560284E-1
2.110186533E1,-1.207797766E0,1.631420374E0,-1.779092699E-1
2.111100497E1,-1.215127945E0,1.405712247E0,-1.447708011E-1
2.112017007E1,-1.220320106E0,1.144116879E0,-1.372879148E-1
2.112932247E1,-1.179087877E0,8.675557971E-1,-1.404948682E-1
2.113847481E1,-1.123653531E0,6.079457402E-1,-1.411057115E-1
2.114762721E1,-1.098150611E0,3.645231128E-1,-1.408002973E-1
2.115677960E1,-1.121362805E0,1.385096163E-1,-1.420219839E-1
2.116593195E1,-1.172368646E0,4.917320609E-2,-1.545443535E-1
2.117508434E1,-1.202758312E0,7.849387079E-2,-1.864611208E-1
2.118423674E1,-1.187181592E0,1.638597846E-1,-2.231119573E-1
2.119337637E1,-1.156486630E0,2.567085624E-1,-2.596100867E-1
2.120254148E1,-1.144880533E0,3.512371778E-1,-2.759502530E-1
2.121169387E1,-1.146560311E0,4.746283293E-1,-2.883199155E-1
2.122084627E1,-1.174964666E0,6.163448691E-1,-2.959555089E-1
2.122999861E1,-1.214211583E0,7.307260633E-1,-2.903051674E-1
2.123915101E1,-1.214669824E0,8.489249945E-1,-2.689255178E-1
2.124830340E1,-1.158777237E0,9.196305275E-1,-2.411319613E-1
2.125745575E1,-1.074785709E0,8.927532434E-1,-2.136438340E-1
2.126660814E1,-1.009883285E0,7.911999226E-1,-1.893626451E-1
2.127576054E1,-9.819369912E-1,6.213843822E-1,-1.731752008E-1
2.128491288E1,-9.909469485E-1,4.434750974E-1,-1.571404636E-1
2.129406528E1,-1.007592559E0,3.634541333E-1,-1.418692768E-1
2.130321768E1,-9.993461370E-1,3.339807391E-1,-1.272089481E-1
2.131237002E1,-9.689564705E-1,3.074088693E-1,-1.197260618E-1
2.132152242E1,-9.211576581E-1,2.738122940E-1,-1.156028435E-1
2.133067481E1,-8.771766424E-1,1.782146841E-1,-1.030804738E-1
2.133982715E1,-8.368607163E-1,7.162184268E-2,-9.177979827E-2
2.134897955E1,-7.989882231E-1,2.764083818E-2,-8.964183182E-2
2.135813195E1,-7.818844914E-1,-1.985253533E-3,-1.088835225E-1
2.136728429E1,-7.805100679E-1,-3.206948051E-3,-1.394258887E-1
2.137643668E1,-7.776085734E-1,2.916795574E-2,-1.724116355E-1
2.138558908E1,-7.644753456E-1,9.177979827E-2,-2.078407854E-1
2.139474143E1,-7.301151752E-1,2.002051920E-1,-2.351761907E-1
2.140389382E1,-6.659762263E-1,2.556395829E-1,-2.438807636E-1
2.141304622E1,-5.877877474E-1,2.070772201E-1,-2.347180545E-1
2.142219856E1,-5.564818382E-1,5.650337040E-2,-2.136438340E-1
2.143135096E1,-5.980194807E-1,-5.864133686E-2,-1.974563748E-1
2.144050335E1,-6.462764144E-1,-3.451287001E-2,-1.849340051E-1
2.144965575E1,-6.355865598E-1,-3.665083554E-3,-1.690519750E-1
2.145880809E1,-5.867187977E-1,-2.825168520E-2,-1.569877416E-1
2.146796049E1,-5.375455618E-1,-8.292251825E-2,-1.462979168E-1
2.147711288E1,-4.958552718E-1,-1.479777545E-1,-1.288887709E-1
2.148626523E1,-4.747810364E-1,-1.701209545E-1,-1.072036922E-1
2.149541762E1,-4.787515402E-1,-1.388150454E-1,-9.452861547E-2
2.150457002E1,-5.005893111E-1,-4.062134400E-2,-1.007898003E-1
2.151372236E1,-5.115845799E-1,1.111742035E-1,-1.314848661E-1
2.152287476E1,-5.012001991E-1,2.809897363E-1,-1.772984117E-1
2.153202715E1,-4.869979918E-1,4.356867969E-1,-2.053973973E-1
2.154117950E1,-4.804313779E-1,5.268557668E-1,-2.012741715E-1
2.155033189E1,-5.015056133E-1,5.299099684E-1,-1.745496094E-1
2.155948429E1,-5.491516590E-1,5.202891231E-1,-1.363716573E-1
2.156863663E1,-5.900784731E-1,5.204418898E-1,-9.086353332E-2
2.157778903E1,-6.174138784E-1,5.386145711E-1,-4.596625641E-2
2.158694143E1,-6.355865598E-1,5.459447503E-1,-1.603474095E-2
2.159609377E1,-6.357392669E-1,4.898995161E-1,2.290677279E-3
2.160524616E1,-6.326850653E-1,3.489464819E-1,9.620844387E-3
2.161439856E1,-6.355865598E-1,1.838650256E-1,7.941014133E-3
2.162355090E1,-6.655181050E-1,1.017060652E-1,-1.236965694E-2
2.163270330E1,-7.235485911E-1,1.310267299E-1,-4.627167806E-2
2.164185570E1,-7.730271816E-1,2.331909388E-1,-8.765657991E-2
2.165100809E1,-7.855495811E-1,3.451287150E-1,-1.220167428E-1
2.166016044E1,-7.663078904E-1,4.132381678E-1,-1.433963925E-1
2.166931283E1,-7.305732965E-1,4.155288339E-1,-1.601946950E-1
2.167846523E1,-6.820109487E-1,3.794888556E-1,-1.824906170E-1
2.168761757E1,-6.316160560E-1,3.355078697E-1,-2.082989216E-1
2.169676997E1,-5.780141950E-1,2.727433145E-1,-2.322746664E-1
2.170592236E1,-5.267030597E-1,2.064663768E-1,-2.452551723E-1
2.171507471E1,-4.795151055E-1,1.493521482E-1,-2.333436459E-1
2.172422710E1,-4.358395338E-1,7.971556485E-2,-1.927223057E-1
2.173337950E1,-3.982724249E-1,-2.428117767E-2,-1.264453828E-1
2.174253184E1,-3.593308926E-1,-1.473668963E-1,-4.978405312E-2
2.175168424E1,-3.225273490E-1,-2.247917950E-1,2.137965336E-2
2.176083663E1,-2.805316150E-1,-1.919587553E-1,7.116370648E-2
2.176998903E1,-2.324273884E-1,-5.451811850E-2,8.551861346E-2
2.177914137E1,-1.901262105E-1,1.105633527E-1,6.917845458E-2
2.178829377E1,-1.583621502E-1,2.341072112E-1,3.512371704E-2
2.179744616E1,-1.446180940E-1,3.008422852E-1,-1.527118147E-4
2.180659851E1,-1.479777545E-1,3.423798978E-1,-2.535016090E-2
2.181575090E1,-1.614163816E-1,3.933856487E-1,-3.649812192E-2
2.182490330E1,-1.791309565E-1,4.614951015E-1,-3.665083647E-2
2.183405564E1,-1.988307834E-1,5.205945969E-1,-3.924693540E-2
2.184320804E1,-2.243336588E-1,5.451811552E-1,-4.367557913E-2
2.185236044E1,-2.461714447E-1,5.108210444E-1,-5.360184610E-2
2.186151278E1,-2.619007528E-1,4.178195298E-1,-6.887302548E-2
2.187066518E1,-2.614426315E-1,3.075616062E-1,-8.597674966E-2
2.187981757E1,-2.226538211E-1,1.798945218E-1,-1.014006436E-1
2.188896992E1,-1.542389393E-1,4.001049697E-2,-1.075091213E-1
2.189812231E1,-8.139539510E-2,-1.032331884E-1,-1.075091213E-1
2.190727471E1,-3.298575059E-2,-2.188360244E-1,-9.254335612E-2
2.191642710E1,-1.710372418E-2,-2.884726226E-1,-6.551336497E-2
2.192557945E1,-3.374931216E-2,-3.058817685E-1,-3.145863488E-2
2.193473184E1,-7.406523079E-2,-2.829749882E-1,-6.108472589E-4
2.194388424E1,-1.197260618E-1,-2.304421216E-1,2.290677279E-2
2.195303658E1,-1.546970755E-1,-1.786728203E-1,3.298575059E-2
2.196218898E1,-1.728697717E-1,-1.467560530E-1,3.222219273E-2
2.197134137E1,-1.718007922E-1,-1.305686086E-1,2.550287358E-2
2.198049372E1,-1.533226669E-1,-1.143811494E-1,1.527118124E-2
2.198964611E1,-1.253764033E-1,-7.696675509E-2,3.817795310E-3
2.199879851E1,-9.681928903E-2,-1.847812906E-2,-1.007897966E-2
2.200795085E1,-7.406523079E-2,5.680879578E-2,-2.214321308E-2
2.201710325E1,-6.062658876E-2,1.429382563E-1,-3.252761811E-2
2.202625564E1,-5.573981255E-2,2.243336588E-1,-3.802524135E-2
2.203540804E1,-5.619794875E-2,2.846548259E-1,-4.046862945E-2
2.204456038E1,-6.398624927E-2,3.268032968E-1,-4.001049697E-2
2.205371278E1,-7.650861889E-2,3.556658030E-1,-3.283303976E-2
2.206286518E1,-8.597674966E-2,3.701734245E-1,-2.305948362E-2
2.207201752E1,-9.330692142E-2,3.677300513E-1,-2.183778957E-2
2.208116992E1,-9.865183383E-2,3.399364948E-1,-2.672456764E-2
2.209032231E1,-1.024696305E-1,2.941229641E-1,-3.588727489E-2
2.209947465E1,-9.834641218E-2,2.338017821E-1,-4.321744293E-2
2.210862705E1,-9.208522737E-2,1.634016484E-1,-4.734066129E-2
2.211777945E1,-8.719844371E-2,8.918370306E-2,-4.795150831E-2
2.212693179E1,-8.887827396E-2,2.168507688E-2,-5.390727147E-2
2.213608418E1,-9.758284688E-2,-3.436015919E-2,-6.016845629E-2
2.214523658E1,-1.094943732E-1,-8.551861346E-2,-6.261184067E-2
2.215438893E1,-1.258345395E-1,-1.229330078E-1,-6.459710002E-2
2.216354132E1,-1.360662282E-1,-1.556133330E-1,-6.704048812E-2
2.217269372E1,-1.406475753E-1,-1.881409585E-1,-7.192726433E-2
2.218184611E1,-1.354553849E-1,-2.147128135E-1,-7.192726433E-2
2.219099846E1,-1.236965731E-1,-2.302894145E-1,-6.261184067E-2
2.220015085E1,-1.088835225E-1,-2.391466945E-1,-4.902049154E-2
2.220930325E1,-8.979454637E-2,-2.348707765E-1,-4.169032723E-2
2.221845559E1,-6.108472496E-2,-2.125748396E-1,-3.894151375E-2
2.222760799E1,-2.932066843E-2,-1.853921413E-1,-3.817795217E-2
2.223676038E1,-1.832541777E-3,-1.522536725E-1,-3.680354729E-2
2.224591273E1,1.634016447E-2,-1.099525094E-1,-3.848337755E-2
2.225506512E1,1.572931744E-2,-5.222744122E-2,-4.459185153E-2
2.226421752E1,3.512371797E-3,1.588202827E-2,-4.413371533E-2
2.227336992E1,-1.068982668E-2,7.849387079E-2,-3.878879920E-2
2.228252226E1,-1.832541823E-2,1.201841980E-1,-3.038965166E-2
2.229167465E1,-1.252236869E-2,1.412584335E-1,-2.855710872E-2
2.230082705E1,4.581354442E-4,1.449235082E-1,-2.718270384E-2
2.230997939E1,1.542389300E-2,1.304158866E-1,-2.519745007E-2
2.231913179E1,2.428117767E-2,1.087308154E-1,-2.214321308E-2
2.232828418E1,2.764083818E-2,7.681404054E-2,-2.137965336E-2
2.233743653E1,2.596100792E-2,4.184303805E-2,-2.137965336E-2
2.234658893E1,1.817270555E-2,1.664558798E-2,-2.092151903E-2
2.235574132E1,7.788302377E-3,3.359660041E-3,-1.786728203E-2
2.236489372E1,-7.635590737E-4,-9.926267900E-3,-1.175880991E-2
2.237404606E1,-5.497625098E-3,-3.100049868E-2,-9.315420873E-3
2.238319846E1,-5.192201585E-3,-6.230641901E-2,-1.114796288E-2
2.239235085E1,-3.665083554E-3,-8.887827396E-2,-1.481304597E-2
2.240150320E1,1.527118147E-3,-1.117850468E-1,-1.908897609E-2
2.241065559E1,9.620844387E-3,-1.238492802E-1,-2.565558441E-2
2.241980799E1,1.145338640E-2,-1.256818175E-1,-2.932066843E-2
2.242896033E1,1.206423342E-2,-1.172826737E-1,-3.054236248E-2
2.243811273E1,1.313321572E-2,-1.027750522E-1,-2.626643144E-2
2.244726512E1,1.542389300E-2,-8.399149776E-2,-2.137965336E-2
2.245641747E1,2.015795931E-2,-6.658235192E-2,-1.710372418E-2
2.246556986E1,2.367033064E-2,-5.864133686E-2,-1.343864016E-2
2.247472226E1,2.672456764E-2,-5.268557742E-2,-1.282779220E-2
2.248387465E1,3.283303976E-2,-4.902049154E-2,-9.773556143E-3
2.249302700E1,3.665083647E-2,-5.008947477E-2,-6.566607859E-3
2.250217939E1,3.787253052E-2,-4.902049154E-2,-3.512371797E-3
2.251133179E1,3.649812192E-2,-4.840964451E-2,7.635590737E-4
2.252048413E1,3.710897267E-2,-4.230117425E-2,4.428642802E-3
2.252963653E1,4.321744293E-2,-3.863608837E-2,8.704573847E-3
2.253878893E1,4.749337584E-2,-3.558185324E-2,7.482878864E-3
2.254794132E1,4.932591692E-2,-3.206948191E-2,5.650337320E-3
2.255709366E1,4.932591692E-2,-3.145863488E-2,2.596100792E-3
2.256624606E1,4.871506989E-2,-2.962609194E-2,-1.068982761E-3
2.257539846E1,4.428642616E-2,-2.061609551E-2,-4.123218823E-3
2.258455080E1,3.680354729E-2,-3.817795310E-3,-4.886778072E-3
2.259370320E1,2.504473738E-2,1.298050396E-2,-4.275931045E-3
2.260285559E1,1.557660475E-2,2.626643144E-2,-5.650337320E-3
2.261200794E1,1.068982668E-2,2.809897438E-2,-8.093725890E-3
2.262116033E1,1.435491070E-2,2.443389036E-2,-9.315420873E-3
2.263031273E1,2.305948362E-2,2.092151903E-2,-5.039489828E-3
2.263946512E1,3.222219273E-2,2.153236605E-2,-0.000000000E0
2.264861747E1,3.222219273E-2,2.870982140E-2,-6.108472589E-4
2.265776986E1,2.840439789E-2,4.138490185E-2,-5.497625098E-3
2.266692226E1,2.336490713E-2,4.917320609E-2,-1.114796288E-2
2.267607460E1,1.664558798E-2,5.879404768E-2,-1.298050396E-2
2.268522700E1,1.038440317E-2,7.024743408E-2,-1.175880991E-2
2.269437939E1,3.359660041E-3,7.803573459E-2,-7.635590620E-3
2.270353179E1,-1.527118147E-3,7.803573459E-2,-4.581354558E-3
2.271268413E1,-7.635590737E-4,6.245913357E-2,-2.137965523E-3
2.272183653E1,1.985253533E-3,3.833066672E-2,-9.162708884E-4
2.273098893E1,5.344913341E-3,7.024743594E-3,-1.985253533E-3
2.274014132E1,9.773556143E-3,-2.015795931E-2,-2.596100792E-3
2.274929366E1,1.664558798E-2,-3.390202299E-2,-1.374406274E-3
2.275844606E1,2.412846684E-2,-3.573456407E-2,1.221694518E-3
2.276759846E1,3.023693897E-2,-3.329117596E-2,4.275931045E-3
2.277675080E1,3.268032894E-2,-2.901524492E-2,4.886778072E-3
2.278590320E1,3.329117596E-2,-2.489202656E-2,4.275931045E-3
2.279505559E1,2.519745007E-2,-1.099525020E-2,4.886778072E-3
2.280420799E1,1.206423342E-2,2.290677279E-3,5.955760833E-3
2.281336033E1,1.527118147E-3,1.313321572E-2,4.734066315E-3
2.282251273E1,-1.679830020E-3,1.542389300E-2,-1.985253533E-3
2.283166512E1,2.748812549E-3,1.725643501E-2,-1.114796288E-2
2.284081747E1,8.857285604E-3,1.725643501E-2,-1.298050396E-2
2.284996986E1,1.313321572E-2,2.092151903E-2,-1.175880991E-2
2.285912226E1,9.468132630E-3,2.504473738E-2,-6.872031838E-3
2.286827465E1,2.596100792E-3,2.932066843E-2,-1.374406274E-3
2.287742700E1,-6.719320081E-3,2.809897438E-2,2.137965523E-3
2.288657939E1,-1.466033421E-2,2.260134928E-2,-3.054236295E-4
2.289573179E1,-1.572931744E-2,1.481304597E-2,-5.803049076E-3
2.290488413E1,-7.635590620E-3,8.246437646E-3,-8.246437646E-3
2.291403653E1,7.788302377E-3,8.857285604E-3,-4.428642802E-3
2.292318892E1,2.122694254E-2,8.246437646E-3,2.290677279E-3
2.293234132E1,2.855710872E-2,6.566607859E-3,9.773556143E-3
2.294149367E1,2.748812735E-2,-1.985253533E-3,1.099525020E-2
2.295064606E1,2.015795931E-2,-1.649287529E-2,7.941014133E-3
2.295979846E1,1.236965694E-2,-2.855710872E-2,4.581354442E-4
2.296895080E1,6.261184346E-3,-3.756710514E-2,-6.261184346E-3
2.297810320E1,5.650337320E-3,-4.062134400E-2,-5.039489828E-3
2.298725559E1,9.926267900E-3,-3.817795217E-2,-7.635590737E-4
2.299640799E1,1.420219894E-2,-3.634541109E-2,2.901524538E-3
2.300556033E1,1.236965694E-2,-3.512371704E-2,2.290677279E-3
2.301471273E1,2.596100792E-3,-3.634541109E-2,4.581354442E-4
2.302386512E1,-5.497625098E-3,-3.695625812E-2,-1.374406274E-3
2.303301752E1,-8.551862091E-3,-3.756710514E-2,-5.192201585E-3
2.304216986E1,-3.054236295E-3,-3.573456407E-2,-6.261184346E-3
2.305132226E1,6.108472589E-3,-2.855710872E-2,-5.039489828E-3
2.306047465E1,1.404948719E-2,-1.649287529E-2,-2.596100792E-3
2.306962700E1,1.710372418E-2,-5.650337320E-3,4.581354442E-4
2.307877939E1,9.620844387E-3,3.359660041E-3,2.290677279E-3
2.308793179E1,-2.748812549E-3,1.068982668E-2,3.054236295E-4
2.309708418E1,-1.634016447E-2,1.420219894E-2,-1.527118147E-3
2.310623653E1,-2.504473738E-2,1.603474095E-2,-4.123218823E-3
