"Time (s)","Gyroscope x (rad/s)","Gyroscope y (rad/s)","Gyroscope z (rad/s)"
1.273403251E1,1.664558798E-2,4.016320780E-2,-4.428642802E-3
1.274318495E1,1.725643501E-2,4.749337584E-2,-3.817795310E-3
1.275233735E1,1.771457121E-2,5.467082933E-2,-4.428642802E-3
1.276148975E1,1.404948719E-2,6.001574174E-2,-6.872031838E-3
1.277064219E1,9.162709117E-3,6.062658876E-2,-8.704573847E-3
1.277979459E1,5.497625098E-3,5.635065958E-2,-1.175880991E-2
1.278894698E1,6.719320081E-3,5.405998230E-2,-1.053711493E-2
1.279809938E1,1.160609815E-2,5.405998230E-2,-7.482878864E-3
1.280725183E1,1.893626526E-2,5.528167635E-2,-4.428642802E-3
1.281640423E1,2.321219631E-2,6.184828654E-2,-7.635590737E-4
1.282555662E1,2.015795931E-2,6.978929788E-2,4.581354442E-4
1.283470907E1,1.695101149E-2,7.574506104E-2,-1.374406274E-3
1.284386146E1,1.267508045E-2,7.818844914E-2,-2.596100792E-3
1.285301386E1,1.023169141E-2,7.574506104E-2,-4.428642802E-3
1.286216626E1,1.267508045E-2,6.841489673E-2,-5.650337320E-3
1.287131870E1,1.404948719E-2,6.001574174E-2,-6.872031838E-3
1.288047110E1,1.466033421E-2,5.467082933E-2,-7.482878864E-3
1.288962350E1,1.038440317E-2,4.856235534E-2,-6.261184346E-3
1.289877594E1,6.719320081E-3,4.321744293E-2,-5.039489828E-3
1.290792834E1,4.428642802E-3,3.771981969E-2,-3.206948051E-3
1.291708074E1,3.206948051E-3,3.588727489E-2,-3.206948051E-3
1.292623318E1,2.596100792E-3,3.588727489E-2,-4.428642802E-3
1.293538558E1,3.054236295E-3,3.955236077E-2,-5.039489828E-3
1.294453798E1,1.832541777E-3,4.260659590E-2,-6.413896102E-3
1.295369037E1,0.000000000E0,4.550812021E-2,-8.246437646E-3
1.296284282E1,-2.443389036E-3,4.611896724E-2,-8.246437646E-3
1.297199521E1,-6.108472589E-3,4.260659590E-2,-9.468132630E-3
1.298114761E1,-9.773556143E-3,4.016320780E-2,-9.468132630E-3
1.299029990E1,-1.160609815E-2,3.588727489E-2,-8.857285604E-3
1.299945245E1,-1.099525020E-2,3.283303976E-2,-8.857285604E-3
1.300860485E1,-8.399149403E-3,2.932066843E-2,-9.468132630E-3
1.301775725E1,-5.955760833E-3,2.443389036E-2,-1.130067464E-2
1.302690969E1,3.054236295E-4,1.908897609E-2,-1.114796288E-2
1.303606209E1,4.581354558E-3,1.236965694E-2,-1.236965694E-2
1.304521448E1,7.177455351E-3,7.635590620E-3,-1.053711493E-2
1.305436693E1,7.788302377E-3,4.581354558E-3,-8.093725890E-3
1.306351933E1,4.123218823E-3,3.359660041E-3,-8.093725890E-3
1.307267173E1,1.527118147E-3,4.581354558E-3,-6.872031838E-3
1.308182417E1,-1.527118147E-3,6.413896102E-3,-5.192201585E-3
1.309097657E1,3.054236295E-4,7.024743594E-3,-1.985253533E-3
1.310012896E1,7.024743594E-3,8.857285604E-3,-1.374406274E-3
1.310928141E1,1.007897966E-2,1.130067464E-2,-7.635590737E-4
1.311843381E1,1.313321572E-2,1.542389300E-2,-1.985253533E-3
1.312758620E1,1.618745178E-2,1.908897609E-2,-4.428642802E-3
1.313673860E1,1.801999472E-2,2.275406010E-2,-9.315420873E-3
1.314589105E1,1.924168877E-2,2.382304333E-2,-1.420219894E-2
1.315504344E1,2.046338283E-2,2.993151546E-2,-1.786728203E-2
1.316419584E1,2.412846684E-2,3.527642787E-2,-2.076880634E-2
1.317334829E1,2.412846684E-2,4.016320780E-2,-1.908897609E-2
1.318250068E1,2.031067200E-2,4.917320609E-2,-1.664558798E-2
1.319165308E1,1.527118124E-2,6.001574174E-2,-1.481304597E-2
1.320080553E1,1.023169141E-2,7.085828483E-2,-1.359135192E-2
1.320995792E1,8.399149403E-3,8.108997345E-2,-1.420219894E-2
1.321911032E1,8.246437646E-3,8.826743066E-2,-1.664558798E-2
1.322826277E1,1.191152167E-2,9.498675168E-2,-1.664558798E-2
1.323741516E1,1.924168877E-2,1.009425074E-1,-1.603474095E-2
1.324656756E1,2.535016090E-2,1.064401343E-1,-1.542389300E-2
1.325571995E1,2.840439789E-2,1.076618284E-1,-1.542389300E-2
1.326487240E1,2.596100792E-2,1.052184403E-1,-1.298050396E-2
1.327402480E1,2.351761982E-2,1.004843712E-1,-1.236965694E-2
1.328317719E1,2.367033064E-2,9.254335612E-2,-1.236965694E-2
1.329232964E1,2.932066843E-2,7.986827940E-2,-1.481304597E-2
1.330148204E1,3.573456407E-2,6.306997687E-2,-1.893626526E-2
1.331063443E1,4.260659590E-2,4.489727318E-2,-2.321219631E-2
1.331978688E1,5.268557742E-2,2.626643144E-2,-2.305948362E-2
1.332893928E1,6.322269142E-2,1.191152167E-2,-2.367033064E-2
1.333809167E1,6.581879407E-2,4.581354442E-4,-2.229592577E-2
1.334724412E1,6.215370819E-2,-8.551862091E-3,-2.244863659E-2
1.335639652E1,5.604523420E-2,-6.872031838E-3,-2.305948362E-2
1.336554891E1,5.100574717E-2,-3.206948051E-3,-2.367033064E-2
1.337470136E1,4.917320609E-2,-1.527118147E-4,-2.367033064E-2
1.338385376E1,4.795150831E-2,1.527118147E-3,-2.489202656E-2
1.339300615E1,4.657710344E-2,7.024743594E-3,-2.611372061E-2
1.340215860E1,5.024218559E-2,1.603474095E-2,-2.733541466E-2
1.341131100E1,5.451811850E-2,2.565558441E-2,-2.977880463E-2
1.342046339E1,6.306997687E-2,3.237490356E-2,-3.344388679E-2
1.342961584E1,7.543963939E-2,3.054236248E-2,-3.695625812E-2
1.343876824E1,9.040539712E-2,2.504473738E-2,-3.817795217E-2
1.344792063E1,1.096470803E-1,1.359135192E-2,-4.046862945E-2
1.345707308E1,1.269035190E-1,1.679830020E-3,-4.337015375E-2
1.346622548E1,1.430909634E-1,-1.404948719E-2,-4.443913698E-2
1.347537787E1,1.586675793E-1,-2.901524492E-2,-4.428642616E-2
1.348453032E1,1.772984117E-1,-4.169032723E-2,-4.230117425E-2
1.349368271E1,1.994416267E-1,-4.520269856E-2,-3.542914242E-2
1.350283511E1,2.240282297E-1,-4.871506989E-2,-2.977880463E-2
1.351198756E1,2.499892414E-1,-4.810422286E-2,-2.596100792E-2
1.352113995E1,2.776300907E-1,-4.627167806E-2,-2.702999115E-2
1.353029235E1,3.127537966E-1,-4.566083103E-2,-2.794626169E-2
1.353944480E1,3.547495604E-1,-4.489727318E-2,-2.336490713E-2
1.354859719E1,4.075878263E-1,-4.474456236E-2,-1.206423342E-2
1.355774959E1,4.685198367E-1,-3.863608837E-2,6.719320081E-3
1.356690204E1,5.355603099E-1,-3.420744836E-2,2.977880463E-2
1.357605443E1,6.106945276E-1,-3.344388679E-2,5.543438718E-2
1.358520683E1,6.981984377E-1,-3.909422457E-2,8.414421231E-2
1.359435928E1,7.999044657E-1,-5.329642445E-2,1.122431830E-1
1.360351167E1,9.190196991E-1,-7.650861889E-2,1.412584335E-1
1.361266407E1,1.058445573E0,-1.117850468E-1,1.727170646E-1
1.362181652E1,1.212226391E0,-1.637070626E-1,2.069245130E-1
1.363096891E1,1.371657491E0,-2.302894145E-1,2.415900975E-1
1.364012131E1,1.532004952E0,-3.185568452E-1,2.672456801E-1
1.364927376E1,1.680288076E0,-4.333961308E-1,2.768665254E-1
1.365842615E1,1.807955146E0,-5.754181147E-1,2.577775419E-1
1.366757855E1,1.914089918E0,-7.079719901E-1,2.165453583E-1
1.367673100E1,2.014421463E0,-8.079982400E-1,1.690519750E-1
1.368588339E1,2.098107576E0,-9.135220647E-1,1.354553849E-1
1.369503579E1,2.138423443E0,-1.004538298E0,1.243074164E-1
1.370418824E1,2.137812614E0,-1.023169160E0,1.377460510E-1
1.371334063E1,2.144073963E0,-9.668185115E-1,1.774511337E-1
1.372249303E1,2.177059650E0,-8.936695457E-1,2.344126403E-1
1.373164548E1,2.177517653E0,-8.477032781E-1,2.990097404E-1
1.374079787E1,2.097496748E0,-8.107470274E-1,3.539859951E-1
1.374995027E1,1.949824452E0,-7.855495811E-1,3.950654566E-1
1.375910271E1,1.781077862E0,-8.153283596E-1,4.153761268E-1
1.376825511E1,1.626991630E0,-8.860339522E-1,4.014793634E-1
1.377740751E1,1.507265568E0,-9.683456421E-1,3.542914093E-1
1.378655995E1,1.416402102E0,-1.056765795E0,2.895416021E-1
1.379571235E1,1.361120462E0,-1.128845692E0,2.336490750E-1
1.380486480E1,1.361120462E0,-1.174201131E0,2.037175596E-1
1.381401719E1,1.412278891E0,-1.178171635E0,1.992889196E-1
1.382316959E1,1.510167122E0,-1.155875683E0,2.023431510E-1
1.383232204E1,1.633558273E0,-1.118308663E0,2.055501044E-1
1.384155240E1,1.748397589E0,-1.074633002E0,2.247917950E-1
1.385088714E1,1.811314821E0,-1.013548255E0,2.580829561E-1
1.386022261E1,1.808871388E0,-9.597937465E-1,2.641914487E-1
1.386955803E1,1.769013643E0,-9.093988538E-1,2.449497581E-1
1.387889344E1,1.721825719E0,-8.588512540E-1,2.249445021E-1
1.388822891E1,1.672957897E0,-8.295305967E-1,2.087570578E-1
1.389756433E1,1.628518820E0,-8.018897176E-1,1.882936656E-1
1.390689975E1,1.590188146E0,-7.858549953E-1,1.672194302E-1
1.391623521E1,1.560562015E0,-7.727217674E-1,1.450762302E-1
1.392557063E1,1.536586285E0,-7.017107606E-1,1.246128380E-1
1.393490605E1,1.520704269E0,-5.716003180E-1,1.110214889E-1
1.394424152E1,1.499629974E0,-4.294256270E-1,1.162136942E-1
1.395357693E1,1.471836448E0,-2.866400778E-1,1.293469071E-1
1.396291235E1,1.434116602E0,-1.395785958E-1,1.437018216E-1
1.397224782E1,1.384179831E0,5.039489828E-3,1.615691036E-1
1.398158324E1,1.326454878E0,1.140757278E-1,1.782146841E-1
1.399091870E1,1.279724956E0,1.453816444E-1,1.954711229E-1
1.400025412E1,1.250709772E0,8.521319181E-2,2.185306102E-1
1.400958954E1,1.233758807E0,-2.993151546E-2,2.301367074E-1
1.401892501E1,1.216349602E0,-1.600419879E-1,2.276933193E-1
1.402826042E1,1.179851532E0,-2.667875290E-1,2.139492482E-1
1.403759584E1,1.121668339E0,-3.784198761E-1,2.160872221E-1
1.404693131E1,1.056307673E0,-5.273138881E-1,2.249445021E-1
1.405626672E1,9.970554113E-1,-6.539120078E-1,2.313583940E-1
1.406560214E1,9.429954290E-1,-7.420266867E-1,2.353289127E-1
1.407486100E1,8.896990418E-1,-7.908945084E-1,2.324273884E-1
1.408401339E1,8.339592218E-1,-8.121214509E-1,2.168507725E-1
1.409316584E1,7.734853625E-1,-7.918107510E-1,1.956238300E-1
1.410231824E1,7.201889157E-1,-7.522584200E-1,1.769929975E-1
1.411147063E1,6.693359017E-1,-7.156075835E-1,1.594311297E-1
1.412062308E1,6.184828281E-1,-6.843016148E-1,1.487413049E-1
1.412977548E1,5.644228458E-1,-6.326850653E-1,1.452289373E-1
1.413892787E1,5.071559548E-1,-5.676298141E-1,1.551551968E-1
1.414808032E1,4.416425824E-1,-4.917320311E-1,1.705790907E-1
1.415723271E1,3.736858070E-1,-4.056025743E-1,1.864611208E-1
1.416638516E1,3.069507480E-1,-3.249707520E-1,2.018850148E-1
1.417553756E1,2.435753495E-1,-2.689255178E-1,2.110477239E-1
1.418468995E1,1.809635013E-1,-2.402156889E-1,2.154763639E-1
1.419384240E1,1.229330078E-1,-2.258607745E-1,2.162399292E-1
1.420299480E1,6.856760383E-2,-2.203631550E-1,2.147128135E-1
1.421214719E1,1.985253580E-2,-2.145601064E-1,2.142546773E-1
1.422129964E1,-2.535016090E-2,-1.916533262E-1,2.188360244E-1
1.423045204E1,-7.116370648E-2,-1.591257155E-1,2.215848416E-1
1.423960443E1,-1.220167428E-1,-1.249182671E-1,2.243336588E-1
1.424875688E1,-1.852394342E-1,-9.910997003E-2,2.250972092E-1
1.425790928E1,-2.617480457E-1,-8.842013776E-2,2.244863659E-1
1.426706173E1,-3.407000601E-1,-8.368607610E-2,2.232646793E-1
1.427621412E1,-4.133908749E-1,-8.444963396E-2,2.215848416E-1
1.428536652E1,-4.825693369E-1,-7.131642103E-2,2.229592502E-1
1.429451896E1,-5.555655956E-1,-4.062134400E-2,2.229592502E-1
1.430367136E1,-6.204680800E-1,-1.359135192E-2,2.188360244E-1
1.431282376E1,-6.171084642E-1,-3.237490356E-2,2.011214644E-1
1.432197620E1,-5.450284481E-1,-7.757759839E-2,1.632489264E-1
1.433112860E1,-4.329380095E-1,-1.101052165E-1,1.145338640E-1
1.434028100E1,-3.471139669E-1,-1.156028435E-1,6.093201414E-2
1.434943344E1,-3.092414141E-1,-1.832541823E-1,1.527118147E-4
1.435857308E1,-2.658712566E-1,-4.443913698E-1,-7.635590434E-2
1.436773829E1,-1.801999360E-1,-8.284615874E-1,-1.743968874E-1
1.437689068E1,-7.803573459E-2,-1.041494608E0,-2.651077211E-1
1.438603032E1,1.557660475E-2,-8.136485219E-1,-2.951919436E-1
1.439519553E1,1.007898003E-1,-2.890834510E-1,-2.454078794E-1
1.440434792E1,1.534753740E-1,3.153499067E-1,-1.331647038E-1
1.441348761E1,9.361234307E-2,7.459971905E-1,2.290677279E-3
1.442265277E1,-1.368297935E-1,7.821899056E-1,8.490777016E-2
1.443180516E1,-4.149180055E-1,5.833591223E-1,7.513421029E-2
1.444094485E1,-6.044333577E-1,3.585673273E-1,1.175880991E-2
1.445011001E1,-6.850652099E-1,2.334963679E-1,-4.260659590E-2
1.445926240E1,-7.137750387E-1,3.484883606E-1,-5.375456065E-2
1.446841485E1,-7.493568659E-1,7.403468490E-1,-2.015795931E-2
1.447756725E1,-7.999044657E-1,1.061652541E0,2.382304333E-2
1.448671964E1,-8.368607163E-1,1.059209108E0,4.245388508E-2
1.449585933E1,-8.631271720E-1,8.055548072E-1,4.795150831E-2
1.450502449E1,-8.819107413E-1,4.844018817E-1,6.520794332E-2
1.451417693E1,-9.240592122E-1,2.241809368E-1,1.145338640E-1
1.452331657E1,-1.009272337E0,4.840964451E-2,1.971509457E-1
1.453248172E1,-1.085780978E0,-1.207950488E-1,2.864873707E-1
1.454163417E1,-1.107313395E0,-3.006895781E-1,3.652866483E-1
1.455078657E1,-1.092805743E0,-4.366030693E-1,4.210264683E-1
1.455993896E1,-1.064859509E0,-5.425850749E-1,4.407263100E-1
1.456909141E1,-1.015380859E0,-6.160394549E-1,4.344651103E-1
1.457823105E1,-9.808679819E-1,-6.238277555E-1,4.292729199E-1
1.458739620E1,-9.839222431E-1,-5.528167486E-1,4.297310412E-1
1.459654865E1,-1.010188699E0,-3.797942698E-1,4.367557764E-1
1.460570105E1,-1.056460381E0,-9.422318637E-2,4.497362971E-1
1.461485344E1,-1.129303813E0,2.535016239E-1,4.636330605E-1
1.462400589E1,-1.214822531E0,5.842754245E-1,4.816530645E-1
1.463315829E1,-1.319124699E0,8.655705452E-1,4.984513521E-1
1.464231074E1,-1.403421521E0,9.907942414E-1,4.885250926E-1
1.465146313E1,-1.411515355E0,9.575030804E-1,4.451549351E-1
1.466060282E1,-1.364785433E0,8.524373770E-1,3.888042867E-1
1.466976798E1,-1.327676535E0,7.986828089E-1,3.225273490E-1
1.467892037E1,-1.347070932E0,7.204943299E-1,2.541124523E-1
1.468806006E1,-1.360662222E0,4.732539058E-1,1.905843467E-1
1.469722521E1,-1.339435339E0,1.928750277E-1,1.458397806E-1
1.470637761E1,-1.307213187E0,3.191677108E-2,1.363716573E-1
1.471553006E1,-1.285222650E0,-2.993151546E-2,1.647760421E-1
1.472468245E1,-1.276670814E0,-4.001049697E-2,2.215848416E-1
1.473383485E1,-1.252694964E0,1.985253533E-3,2.870981991E-1
1.474298730E1,-1.234369636E0,7.742489129E-2,3.274141252E-1
1.475213969E1,-1.225970507E0,9.620844573E-2,3.373403847E-1
1.476129214E1,-1.212989926E0,1.039967462E-1,3.348970115E-1
1.477044454E1,-1.172826767E0,8.597674966E-2,3.254288733E-1
1.477959693E1,-1.129762053E0,9.743013978E-2,3.092414141E-1
1.478874933E1,-1.092653036E0,1.678302884E-1,2.892361879E-1
1.479790178E1,-1.054475069E0,2.515163720E-1,2.632751763E-1
1.480705417E1,-9.940012097E-1,2.648022771E-1,2.252499312E-1
1.481620662E1,-9.159654379E-1,2.568612695E-1,1.719534993E-1
1.482535902E1,-8.532009125E-1,2.832804024E-1,1.125486046E-1
1.483451141E1,-8.278507590E-1,3.741439581E-1,5.589252338E-2
1.484366386E1,-8.179244995E-1,5.251759291E-1,8.857285604E-3
1.485281626E1,-8.212841153E-1,7.125533223E-1,-1.878355257E-2
1.486196865E1,-8.528954983E-1,8.835905790E-1,-2.107422985E-2
1.487112110E1,-8.660287261E-1,9.668185115E-1,-1.130067464E-2
1.488027350E1,-8.356390595E-1,9.915578365E-1,1.145338640E-2
1.488942594E1,-8.005153537E-1,9.888089895E-1,3.298575059E-2
1.489857834E1,-7.699729800E-1,9.460496902E-1,4.428642616E-2
1.490773074E1,-7.566870451E-1,9.093988538E-1,5.176930502E-2
1.491688318E1,-7.569924593E-1,8.599202037E-1,6.276455522E-2
1.492603558E1,-7.536327839E-1,7.600467205E-1,7.330167294E-2
1.493518798E1,-7.421793938E-1,6.569662094E-1,7.162184268E-2
1.494434042E1,-7.262973785E-1,5.960342288E-1,5.161659420E-2
1.495349282E1,-7.235485911E-1,5.845808387E-1,2.657185495E-2
1.496264527E1,-7.353073955E-1,6.006155610E-1,-2.901524538E-3
1.497179766E1,-7.733326554E-1,6.624638438E-1,-3.191677108E-2
1.498095006E1,-8.231166601E-1,7.377507687E-1,-5.971032009E-2
1.499010251E1,-8.637380004E-1,7.966975570E-1,-7.895200700E-2
1.499925490E1,-8.947384953E-1,8.266290426E-1,-8.719844371E-2
1.500840730E1,-9.210049510E-1,8.012788892E-1,-8.735115826E-2
1.501755975E1,-9.402466416E-1,7.505785823E-1,-8.551861346E-2
1.502671214E1,-9.527690411E-1,7.059867382E-1,-8.750387281E-2
1.503586459E1,-9.512419105E-1,6.560499668E-1,-8.933641016E-2
1.504501698E1,-9.061918855E-1,6.601731777E-1,-1.036913246E-1
1.505416938E1,-8.495358229E-1,7.464553714E-1,-1.191152185E-1
1.506332178E1,-8.218950033E-1,8.296833038E-1,-1.244601309E-1
1.507247422E1,-8.153283596E-1,9.272661209E-1,-1.275143623E-1
1.508162662E1,-8.322793841E-1,1.036913276E0,-1.302631795E-1
1.509077907E1,-8.667922616E-1,1.107160687E0,-1.513374150E-1
1.509993146E1,-8.819107413E-1,1.098761559E0,-1.757712960E-1
1.510908386E1,-8.704573512E-1,1.055238605E0,-1.879882365E-1
1.511823631E1,-8.521319032E-1,1.014922738E0,-1.962346882E-1
1.512738870E1,-8.411366940E-1,1.016144395E0,-1.944021434E-1
1.513654115E1,-8.532009125E-1,1.052337170E0,-1.817270666E-1
1.514569355E1,-8.817580342E-1,1.076465607E0,-1.788255423E-1
1.515484594E1,-8.768712282E-1,1.087155461E0,-2.069245130E-1
1.516399839E1,-8.092198968E-1,1.064095974E0,-2.557922900E-1
1.517315079E1,-7.159129977E-1,9.996515512E-1,-2.979407609E-1
1.518230318E1,-6.682668924E-1,9.158127308E-1,-3.274141252E-1
1.519145563E1,-6.562026739E-1,7.971556783E-1,-3.235963285E-1
1.520060803E1,-6.583406329E-1,6.653653979E-1,-2.857238054E-1
1.520976042E1,-6.838434935E-1,6.082511544E-1,-2.321219593E-1
1.521891287E1,-6.687250137E-1,5.427377820E-1,-1.873773932E-1
1.522806527E1,-5.839699507E-1,4.422534108E-1,-1.855448484E-1
1.523720495E1,-4.769189954E-1,3.356605768E-1,-2.047865391E-1
1.524637011E1,-4.246915579E-1,3.049654961E-1,-2.312056869E-1
1.525552251E1,-4.208737612E-1,2.915268540E-1,-2.629697323E-1
1.526467495E1,-4.324798584E-1,2.226538211E-1,-2.910687327E-1
1.527382735E1,-4.457657933E-1,6.413896382E-2,-3.008422852E-1
1.528297975E1,-4.616478086E-1,-8.643488586E-2,-2.916795611E-1
1.529213219E1,-4.845545888E-1,-1.588202864E-1,-2.863346636E-1
1.530128459E1,-5.008947253E-1,-1.293469071E-1,-2.973299026E-1
1.531043698E1,-4.824166298E-1,-3.237490356E-2,-3.162661791E-1
1.531958943E1,-4.265241027E-1,5.864133686E-2,-3.226800561E-1
1.532874183E1,-3.469612300E-1,1.107160673E-1,-2.890834510E-1
1.533789428E1,-2.570139766E-1,1.533226669E-1,-2.244863659E-1
1.534704667E1,-1.579040140E-1,2.092151791E-1,-1.608055383E-1
1.535619907E1,-4.321744293E-2,2.553341687E-1,-1.186570823E-1
1.536535152E1,9.407047927E-2,2.658712566E-1,-1.035386100E-1
1.537450391E1,2.544178963E-1,2.565558553E-1,-1.085781008E-1
1.538365631E1,4.390464723E-1,2.182251811E-1,-1.218640283E-1
1.539280876E1,6.456655264E-1,1.328592747E-1,-1.349972486E-1
1.540196115E1,8.854231238E-1,2.229592577E-2,-1.496575773E-1
1.541111355E1,1.170077920E0,-9.055810422E-2,-1.739387512E-1
1.542026600E1,1.487413049E0,-2.137965411E-1,-2.087570578E-1
1.542941839E1,1.812842011E0,-3.368822634E-1,-2.486148328E-1
1.543857084E1,2.118418217E0,-4.335488379E-1,-2.890834510E-1
1.544772324E1,2.381998777E0,-4.561502039E-1,-3.171824515E-1
1.545687563E1,2.596864462E0,-3.468085229E-1,-3.431434333E-1
1.546602808E1,2.781340361E0,-8.338065445E-2,-3.756710589E-1
1.547518048E1,2.945658207E0,3.246653080E-1,-4.224008918E-1
1.548433287E1,3.067827702E0,8.087617755E-1,-4.482091665E-1
1.549348532E1,3.081571817E0,1.096318126E0,-3.865135908E-1
1.550263771E1,2.962151051E0,1.000567794E0,-1.870719790E-1
1.551177740E1,2.795695305E0,4.869979918E-1,1.400367320E-1
1.552094256E1,2.685742617E0,-3.649812341E-1,5.551074743E-1
1.553009495E1,2.677038193E0,-1.324469566E0,9.790354371E-1
1.553923464E1,2.739039183E0,-2.064358234E0,1.271173120E0
1.554839980E1,2.797833204E0,-2.328091621E0,1.329203606E0
1.555755219E1,2.817838430E0,-2.234479189E0,1.196191669E0
1.556669188E1,2.833720446E0,-2.115974903E0,9.733850956E-1
1.557585704E1,2.910381794E0,-2.102994442E0,7.473716140E-1
1.558500948E1,3.071187258E0,-2.143768549E0,5.628957748E-1
1.559414912E1,3.245889664E0,-2.166522503E0,3.839175105E-1
1.560331428E1,3.329270363E0,-2.156749010E0,2.061609477E-1
1.561246672E1,3.290176153E0,-2.005411625E0,9.407047927E-2
1.562160636E1,3.151513815E0,-1.581483603E0,8.414421231E-2
1.563077152E1,2.975589752E0,-9.770501852E-1,1.826433241E-1
1.563992396E1,2.842730522E0,-4.004103839E-1,3.559712470E-1
1.564907636E1,2.782409191E0,6.719319522E-2,5.549547076E-1
1.565822881E1,2.772024870E0,4.537068009E-1,7.389724851E-1
1.566738120E1,2.756600857E0,7.307260633E-1,8.736643195E-1
1.567652084E1,2.712314606E0,8.948912621E-1,9.428427219E-1
1.568568605E1,2.653978586E0,9.483403563E-1,9.546015263E-1
1.569483844E1,2.585716486E0,8.657232523E-1,9.413156509E-1
1.570397813E1,2.496074677E0,6.919372082E-1,9.139801860E-1
1.571314329E1,2.383526087E0,4.824166298E-1,8.651124239E-1
1.572229568E1,2.265937805E0,2.305948436E-1,7.777612805E-1
1.573143537E1,2.157817841E0,-4.001049697E-2,6.781931520E-1
1.574060053E1,2.067565203E0,-3.129065037E-1,5.764871240E-1
1.574975292E1,1.974105597E0,-5.121954083E-1,4.756973088E-1
1.575890537E1,1.872552276E0,-6.809419990E-1,3.773508966E-1
1.576805777E1,1.764585018E0,-8.350282311E-1,2.930539846E-1
1.577721016E1,1.648371339E0,-9.866710305E-1,2.405211031E-1
1.578636261E1,1.529561520E0,-1.128692985E0,2.086043358E-1
1.579551501E1,1.423579574E0,-1.259719729E0,1.792836636E-1
1.580466740E1,1.326454878E0,-1.347987175E0,1.426328421E-1
1.581380709E1,1.218182087E0,-1.346460104E0,1.131594554E-1
1.582297225E1,1.083795786E0,-1.274380088E0,9.804098308E-2
1.583212469E1,9.362761378E-1,-1.173437595E0,9.147437662E-2
1.584126433E1,7.802046537E-1,-1.012173891E0,8.047912270E-2
1.585042949E1,6.111527085E-1,-7.950177193E-1,7.299624383E-2
1.585958193E1,4.321744442E-1,-5.578562617E-1,8.368607610E-2
1.586873433E1,2.591519356E-1,-3.103103936E-1,1.123958975E-1
1.587788673E1,1.010952219E-1,-3.191677108E-2,1.611109674E-1
1.588703917E1,-5.528167635E-2,2.573194206E-1,2.263189107E-1
1.589619157E1,-2.202104330E-1,4.743228853E-1,2.976353168E-1
1.590534402E1,-3.825430870E-1,5.537330508E-1,3.550549746E-1
1.591449641E1,-5.393781066E-1,4.976878166E-1,3.961344361E-1
1.592363605E1,-6.838434935E-1,3.648285270E-1,4.257605374E-1
1.593280126E1,-7.927270532E-1,1.895153672E-1,4.556920528E-1
1.594195365E1,-8.600729704E-1,-1.420219894E-2,4.802786708E-1
1.595109334E1,-9.220739603E-1,-1.925695986E-1,4.909684956E-1
1.596025850E1,-1.012021184E0,-3.295520842E-1,4.691306949E-1
1.596941089E1,-1.136175871E0,-4.048390090E-1,4.046863019E-1
1.597855058E1,-1.277434349E0,-4.054498672E-1,2.944283783E-1
1.598771574E1,-1.401130915E0,-3.634541333E-1,1.385096163E-1
1.599686813E1,-1.444959164E0,-3.407000601E-1,-3.222219273E-2
1.600600782E1,-1.329203606E0,-3.277195692E-1,-1.675248593E-1
1.601517298E1,-1.040425539E0,-2.631224692E-1,-2.400629669E-1
1.602432542E1,-6.843016148E-1,-1.985253543E-1,-2.052446753E-1
1.603346506E1,-4.883723855E-1,-2.603736520E-1,-5.054761097E-2
1.604263021E1,-5.769452453E-1,-4.428642690E-1,1.498102844E-1
1.605178266E1,-7.673768401E-1,-5.902311802E-1,2.951919436E-1
1.606092230E1,-8.976400495E-1,-5.807630420E-1,3.352024257E-1
1.607008745E1,-1.078908920E0,-3.532224298E-1,3.049654961E-1
1.607923990E1,-1.354401112E0,2.843494117E-1,2.976353168E-1
1.608837954E1,-1.666238666E0,1.026528835E0,3.268032968E-1
1.609754469E1,-1.869498014E0,1.282321095E0,3.471139669E-1
1.610669714E1,-1.813147426E0,1.121973753E0,3.206948042E-1
1.611583678E1,-1.664253354E0,9.654440880E-1,2.803788781E-1
1.612500198E1,-1.692046881E0,9.170344472E-1,2.374668717E-1
1.613415438E1,-1.786117435E0,8.449544907E-1,1.965401024E-1
1.614329402E1,-1.828418612E0,7.502731681E-1,1.841704547E-1
1.615245922E1,-1.759545565E0,4.321744442E-1,1.708845198E-1
1.616161162E1,-1.627907991E0,-9.009997360E-3,1.324011385E-1
1.617075131E1,-1.519177079E0,-4.306473136E-1,9.804098308E-2
1.617991646E1,-1.452747464E0,-6.372663975E-1,1.188097894E-1
1.618906886E1,-1.381889224E0,-6.730009913E-1,2.023431510E-1
1.619820855E1,-1.313474298E0,-6.562026739E-1,2.858765125E-1
1.620737370E1,-1.266439080E0,-6.299362183E-1,3.558185399E-1
1.621652610E1,-1.218334913E0,-5.193728805E-1,4.146125913E-1
1.622566579E1,-1.165038466E0,-3.596363366E-1,4.210264683E-1
1.623483094E1,-1.117850542E0,-2.157817930E-1,3.474193811E-1
1.624398334E1,-1.081352353E0,-1.017060652E-1,2.046338320E-1
1.625313579E1,-1.051726222E0,-2.519745007E-2,3.817795217E-2
1.626228818E1,-1.016449809E0,9.177979827E-2,-1.003316641E-1
1.627144063E1,-9.958337545E-1,2.493783981E-1,-1.863084137E-1
1.628059303E1,-9.759812355E-1,3.915531039E-1,-2.162399292E-1
1.628974542E1,-9.422318935E-1,5.375455618E-1,-2.014268786E-1
1.629889787E1,-8.921424150E-1,6.317687631E-1,-1.615691036E-1
1.630805027E1,-8.487722874E-1,7.284353375E-1,-1.136175916E-1
1.631720266E1,-8.516737819E-1,8.327375054E-1,-7.162184268E-2
1.632635511E1,-8.515210748E-1,8.124268651E-1,-4.902049154E-2
1.633550751E1,-8.105943203E-1,6.949914694E-1,-4.428642616E-2
1.634465995E1,-7.866185308E-1,5.720584393E-1,-4.459185153E-2
1.635381235E1,-8.075400591E-1,4.920374751E-1,-3.863608837E-2
1.636296475E1,-8.179244995E-1,4.106420577E-1,-2.458660305E-2
1.637211719E1,-8.108997345E-1,3.093941510E-1,-3.817795310E-3
1.638126959E1,-8.186880350E-1,1.805053651E-1,1.893626526E-2
1.639042204E1,-8.206732869E-1,6.551336497E-2,2.687728032E-2
1.639957443E1,-8.115105629E-1,6.184828654E-2,3.665083647E-2
1.640872683E1,-8.133431077E-1,1.354553849E-1,5.619794875E-2
1.641787928E1,-8.761076927E-1,2.391466945E-1,8.506047726E-2
1.642703167E1,-9.376505613E-1,2.090624720E-1,1.168245375E-1
1.643618407E1,-9.691091776E-1,1.957765520E-1,1.453816444E-1
1.644533652E1,-1.007134438E0,2.397575527E-1,1.615691036E-1
1.645448891E1,-1.044243336E0,3.332171738E-1,1.649287641E-1
1.646364136E1,-1.048519373E0,4.676035643E-1,1.623326540E-1
1.647279376E1,-1.035386086E0,5.809157491E-1,1.495048702E-1
1.648194615E1,-1.028361320E0,6.452074051E-1,1.232384369E-1
1.649109860E1,-1.039051175E0,7.655443549E-1,6.627693027E-2
1.650025100E1,-1.055544019E0,8.527427912E-1,2.596100792E-3
1.650940339E1,-1.064401388E0,8.886300325E-1,-5.238015205E-2
1.651855584E1,-1.066997409E0,9.371923804E-1,-9.697200358E-2
1.652770824E1,-1.039509296E0,9.666658044E-1,-1.261399537E-1
1.653686068E1,-9.880454540E-1,9.539906979E-1,-1.459924877E-1
1.654601308E1,-9.747595191E-1,9.865183234E-1,-1.629435122E-1
1.655516548E1,-9.770501852E-1,1.056307673E0,-1.800472289E-1
1.656431792E1,-9.910996556E-1,1.174964666E0,-1.998997629E-1
1.657347032E1,-1.009883285E0,1.288124204E0,-2.177670449E-1
1.658262271E1,-1.005912781E0,1.336228371E0,-2.415900975E-1
1.659177516E1,-9.779664874E-1,1.327829242E0,-2.664821148E-1
1.660092756E1,-9.400939345E-1,1.240325332E0,-2.979407609E-1
1.661008001E1,-9.251281619E-1,1.163663983E0,-3.300102353E-1
1.661923240E1,-9.254335761E-1,1.141978979E0,-3.629959822E-1
1.662838480E1,-9.471186996E-1,1.177255392E0,-3.906368315E-1
1.663753725E1,-9.811733961E-1,1.205507040E0,-4.111002088E-1
1.664668964E1,-9.999569654E-1,1.178324342E0,-4.282039404E-1
1.665584209E1,-1.002247691E0,1.091431379E0,-4.404208660E-1
1.666499448E1,-9.749122262E-1,9.515473247E-1,-4.755446017E-1
1.667414688E1,-9.287932515E-1,7.736380696E-1,-5.331169367E-1
1.668329933E1,-8.956547976E-1,6.252021790E-1,-6.030589342E-1
1.669245172E1,-8.922951221E-1,5.418215394E-1,-6.670452356E-1
1.670160412E1,-9.142856598E-1,4.633276463E-1,-6.971294284E-1
1.671075657E1,-9.542961121E-1,3.956763148E-1,-6.850652099E-1
1.671990896E1,-1.019198656E0,3.927747905E-1,-6.525375843E-1
1.672906141E1,-1.073869467E0,4.175141156E-1,-6.132906675E-1
1.673821381E1,-1.108382344E0,3.959817290E-1,-5.641174316E-1
1.674736620E1,-1.118155956E0,3.474193811E-1,-5.036435723E-1
1.675651865E1,-1.118766785E0,3.330644667E-1,-4.486673176E-1
1.676567105E1,-1.110520363E0,3.452814221E-1,-4.071297050E-1
1.677482350E1,-1.082574010E0,3.243598938E-1,-3.917058110E-1
1.678397589E1,-1.014311910E0,2.732014358E-1,-3.959817290E-1
1.679312829E1,-9.341381788E-1,2.070772201E-1,-4.106420577E-1
1.680228074E1,-8.452599049E-1,1.365243644E-1,-4.190412164E-1
1.681143313E1,-7.366818190E-1,1.145338640E-1,-4.103366435E-1
1.682058553E1,-6.184828281E-1,1.860029846E-1,-3.900259733E-1
1.682973798E1,-5.048652887E-1,2.970244884E-1,-3.729222417E-1
1.683889037E1,-3.884988427E-1,3.611634374E-1,-3.562766612E-1
1.684804277E1,-2.499892414E-1,3.788780272E-1,-3.319954872E-1
1.685719521E1,-4.169032723E-2,3.588727713E-1,-3.005368412E-1
1.686634761E1,2.623589039E-1,3.300102353E-1,-2.727433145E-1
1.687550006E1,6.401679516E-1,3.289412558E-1,-2.475458533E-1
1.688465245E1,1.035080671E0,3.350497186E-1,-2.252499312E-1
1.689380485E1,1.407392025E0,3.297048211E-1,-2.024958730E-1
1.690295730E1,1.734958887E0,2.803788781E-1,-1.714953631E-1
1.691210969E1,1.995332599E0,1.670667231E-1,-1.243074164E-1
1.692126214E1,2.181030035E0,4.764608666E-2,-5.573981255E-2
1.693041454E1,2.304574013E0,-2.061609551E-2,2.092151903E-2
1.693956693E1,2.382609844E0,-2.137965336E-2,7.879929990E-2
1.694871938E1,2.417733431E0,1.094943732E-1,1.046075895E-1
1.695787178E1,2.384289503E0,4.060607255E-1,1.189625040E-1
1.696702422E1,2.370392799E0,6.930062175E-1,1.643179059E-1
1.697617662E1,2.410708666E0,6.181774139E-1,2.751866877E-1
1.698532902E1,2.477596521E0,1.404948682E-1,4.561502039E-1
1.699446870E1,2.552119732E0,-5.289937258E-1,7.119424939E-1
1.700363386E1,2.579455376E0,-1.111894727E0,1.000109673E0
1.701278631E1,2.601598501E0,-1.490620017E0,1.233147860E0
1.702192594E1,2.687575340E0,-1.705790997E0,1.315154195E0
1.703109110E1,2.818296432E0,-1.807038903E0,1.238645554E0
1.704024355E1,2.902898788E0,-1.887823462E0,1.068982720E0
1.704938318E1,2.917864561E0,-2.027096510E0,8.724426031E-1
1.705854834E1,2.905342340E0,-2.209739923E0,7.064448595E-1
1.706770079E1,2.902593374E0,-2.403683901E0,5.917583108E-1
1.707684042E1,2.927943707E0,-2.575179338E0,5.150969625E-1
1.708600563E1,2.971619129E0,-2.670624256E0,4.408790171E-1
1.709515803E1,2.994525909E0,-2.715979576E0,3.642176688E-1
1.710429771E1,2.971466541E0,-2.671693087E0,3.035911024E-1
1.711346287E1,2.913741350E0,-2.392230511E0,2.822114229E-1
1.712261527E1,2.851740360E0,-1.829182148E0,3.393256664E-1
1.713175495E1,2.816616774E0,-1.100899458E0,4.430169761E-1
1.714092011E1,2.812798977E0,-3.834593594E-1,5.511369109E-1
1.715007251E1,2.824252367E0,2.273878902E-1,6.467345357E-1
1.715921219E1,2.803483486E0,7.247702479E-1,7.182036638E-1
1.716837735E1,2.717048645E0,1.081046939E0,7.753179073E-1
1.717752975E1,2.571361542E0,1.294232607E0,8.212841153E-1
1.718666943E1,2.386427641E0,1.350125194E0,8.437327743E-1
1.719583459E1,2.183779001E0,1.257581830E0,8.380824327E-1
1.720498704E1,1.997317791E0,1.043785214E0,7.985301018E-1
1.721412667E1,1.858960867E0,7.534800768E-1,7.273663878E-1
1.722329183E1,1.745037913E0,4.395045936E-1,6.322268844E-1
1.723244428E1,1.638292313E0,8.276980370E-2,5.247178078E-1
1.724158396E1,1.519788027E0,-2.522799075E-1,4.008685052E-1
1.725074912E1,1.396702290E0,-5.567872524E-1,2.609844804E-1
1.725990152E1,1.268271565E0,-8.220477104E-1,1.510319859E-1
1.726905391E1,1.130983710E0,-1.023016453E0,7.925742865E-2
1.727820636E1,9.935430884E-1,-1.144575000E0,3.863608837E-2
1.728735876E1,8.461761475E-1,-1.184127450E0,1.068982761E-3
1.729649844E1,6.833853722E-1,-1.169619799E0,-4.398100078E-2
1.730566360E1,5.102101564E-1,-1.151905179E0,-9.407047927E-2
1.731481600E1,3.319954872E-1,-1.130678296E0,-1.197260618E-1
1.732395568E1,1.640124917E-1,-1.090515018E0,-1.331647038E-1
1.733312084E1,-2.290677279E-3,-1.035996914E0,-1.343863904E-1
1.734227329E1,-1.679829955E-1,-9.802571535E-1,-1.246128380E-1
1.735142568E1,-3.326063454E-1,-9.026795626E-1,-1.105633527E-1
1.736057808E1,-4.770717025E-1,-7.551599145E-1,-9.651386738E-2
1.736973053E1,-5.862606764E-1,-4.648547769E-1,-9.147437662E-2
1.737887016E1,-6.665870547E-1,-2.031067200E-2,-7.818844914E-2
1.738803537E1,-7.398887277E-1,4.311054647E-1,-3.756710514E-2
1.739718777E1,-8.192988634E-1,7.542436719E-1,1.298050396E-2
1.740632740E1,-9.200887084E-1,8.583931327E-1,3.771981969E-2
1.741549261E1,-1.060736299E0,7.279772162E-1,1.618745178E-2
1.742464501E1,-1.213295341E0,4.556920528E-1,-6.597150117E-2
1.743378469E1,-1.310420036E0,2.831276953E-1,-2.020377368E-1
1.744294985E1,-1.254680276E0,4.718795121E-1,-3.636068404E-1
1.745210225E1,-1.044090629E0,1.053711534E0,-5.250232220E-1
1.746124193E1,-8.857285380E-1,1.512763262E0,-6.047387719E-1
1.747040709E1,-8.130376935E-1,1.290109396E0,-5.827482939E-1
1.747955954E1,-9.487984776E-1,4.112529159E-1,-4.358395338E-1
1.748869917E1,-1.386317849E0,2.015795931E-2,-8.338065445E-2
1.749786433E1,-1.502378821E0,4.126273096E-1,3.014531136E-1
1.750701678E1,-1.110214949E0,8.635852933E-1,5.299099684E-1
1.751615641E1,-1.076007485E0,1.113574505E0,6.410841942E-1
1.752532157E1,-1.632489324E0,9.064973593E-1,6.099309921E-1
1.753447402E1,-1.762599707E0,3.393256664E-1,4.950917065E-1
1.754362641E1,-1.234216928E0,-1.163664013E-1,4.057552814E-1
1.755277886E1,-9.335273504E-1,-5.990884304E-1,2.542651594E-1
1.756193126E1,-1.081199646E0,-1.134190679E0,8.857285604E-3
1.757107094E1,-1.324774981E0,-1.178018928E0,-1.620272398E-1
1.758023610E1,-1.385707021E0,-8.930587173E-1,-1.797417998E-1
1.758938850E1,-1.267813444E0,-6.250494719E-1,-7.162184268E-2
1.759852818E1,-1.106855273E0,-5.686988235E-1,8.261708915E-2
1.760769334E1,-1.046686769E0,-5.283828974E-1,1.966928244E-1
1.761684579E1,-1.088071704E0,-2.438807636E-1,2.286095917E-1
1.762598542E1,-1.154806733E0,2.053973973E-1,1.812689304E-1
1.763515058E1,-1.218945742E0,5.422796607E-1,7.986827940E-2
1.764430303E1,-1.205659747E0,6.412369013E-1,-6.597150117E-2
1.765345542E1,-1.129609346E0,7.456917763E-1,-2.188360244E-1
1.766260782E1,-1.100899458E0,8.373188972E-1,-3.494046330E-1
1.767176027E1,-1.124264359E0,8.845068216E-1,-4.411844313E-1
1.768089990E1,-1.124722481E0,9.465078115E-1,-4.680617154E-1
1.769006511E1,-1.080283403E0,9.196305275E-1,-4.396573007E-1
1.769921751E1,-1.029735804E0,8.276980519E-1,-3.813214004E-1
1.770836990E1,-9.998042583E-1,6.768187881E-1,-3.034383655E-1
1.771752235E1,-9.932376146E-1,5.402944088E-1,-2.232646793E-1
1.772667475E1,-9.881981611E-1,4.147652984E-1,-1.437018216E-1
1.773582719E1,-9.843803644E-1,2.979407609E-1,-8.078455180E-2
1.774497959E1,-9.797990322E-1,2.397575527E-1,-4.031591862E-2
1.775413198E1,-9.891144037E-1,2.446443290E-1,-1.725643501E-2
1.776328443E1,-1.004385591E0,2.270824611E-1,-1.786728203E-2
1.777243683E1,-9.796462655E-1,2.234173864E-1,-3.603998944E-2
1.778158928E1,-9.927794933E-1,2.606790662E-1,-5.940489471E-2
1.779074167E1,-1.063179612E0,2.852656841E-1,-8.124268800E-2
1.779989407E1,-1.128234863E0,3.217637837E-1,-9.758284688E-2
1.780904652E1,-1.145796776E0,3.103103936E-1,-1.087308154E-1
1.781819891E1,-1.134190679E0,3.090887070E-1,-1.171299592E-1
1.782735131E1,-1.132358074E0,3.205420971E-1,-1.097997949E-1
1.783650376E1,-1.150530815E0,3.399364948E-1,-8.918370306E-2
1.784565615E1,-1.178477049E0,4.014793634E-1,-4.367557913E-2
1.785480860E1,-1.203521848E0,4.860817194E-1,2.382304333E-2
1.786396100E1,-1.226275921E0,5.954233408E-1,1.053711548E-1
1.787311344E1,-1.245059371E0,6.523848772E-1,1.785201132E-1
1.788226584E1,-1.251626015E0,6.181774139E-1,2.255553454E-1
1.789141824E1,-1.232384324E0,5.332696438E-1,2.263189107E-1
1.790057068E1,-1.194664478E0,3.956763148E-1,1.693574041E-1
1.790972308E1,-1.164885759E0,2.838912606E-1,7.437065244E-2
1.791887548E1,-1.168092728E0,2.713688910E-1,-2.580829710E-2
1.792802792E1,-1.189930439E0,3.475720882E-1,-1.139230132E-1
1.793718032E1,-1.208255887E0,4.853181541E-1,-1.763821393E-1
1.794633277E1,-1.196955204E0,6.252021790E-1,-1.898207814E-1
1.795548516E1,-1.178629756E0,7.070556879E-1,-1.837123185E-1
1.796463761E1,-1.143811464E0,7.360709310E-1,-1.676775664E-1
1.797379001E1,-1.099525094E0,7.345438004E-1,-1.459924877E-1
1.798294240E1,-1.072647810E0,7.568397522E-1,-1.421747059E-1
1.799209485E1,-1.057071209E0,8.241856694E-1,-1.719534993E-1
1.800124725E1,-1.046381354E0,8.962656260E-1,-2.385358512E-1
1.801039964E1,-1.059056401E0,9.135220647E-1,-3.246653080E-1
1.801955209E1,-1.103648305E0,8.878664970E-1,-3.781144619E-1
1.802870449E1,-1.122431874E0,8.527427912E-1,-3.965925872E-1
1.803785693E1,-1.114338160E0,9.275715351E-1,-4.075878263E-1
1.804700933E1,-1.088835239E0,1.066081166E0,-4.379774928E-1
1.805616178E1,-9.915578365E-1,1.084101200E0,-4.856235683E-1
1.806530141E1,-8.125795722E-1,1.022100210E0,-5.386145711E-1
1.807446657E1,-6.774296165E-1,9.504783154E-1,-5.882459283E-1
1.808361902E1,-7.044596076E-1,8.869501948E-1,-6.164975762E-1
1.809277141E1,-8.286142945E-1,8.512156606E-1,-6.198572516E-1
1.810192386E1,-9.068027735E-1,8.360971808E-1,-6.068767309E-1
1.811107626E1,-9.080244303E-1,8.174663186E-1,-5.799994469E-1
1.812022865E1,-8.916842937E-1,7.701256871E-1,-5.486935377E-1
1.812938110E1,-8.831323981E-1,6.948387623E-1,-5.248705149E-1
1.813853350E1,-8.849649429E-1,6.152759194E-1,-5.149442554E-1
1.814768594E1,-8.886300325E-1,5.424323678E-1,-5.198310018E-1
1.815683834E1,-8.651124239E-1,4.694361091E-1,-5.300627351E-1
1.816599074E1,-8.218950033E-1,4.080459774E-1,-5.376983285E-1
1.817514318E1,-7.785248160E-1,3.736858070E-1,-5.384618640E-1
1.818429558E1,-7.227849960E-1,4.022429287E-1,-5.137225389E-1
1.819344803E1,-6.571189165E-1,4.869979918E-1,-4.674508572E-1
1.820260042E1,-5.858024955E-1,5.493044257E-1,-4.046863019E-1
1.821175282E1,-4.902049303E-1,5.033381581E-1,-3.246653080E-1
1.822090527E1,-3.474193811E-1,3.484883606E-1,-2.362451702E-1
1.823005766E1,-1.586675793E-1,1.652341783E-1,-1.695101112E-1
1.823921011E1,7.192726433E-2,-7.941014133E-3,-1.304158866E-1
1.824836251E1,3.326063454E-1,-1.508792788E-1,-1.174353883E-1
1.825751495E1,6.048914790E-1,-2.623589039E-1,-1.209477559E-1
1.826666735E1,8.828269839E-1,-3.283303976E-1,-1.183516532E-1
1.827581975E1,1.168398142E0,-3.626905680E-1,-9.498675168E-2
1.828495943E1,1.457939744E0,-4.318690002E-1,-5.008947477E-2
1.829412459E1,1.728239655E0,-5.615213513E-1,-7.788302377E-3
1.830327704E1,1.982046604E0,-6.882721782E-1,1.527118147E-4
1.831241667E1,2.200424433E0,-6.952968836E-1,-4.459185153E-2
1.832158183E1,2.349929333E0,-4.897467792E-1,-1.181989461E-1
1.833073428E1,2.464005232E0,-1.976090819E-1,-1.592784226E-1
1.833987391E1,2.531351089E0,-6.872031838E-3,-1.258345395E-1
1.834903907E1,2.570597887E0,8.338065445E-2,1.985253533E-3
1.835819152E1,2.562962294E0,1.191152167E-2,2.021904439E-1
1.836733120E1,2.547233105E0,-2.583884001E-1,4.355340898E-1
1.837649636E1,2.554715872E0,-7.968502641E-1,6.626165509E-1
1.838564876E1,2.571514130E0,-1.472141862E0,8.611419201E-1
1.839480120E1,2.613204479E0,-1.927070379E0,9.837695360E-1
1.840395360E1,2.672304153E0,-2.049392462E0,9.990406632E-1
1.841310605E1,2.723309755E0,-2.011519909E0,9.242119193E-1
1.842224568E1,2.798596621E0,-2.043131351E0,8.167027831E-1
1.843141084E1,2.918628216E0,-2.182557344E0,7.082774043E-1
1.844056329E1,3.020639658E0,-2.365658760E0,5.723638535E-1
1.844970292E1,3.003230572E0,-2.558991909E0,4.404208660E-1
1.845886808E1,2.852962017E0,-2.532419920E0,3.501681983E-1
1.846802053E1,2.678870678E0,-2.142241240E0,3.425326049E-1
1.847716016E1,2.596864462E0,-1.553842664E0,4.369085133E-1
1.848632537E1,2.628323078E0,-1.004232883E0,5.888567567E-1
1.849547777E1,2.678717852E0,-5.173876286E-1,7.493568659E-1
1.850461745E1,2.667875290E0,-4.734066129E-2,9.016105533E-1
1.851378261E1,2.582509518E0,3.603998721E-1,1.020420313E0
1.852293501E1,2.459270954E0,5.967977643E-1,1.093874693E0
1.853207469E1,2.343515396E0,6.371136904E-1,1.123500824E0
1.854123985E1,2.254484415E0,5.392253995E-1,1.087613583E0
1.855039230E1,2.175379753E0,3.839175105E-1,1.023627281E0
1.855953193E1,2.071688414E0,2.134911120E-1,9.533798695E-1
1.856869709E1,1.957918167E0,2.122694254E-2,8.648070097E-1
1.857784954E1,1.846133113E0,-1.714953631E-1,7.530219555E-1
1.858700193E1,1.755880475E0,-4.306473136E-1,6.311579347E-1
1.859615438E1,1.701515079E0,-7.012526393E-1,4.909684956E-1
1.860530678E1,1.656770468E0,-9.446752667E-1,3.694098890E-1
1.861445917E1,1.598434567E0,-1.146865726E0,2.903051674E-1
1.862361162E1,1.516581059E0,-1.296523333E0,2.507528067E-1
1.863276402E1,1.420678020E0,-1.373948216E0,2.312056869E-1
1.864191646E1,1.299883008E0,-1.364021897E0,2.052446753E-1
1.865106886E1,1.150072694E0,-1.278808713E0,1.644706279E-1
1.866022131E1,9.822424054E-1,-1.153279662E0,1.229330078E-1
1.866937370E1,8.075400591E-1,-1.041036487E0,9.055810422E-2
1.867852610E1,6.317687631E-1,-9.607100487E-1,7.818844914E-2
1.868767855E1,4.576773047E-1,-8.614473343E-1,8.719844371E-2
1.869683094E1,2.964136302E-1,-6.862868667E-1,9.819369763E-2
1.870598339E1,1.365243644E-1,-3.900259733E-1,1.017060652E-1
1.871513579E1,-3.573456407E-2,-1.679830020E-3,1.111742035E-1
1.872428818E1,-2.044811249E-1,3.915531039E-1,1.299577504E-1
1.873344063E1,-3.545968235E-1,7.476770282E-1,1.572931707E-1
1.874259303E1,-4.792096615E-1,1.032026410E0,2.050919682E-1
1.875174548E1,-5.929799676E-1,1.172521353E0,2.687727809E-1
1.876089787E1,-7.256865501E-1,1.106855273E0,3.197785318E-1
1.877005027E1,-8.709154725E-1,8.567132950E-1,3.403946459E-1
1.877918995E1,-9.935430884E-1,5.092939138E-1,3.275668323E-1
1.878835511E1,-1.068982720E0,1.473668963E-1,2.944283783E-1
1.879750756E1,-1.106244445E0,-1.534753740E-1,2.545706034E-1
1.880665995E1,-1.151447058E0,-3.362714052E-1,2.214321345E-1
1.881581240E1,-1.242157936E0,-3.744493723E-1,1.963873953E-1
1.882496480E1,-1.378834963E0,-3.090887070E-1,1.771457046E-1
1.883411719E1,-1.478861213E0,-2.183778882E-1,1.427855492E-1
1.884326964E1,-1.486344099E0,-1.047603041E-1,7.482878864E-2
1.885242204E1,-1.398076653E0,1.908897609E-2,-3.466558084E-2
1.886156172E1,-1.211157441E0,5.390727147E-2,-1.731752008E-1
1.887072688E1,-9.736905098E-1,3.924693540E-2,-3.185568452E-1
1.887987933E1,-8.017370105E-1,5.955760833E-3,-4.181249440E-1
1.888901896E1,-9.506310225E-1,5.451811850E-2,-4.124746025E-1
1.889818412E1,-1.417623758E0,1.896680743E-1,-3.321481943E-1
1.890733657E1,-1.751757264E0,3.576510847E-1,-2.284568697E-1
1.891647620E1,-1.709150672E0,6.904101372E-1,-6.780404598E-2
1.892564141E1,-1.535670042E0,1.277739763E0,1.247655526E-1
1.893479381E1,-1.556896925E0,1.946464777E0,2.370087355E-1
1.894393350E1,-1.740151167E0,1.981588483E0,2.272351831E-1
1.895309865E1,-1.715564489E0,1.519329786E0,1.831014603E-1
1.896225105E1,-1.426481009E0,1.169619799E0,1.688992679E-1
1.897139074E1,-1.304617047E0,9.341381788E-1,1.430909634E-1
1.898055589E1,-1.386012435E0,6.149705052E-1,8.170082420E-2
1.898970834E1,-1.493368864E0,2.313583940E-1,3.054236248E-2
1.899886074E1,-1.507723689E0,-1.748550236E-1,3.619270027E-2
1.900801313E1,-1.431062460E0,-5.022691488E-1,1.047603041E-1
1.901716558E1,-1.311947227E0,-7.053758502E-1,1.850867122E-1
1.902631798E1,-1.212073684E0,-8.641961813E-1,2.379250079E-1
1.903547042E1,-1.147018433E0,-9.297095537E-1,2.695363462E-1
1.904462282E1,-1.084406614E0,-8.849649429E-1,2.687727809E-1
1.905377521E1,-1.028208613E0,-7.469134927E-1,2.422009408E-1
1.906292766E1,-1.004843712E0,-5.885513425E-1,1.957765520E-1
1.907208006E1,-1.018740535E0,-4.532486796E-1,1.473668963E-1
1.908123251E1,-1.014770031E0,-3.220692277E-1,8.689302206E-2
1.909038490E1,-1.017366052E0,-1.284306347E-1,1.038440317E-2
1.909953735E1,-1.024543524E0,8.414421231E-2,-6.123743951E-2
1.910868975E1,-1.011257648E0,2.754921019E-1,-1.131594554E-1
1.911784214E1,-9.898779988E-1,4.618005157E-1,-1.430909634E-1
1.912699459E1,-9.813261032E-1,6.733064055E-1,-1.456870735E-1
1.913614698E1,-9.631534219E-1,8.414421082E-1,-1.255291104E-1
1.914529943E1,-9.312366247E-1,9.910996556E-1,-1.058292910E-1
1.915445183E1,-8.947384953E-1,1.045312405E0,-1.044548824E-1
1.916360422E1,-8.770239353E-1,1.067608237E0,-1.256818175E-1
1.917275667E1,-8.906152844E-1,1.086697221E0,-1.630962193E-1
1.918190907E1,-9.242119193E-1,1.074480295E0,-2.090624720E-1
1.919106152E1,-9.503256083E-1,1.003011227E0,-2.611372173E-1
1.920021391E1,-9.364288449E-1,8.997780085E-1,-3.092414141E-1
1.920936636E1,-9.153546095E-1,7.803573608E-1,-3.455868363E-1
1.921851876E1,-9.092461467E-1,6.580352187E-1,-3.662029207E-1
1.922767115E1,-9.083298445E-1,6.181774139E-1,-3.680354655E-1
1.923682360E1,-9.008470178E-1,6.026008129E-1,-3.574983478E-1
1.924597600E1,-8.909206986E-1,5.900784731E-1,-3.495573401E-1
1.925512844E1,-8.754968047E-1,6.473453641E-1,-3.445178568E-1
1.926428084E1,-8.753440976E-1,7.672241330E-1,-3.410054743E-1
1.927343329E1,-8.793146014E-1,8.655705452E-1,-3.411581814E-1
1.928258568E1,-8.845068216E-1,8.991671801E-1,-3.405473530E-1
1.929173808E1,-8.713735938E-1,9.517000318E-1,-3.466558158E-1
1.930089053E1,-8.739697337E-1,1.118003249E0,-3.541387022E-1
1.931004292E1,-8.987090588E-1,1.263690233E0,-3.489464819E-1
1.931919537E1,-9.294040799E-1,1.308892965E0,-3.497100472E-1
1.932834777E1,-9.547542930E-1,1.334090471E0,-3.596363366E-1
1.933750016E1,-9.536852837E-1,1.358677030E0,-3.816268146E-1
1.934665261E1,-9.260444641E-1,1.375475287E0,-4.028537571E-1
1.935580501E1,-8.883246183E-1,1.374253631E0,-4.167505503E-1
1.936495745E1,-8.648070097E-1,1.353942990E0,-4.207210541E-1
1.937410985E1,-8.356390595E-1,1.269035220E0,-4.248442650E-1
1.938326230E1,-7.783721089E-1,1.152668834E0,-4.456130862E-1
1.939241469E1,-7.029324770E-1,1.075549364E0,-4.810422063E-1
1.940156714E1,-6.836907864E-1,1.058598280E0,-5.010474920E-1
1.941071954E1,-7.585195899E-1,1.017518878E0,-5.008947253E-1
1.941987193E1,-8.240329623E-1,9.715525508E-1,-4.921901822E-1
1.942902438E1,-8.486195803E-1,9.469659925E-1,-4.709632397E-1
1.943817678E1,-8.738170266E-1,9.254335761E-1,-4.356867969E-1
1.944732917E1,-8.603783846E-1,8.556442857E-1,-4.039227366E-1
1.945648162E1,-8.287670016E-1,7.641699314E-1,-3.852919042E-1
1.946563402E1,-8.226585388E-1,6.839962006E-1,-3.710896969E-1
1.947478646E1,-8.507575393E-1,5.845808387E-1,-3.657447994E-1
1.948393886E1,-8.965710402E-1,4.676035643E-1,-3.654393852E-1
1.949309131E1,-9.129112363E-1,3.608580232E-1,-3.660502136E-1
1.950224370E1,-8.898517489E-1,2.687727809E-1,-3.768927455E-1
1.951139610E1,-8.704573512E-1,1.853921413E-1,-4.052971601E-1
1.952054855E1,-8.741224408E-1,1.256818175E-1,-4.417952895E-1
1.952970094E1,-8.892409205E-1,1.049130186E-1,-4.785988331E-1
1.953885339E1,-9.330691695E-1,1.378987730E-1,-5.076140761E-1
1.954800579E1,-1.000873208E0,2.082989216E-1,-5.161659122E-1
1.955715824E1,-1.041036487E0,2.704526186E-1,-5.030327439E-1
1.956631063E1,-1.033859015E0,2.927485406E-1,-4.669927359E-1
1.957546303E1,-1.020725727E0,2.447970361E-1,-4.185830951E-1
1.958461548E1,-1.021031141E0,1.811162084E-1,-3.672719002E-1
1.959376787E1,-1.002705812E0,1.982199401E-1,-3.323009014E-1
1.960292032E1,-9.390249252E-1,2.982461751E-1,-3.240544796E-1
1.961207271E1,-8.402203918E-1,4.304946065E-1,-3.436015844E-1
1.962122516E1,-7.185090780E-1,5.360184908E-1,-3.562766612E-1
1.963037756E1,-5.517477989E-1,5.068505406E-1,-3.465031087E-1
1.963953001E1,-3.269560039E-1,3.608580232E-1,-3.038965166E-1
1.964868240E1,-6.795676053E-2,2.440334857E-1,-2.286095917E-1
1.965783480E1,2.002051920E-1,1.983726472E-1,-1.382041872E-1
1.966698725E1,4.669927359E-1,1.666085869E-1,-6.673506647E-2
1.967613964E1,7.406523228E-1,8.826743066E-2,-1.649287529E-2
1.968529209E1,1.014159203E0,-5.818320066E-2,1.908897609E-2
1.969444449E1,1.268577099E0,-2.631224692E-1,5.100574717E-2
1.970359688E1,1.482068181E0,-5.042544007E-1,7.345438004E-2
1.971274933E1,1.652799964E0,-7.191199064E-1,7.605048269E-2
1.972190173E1,1.796349049E0,-8.328902125E-1,6.062658876E-2
1.973105417E1,1.944632292E0,-8.683193922E-1,3.542914242E-2
1.974020657E1,2.059624195E0,-8.380824327E-1,1.542389300E-2
1.974935902E1,2.145601034E0,-6.064186096E-1,4.398100078E-2
1.975851141E1,2.250055790E0,-2.570139766E-1,1.519482583E-1
1.976765110E1,2.326106310E0,-8.857285231E-2,3.196258247E-1
1.977681626E1,2.361230135E0,-4.715740979E-1,5.283828974E-1
1.978596865E1,2.363368034E0,-1.150530815E0,7.470661998E-1
1.979510834E1,2.426896095E0,-1.733126402E0,9.206995368E-1
1.980427350E1,2.616106033E0,-2.256775141E0,9.926267862E-1
1.981342594E1,2.889918327E0,-2.596406221E0,9.674293399E-1
1.982256558E1,3.130744934E0,-2.624047041E0,8.872556686E-1
1.983173074E1,3.233214617E0,-2.512872934E0,7.577560544E-1
1.984088318E1,3.186179399E0,-2.403989315E0,5.717530251E-1
1.985002282E1,3.066147804E0,-2.331909418E0,3.894151151E-1
1.985918803E1,2.945963621E0,-2.257385969E0,2.304421216E-1
1.986834042E1,2.839370728E0,-2.112920761E0,7.437065244E-2
1.987748011E1,2.713536263E0,-1.842315316E0,-4.627167806E-2
1.988664527E1,2.575637579E0,-1.423274159E0,-6.215370819E-2
1.989579766E1,2.488897085E0,-9.349017143E-1,4.306473210E-2
1.990493735E1,2.501572132E0,-4.604261220E-1,2.553341687E-1
1.991410251E1,2.595795393E0,-1.572931744E-2,5.224271417E-1
1.992325495E1,2.700250387E0,4.023956358E-1,7.745543122E-1
1.993240735E1,2.745147467E0,7.467607856E-1,9.541434050E-1
1.994155980E1,2.709718466E0,9.397885203E-1,1.043479800E0
1.995071219E1,2.626337767E0,9.584193230E-1,1.048366666E0
1.995985188E1,2.530434847E0,8.732061386E-1,1.015991688E0
1.996901704E1,2.433920860E0,7.186617851E-1,9.915578365E-1
1.997816943E1,2.330840349E0,5.209000111E-1,9.917105436E-1
1.998730912E1,2.217680931E0,2.999260128E-1,9.672766328E-1
1.999647428E1,2.096885920E0,4.947862774E-2,8.987090588E-1
2.000562673E1,1.986322522E0,-2.212794125E-1,7.815790772E-1
2.001476636E1,1.892404795E0,-5.479300022E-1,6.499415040E-1
2.002393152E1,1.828724027E0,-8.799254894E-1,5.018110275E-1
2.003308396E1,1.775885701E0,-1.177713513E0,3.489464819E-1
2.004223636E1,1.712052107E0,-1.420525312E0,2.137965411E-1
2.005138881E1,1.622715712E0,-1.583774209E0,1.204896197E-1
2.006054120E1,1.502684236E0,-1.653410792E0,5.971032009E-2
2.006968089E1,1.352263093E0,-1.632794738E0,2.580829710E-2
2.007884605E1,1.186723471E0,-1.516733766E0,1.847812906E-2
2.008799850E1,1.039814711E0,-1.351804972E0,3.497100621E-2
2.009713813E1,9.141329527E-1,-1.166412830E0,6.077930331E-2
2.010630329E1,7.783721089E-1,-9.639169574E-1,8.719844371E-2
2.011545574E1,6.186355352E-1,-7.508839965E-1,1.017060652E-1
2.012460813E1,4.563029110E-1,-5.853443742E-1,1.108687744E-1
2.013376058E1,3.017585576E-1,-4.766135812E-1,1.188097894E-1
2.014291298E1,1.565296054E-1,-3.616215885E-1,1.317902952E-1
2.015206542E1,4.214845970E-2,-1.942494214E-1,1.443126649E-1
2.016121782E1,-4.703523964E-2,1.527118147E-3,1.539335102E-1
2.017037021E1,-1.408002973E-1,2.141019702E-1,1.627907902E-1
2.017952266E1,-2.293731421E-1,4.019374847E-1,1.663031727E-1
2.018867506E1,-3.092414141E-1,4.953971207E-1,1.785201132E-1
2.019782751E1,-3.857500553E-1,4.995203316E-1,2.000524700E-1
2.020697990E1,-4.894413650E-1,5.091412067E-1,2.168507725E-1
2.021613235E1,-6.336013079E-1,5.595360994E-1,2.214321345E-1
2.022528475E1,-7.895200849E-1,5.743491650E-1,2.147128135E-1
2.023443714E1,-9.342908859E-1,4.902049303E-1,1.991362125E-1
2.024358959E1,-1.051726222E0,3.213056624E-1,1.887518018E-1
2.025274198E1,-1.149614573E0,1.004843712E-1,1.863084137E-1
2.026188167E1,-1.221694469E0,-1.130067408E-1,1.780619770E-1
2.027104683E1,-1.232231617E0,-2.148655206E-1,1.420219839E-1
2.028019928E1,-1.154654026E0,-9.758284688E-2,6.856760383E-2
2.028933891E1,-1.023474574E0,2.402156889E-1,-3.390202299E-2
2.029850412E1,-8.625163436E-1,4.908157587E-1,-1.453816444E-1
2.030765652E1,-8.070819378E-1,3.970507085E-1,-2.351761907E-1
2.031679620E1,-9.633061290E-1,2.400629669E-1,-2.808370292E-1
2.032596136E1,-1.428160906E0,3.689517379E-1,-2.286095917E-1
2.033511376E1,-1.984337330E0,5.302154422E-1,-9.468132257E-2
2.034425344E1,-2.033052444E0,7.056813240E-1,1.178935245E-1
2.035341860E1,-1.597365618E0,1.138466597E0,4.199574888E-1
2.036257105E1,-1.227192163E0,1.292247415E0,6.172611713E-1
2.037171068E1,-1.253000498E0,1.043632507E0,5.329642296E-1
2.038087589E1,-1.396091461E0,8.779402375E-1,3.080197275E-1
2.039002829E1,-1.498408318E0,7.023216486E-1,1.053711548E-1
2.039916798E1,-1.644095421E0,5.612159371E-1,-6.872031838E-3
2.040833313E1,-1.640430331E0,5.612159371E-1,-7.330167107E-3
2.041748553E1,-1.416402102E0,3.006895781E-1,3.588727489E-2
2.042662521E1,-1.237576604E0,-2.079934925E-1,7.543963939E-2
2.043579037E1,-1.197871447E0,-5.577035546E-1,1.485885978E-1
2.044494282E1,-1.258039951E0,-7.774558663E-1,2.612899244E-1
2.045409521E1,-1.246281147E0,-1.043327093E0,3.550549746E-1
2.046324761E1,-1.140757203E0,-1.334701300E0,3.736858070E-1
2.047240006E1,-1.035844207E0,-1.449998736E0,3.080197275E-1
2.048153969E1,-1.003163934E0,-1.327371120E0,1.823379099E-1
2.049070490E1,-1.038287640E0,-1.051420808E0,1.939439960E-2
2.049985730E1,-1.059667230E0,-6.400152445E-1,-1.508792788E-1
2.050899698E1,-1.066691995E0,-1.319430023E-1,-2.757975459E-1
2.051816214E1,-1.096928954E0,3.962871730E-1,-3.275668323E-1
2.052731459E1,-1.151599765E0,8.417475224E-1,-3.106158376E-1
2.053646698E1,-1.224901438E0,1.290872931E0,-2.150182426E-1
2.054561938E1,-1.275601745E0,1.646233320E0,-7.345438004E-2
2.055477183E1,-1.258345366E0,1.799861431E0,7.009471953E-2
2.056391146E1,-1.219709277E0,1.770846248E0,1.785201132E-1
2.057307667E1,-1.178018928E0,1.558271408E0,2.272351831E-1
2.058222907E1,-1.127165914E0,1.258345366E0,2.101314515E-1
2.059136876E1,-1.103037477E0,9.211576581E-1,1.401894391E-1
2.060053391E1,-1.103801012E0,6.400152445E-1,4.886778072E-2
2.060968631E1,-1.078908920E0,3.817795515E-1,-4.596625641E-2
2.061883876E1,-1.038287640E0,2.061609477E-1,-1.299577504E-1
2.062799115E1,-1.010035992E0,5.344913527E-2,-2.028012872E-1
2.063714360E1,-1.006218195E0,-6.734590977E-2,-2.692309320E-1
2.064629600E1,-1.020878434E0,-7.116370648E-2,-3.182514310E-1
2.065544844E1,-1.038134933E0,2.870982140E-2,-3.562766612E-1
2.066460084E1,-1.036913276E0,1.713426560E-1,-3.843756318E-1
2.067375329E1,-1.015991688E0,3.249707520E-1,-3.947600424E-1
2.068290568E1,-1.008508801E0,5.118899941E-1,-3.820849657E-1
2.069205808E1,-1.022558331E0,6.392516494E-1,-3.596363366E-1
2.070121053E1,-1.014159203E0,7.224795818E-1,-3.382566571E-1
2.071036292E1,-9.823951125E-1,8.719844818E-1,-3.199312389E-1
2.071951537E1,-9.466605186E-1,1.015686274E0,-2.947337925E-1
2.072866777E1,-9.014578462E-1,1.115865231E0,-2.718270421E-1
2.073782021E1,-8.432746530E-1,1.155722976E0,-2.593046725E-1
2.074697261E1,-7.962393761E-1,1.132205367E0,-2.614426315E-1
2.075612501E1,-7.782194018E-1,1.123195410E0,-2.727433145E-1
2.076527745E1,-7.774558663E-1,1.187028885E0,-2.880144715E-1
2.077442985E1,-7.519529462E-1,1.237576604E0,-3.075616062E-1
2.078358230E1,-7.342383862E-1,1.253305912E0,-3.318427801E-1
2.079273469E1,-7.386670709E-1,1.283237338E0,-3.629959822E-1
2.080188714E1,-7.281299233E-1,1.302326322E0,-4.057552814E-1
2.081103954E1,-7.050704360E-1,1.299730301E0,-4.489727318E-1
2.082019198E1,-7.015580535E-1,1.323858738E0,-4.714213610E-1
2.082934438E1,-7.379034758E-1,1.323706031E0,-4.674508572E-1
2.083849678E1,-7.740961909E-1,1.230857253E0,-4.578300118E-1
2.084764922E1,-7.684458494E-1,1.070662498E0,-4.511106908E-1
2.085680162E1,-7.464553714E-1,8.857285380E-1,-4.446968138E-1
2.086595407E1,-7.510367036E-1,7.067502737E-1,-4.543176591E-1
2.087510646E1,-7.658497691E-1,5.813738704E-1,-4.787515402E-1
2.088425891E1,-7.663078904E-1,5.063923597E-1,-5.121954083E-1
2.089341131E1,-7.621846795E-1,4.159869850E-1,-5.415160656E-1
2.090256376E1,-7.527165413E-1,3.213056624E-1,-5.548020005E-1
2.091171615E1,-7.348492742E-1,2.544178963E-1,-5.515950918E-1
2.092086855E1,-7.310314775E-1,2.333436459E-1,-5.416688323E-1
2.093002100E1,-7.582141757E-1,2.447970361E-1,-5.364766121E-1
2.093917339E1,-8.011261821E-1,2.826695740E-1,-5.380037427E-1
2.094832584E1,-8.567132950E-1,3.663556576E-1,-5.305208564E-1
2.095747824E1,-8.988617659E-1,4.526378214E-1,-5.082249045E-1
2.096663068E1,-9.023740888E-1,4.779879749E-1,-4.808894992E-1
2.097578308E1,-8.783983588E-1,4.124746025E-1,-4.549284875E-1
2.098493548E1,-8.600729704E-1,2.811424434E-1,-4.462239146E-1
2.099408792E1,-8.533536196E-1,1.437018216E-1,-4.503471553E-1
2.100324032E1,-8.483141065E-1,7.070557028E-2,-4.581354558E-1
2.101239277E1,-8.299887180E-1,1.015533581E-1,-4.624113739E-1
2.102154516E1,-7.840224504E-1,1.944021434E-1,-4.474456310E-1
2.103068485E1,-6.956022978E-1,2.640387416E-1,-3.997995257E-1
2.103985001E1,-5.480827093E-1,2.241809368E-1,-3.297048211E-1
2.104900245E1,-3.455868363E-1,7.528692484E-2,-2.701472044E-1
2.105815485E1,-1.166718230E-1,-9.834641218E-2,-2.373141646E-1
2.106730730E1,1.154501289E-1,-2.250972092E-1,-2.179197669E-1
2.107645969E1,3.225273490E-1,-3.077143133E-1,-1.937913001E-1
2.108561209E1,5.204418898E-1,-3.946073353E-1,-1.551551968E-1
2.109476454E1,7.388197780E-1,-5.109737515E-1,-9.177979827E-2
2.110391693E1,9.964445829E-1,-6.795675755E-1,-1.908897609E-2
2.111306938E1,1.297286868E0,-8.440381885E-1,1.863084175E-2
2.112222178E1,1.610498786E0,-9.022213817E-1,-1.267508045E-2
2.113137423E1,1.822157383E0,-7.510367036E-1,-1.017060652E-1
2.114051386E1,1.946464777E0,-4.213318825E-1,-1.785201132E-1
2.114967907E1,2.050766945E0,-9.223793447E-2,-1.762294322E-1
2.115883146E1,2.163620949E0,7.101099193E-2,-7.177454978E-2
2.116797115E1,2.242267609E0,-6.261184346E-3,1.365243644E-1
2.117713631E1,2.289302826E0,-3.506263196E-1,3.721587062E-1
2.118628870E1,2.400476933E0,-9.402466416E-1,5.694623590E-1
2.119542839E1,2.618091345E0,-1.435185671E0,7.178982496E-1
2.120459355E1,2.875257969E0,-1.630351305E0,8.133431077E-1
2.121374600E1,3.061108351E0,-1.613094926E0,8.377770185E-1
2.122289839E1,3.138533115E0,-1.482984424E0,7.771504521E-1
2.123205084E1,3.141129255E0,-1.378529549E0,6.592568755E-1
2.124120324E1,3.088749170E0,-1.402657986E0,5.347967744E-1
2.125034292E1,2.996664047E0,-1.526201844E0,4.366030693E-1
2.125950808E1,2.857238054E0,-1.683953166E0,3.495573401E-1
2.126866048E1,2.704679012E0,-1.760919929E0,2.948864996E-1
2.127780016E1,2.595184565E0,-1.727934241E0,3.087832928E-1
2.128696532E1,2.570903301E0,-1.526965380E0,4.013266563E-1
2.129611777E1,2.640234470E0,-1.087460876E0,5.596888065E-1
2.130527016E1,2.756295443E0,-5.532749295E-1,7.450809479E-1
2.131442261E1,2.820129156E0,-4.169032723E-2,8.961129189E-1
2.132357501E1,2.775995255E0,4.503471553E-1,9.784246087E-1
2.133271469E1,2.659170866E0,8.105943203E-1,1.008356094E0
2.134187985E1,2.519744873E0,9.767447710E-1,1.002400398E0
2.135103225E1,2.387191057E0,9.817842841E-1,9.843803644E-1
2.136017193E1,2.278002024E0,8.586985469E-1,9.856020808E-1
2.136934380E1,2.178128719E0,6.406260729E-1,1.022252917E0
2.137849624E1,2.078560591E0,3.802524209E-1,1.047450304E0
2.138763588E1,1.991820216E0,9.132166207E-2,1.029277682E0
2.139680109E1,1.931346297E0,-2.301367074E-1,9.698727131E-1
2.140595348E1,1.880798697E0,-5.909947157E-1,8.890882134E-1
2.141510593E1,1.813910961E0,-9.187142849E-1,7.692093849E-1
2.142425833E1,1.721978426E0,-1.202605486E0,6.235223413E-1
2.143341072E1,1.606528282E0,-1.463131905E0,4.909684956E-1
2.144256317E1,1.489245653E0,-1.671583533E0,3.771981895E-1
2.145171557E1,1.368603230E0,-1.777565479E0,2.707580328E-1
2.146086802E1,1.238340139E0,-1.773442268E0,1.611109674E-1
2.147000765E1,1.085628271E0,-1.687312841E0,6.978929788E-2
2.147917286E1,8.985562921E-1,-1.548650503E0,1.817270555E-2
2.148832526E1,6.966713071E-1,-1.352568507E0,5.650337320E-3
2.149746494E1,5.045598149E-1,-1.119530320E0,7.788302377E-3
2.150663010E1,3.408527672E-1,-8.674030900E-1,8.857285604E-3
2.151578255E1,2.040229887E-1,-5.873296261E-1,6.566607859E-3
2.152493494E1,8.108997345E-2,-2.628170252E-1,3.512371797E-3
2.153408734E1,-3.527642787E-2,6.368082762E-2,8.551862091E-3
2.154323979E1,-1.493521482E-1,3.275668323E-1,4.123219103E-2
2.155239218E1,-2.641914487E-1,4.668400288E-1,9.697200358E-2
2.156154463E1,-3.805578351E-1,4.341596961E-1,1.395785958E-1
2.157069702E1,-5.041016936E-1,3.194731176E-1,1.418692768E-1
2.157984947E1,-6.363501549E-1,2.322746664E-1,1.079672500E-1
2.158900187E1,-7.600467205E-1,2.206685692E-1,7.055285573E-2
2.159815432E1,-8.629744649E-1,2.473931462E-1,3.863608837E-2
2.160730671E1,-9.486457705E-1,2.544178963E-1,1.664558798E-2
2.161645911E1,-1.033400893E0,2.199050188E-1,1.679829881E-2
2.162561156E1,-1.159846187E0,1.505738497E-1,4.703523964E-2
2.163475124E1,-1.312405348E0,8.353336155E-2,8.078455180E-2
2.164391640E1,-1.452900171E0,2.137965336E-2,8.842013776E-2
2.165306880E1,-1.531546831E0,8.903098851E-2,3.588727489E-2
2.166222124E1,-1.418081880E0,4.865398407E-1,-9.239064902E-2
2.167137364E1,-1.072800517E0,1.043785214E0,-2.767138183E-1
2.168052609E1,-7.481352091E-1,1.149614573E0,-4.552339315E-1
2.168966572E1,-7.267554998E-1,3.235963285E-1,-5.760289431E-1
2.169883093E1,-1.103190184E0,-7.304205894E-1,-6.102364063E-1
2.170798333E1,-1.654937983E0,-6.164975762E-1,-5.146388412E-1
2.171712302E1,-1.779092669E0,6.693359017E-1,-2.122694254E-1
2.172628817E1,-1.593089700E0,1.855448604E0,2.509055138E-1
2.173544062E1,-1.738013148E0,2.252499342E0,6.215370893E-1
2.174458026E1,-1.976549029E0,1.737096906E0,6.557445526E-1
2.175374546E1,-1.602099657E0,9.350544214E-1,5.227325559E-1
2.176289786E1,-1.063485026E0,4.353813827E-1,4.010212123E-1
2.177203755E1,-9.892671108E-1,2.041756958E-1,2.643441558E-1
2.178120270E1,-1.264912009E0,1.206423342E-1,1.574458778E-1
2.179035510E1,-1.441752195E0,6.368082762E-2,1.330119967E-1
2.179949479E1,-1.356080890E0,-2.295258641E-1,1.606528312E-1
2.180865994E1,-1.208866715E0,-6.594096422E-1,2.090624720E-1
2.181781239E1,-1.176491857E0,-9.243646264E-1,2.522799075E-1
2.182696479E1,-1.170994163E0,-1.004996419E0,2.657185495E-1
2.183611723E1,-1.100288630E0,-9.640696645E-1,2.260134816E-1
2.184526963E1,-1.011410356E0,-8.570187092E-1,1.311794519E-1
2.185440932E1,-9.655967951E-1,-6.856760383E-1,6.872031838E-3
2.186357447E1,-9.802571535E-1,-4.408790171E-1,-1.131594554E-1
2.187272687E1,-1.012479305E0,-1.551551968E-1,-2.136438340E-1
2.188186656E1,-1.043327093E0,1.537808031E-1,-2.605263591E-1
2.189103171E1,-1.098914266E0,4.924955964E-1,-2.397575527E-1
2.190018416E1,-1.136481285E0,8.037222624E-1,-1.658450365E-1
2.190933661E1,-1.154043198E0,1.014922738E0,-5.986303091E-2
2.191848900E1,-1.172826767E0,1.117239594E0,5.421269313E-2
2.192764140E1,-1.159388065E0,1.094638348E0,1.397313178E-1
2.193678109E1,-1.122584581E0,1.028666735E0,1.852394342E-1
2.194594624E1,-1.086544514E0,9.208522439E-1,1.885990947E-1
2.195509869E1,-1.020420313E0,7.079719901E-1,1.362189353E-1
2.196425109E1,-9.750649333E-1,5.131117105E-1,5.161659420E-2
2.197340354E1,-9.663603902E-1,3.313846290E-1,-3.176405653E-2
2.198255593E1,-9.775083065E-1,1.611109674E-1,-1.110214889E-1
2.199170838E1,-1.002705812E0,1.096470803E-1,-1.698155403E-1
2.200086078E1,-1.033706307E0,1.461452097E-1,-2.104368806E-1
2.201001322E1,-1.049130201E0,1.627907902E-1,-2.415900975E-1
2.201916562E1,-1.041952729E0,2.018850148E-1,-2.629697323E-1
2.202831807E1,-1.053100705E0,2.773246467E-1,-2.698417902E-1
2.203747046E1,-1.091584086E0,3.729222417E-1,-2.684673667E-1
2.204662286E1,-1.111894727E0,5.056288242E-1,-2.551814318E-1
2.205577531E1,-1.110214949E0,6.497887969E-1,-2.276933193E-1
2.206492770E1,-1.087002754E0,7.427902818E-1,-2.026485801E-1
2.207408015E1,-1.034775257E0,8.272398710E-1,-2.035648525E-1
2.208323255E1,-9.891144037E-1,9.784246087E-1,-2.351761907E-1
2.209238499E1,-9.770501852E-1,1.098761559E0,-2.838912606E-1
2.210153739E1,-1.003011227E0,1.202758312E0,-3.513898849E-1
2.211068984E1,-1.024848938E0,1.337450027E0,-4.120164812E-1
2.211984223E1,-1.016449809E0,1.450609565E0,-4.468347728E-1
2.212899468E1,-1.030499339E0,1.446333647E0,-4.640912116E-1
2.213814708E1,-1.092347622E0,1.398534775E0,-4.761554301E-1
2.214729952E1,-1.170688748E0,1.424801230E0,-5.024218559E-1
2.215643916E1,-1.166565537E0,1.400520086E0,-5.383091569E-1
2.216560437E1,-1.018282413E0,1.284459114E0,-5.628957748E-1
2.217475676E1,-8.290724158E-1,1.157555580E0,-5.625903010E-1
2.218390921E1,-7.547017932E-1,1.107160687E0,-5.528167486E-1
2.219306161E1,-8.174663186E-1,1.084101200E0,-5.460974574E-1
2.220221406E1,-9.561286569E-1,1.010952234E0,-5.378510356E-1
2.221136645E1,-1.038898468E0,9.471186996E-1,-5.138752460E-1
2.222051885E1,-1.005149126E0,9.544488192E-1,-4.781406820E-1
2.222967130E1,-8.977927566E-1,9.349017143E-1,-4.506525695E-1
2.223882369E1,-8.243383765E-1,8.368607163E-1,-4.427115619E-1
2.224797614E1,-8.284615874E-1,6.861341596E-1,-4.566083252E-1
2.225712854E1,-8.754968047E-1,5.835118294E-1,-4.746283293E-1
2.226628098E1,-8.892409205E-1,5.286883116E-1,-4.789042473E-1
2.227543338E1,-8.686248064E-1,4.834856093E-1,-4.714213610E-1
2.228458583E1,-8.435800672E-1,4.437805414E-1,-4.627167881E-1
2.229373822E1,-8.280034661E-1,4.222481549E-1,-4.466820657E-1
2.230289067E1,-8.302941322E-1,4.066715539E-1,-4.417952895E-1
2.231204307E1,-8.202151656E-1,3.649812341E-1,-4.428642690E-1
2.232119552E1,-7.896727920E-1,3.264978528E-1,-4.347705245E-1
2.233034791E1,-7.580614686E-1,3.121429384E-1,-4.191939235E-1
2.233950036E1,-7.374453545E-1,3.338280320E-1,-4.111002088E-1
2.234865276E1,-7.172874212E-1,4.340069890E-1,-4.184303582E-1
2.235780520E1,-6.772769094E-1,5.870242119E-1,-4.372139275E-1
2.236695760E1,-5.926745534E-1,6.436802745E-1,-4.463766217E-1
2.237609729E1,-4.427115619E-1,5.476245880E-1,-4.385883212E-1
2.238526244E1,-2.124221325E-1,3.533751369E-1,-4.141544402E-1
2.239441489E1,6.276455522E-2,9.910997003E-2,-3.694098890E-1
2.240356729E1,3.173351586E-1,-2.231119573E-1,-2.921377122E-1
2.241271973E1,5.286883116E-1,-5.334223509E-1,-1.995943487E-1
2.242187213E1,7.146912813E-1,-6.823163629E-1,-1.320957243E-1
2.243101182E1,9.136747718E-1,-6.077930331E-1,-1.191152185E-1
2.244017697E1,1.136939406E0,-3.304683566E-1,-1.537808031E-1
2.244932937E1,1.324927688E0,-1.588202827E-2,-2.223484069E-1
2.245848182E1,1.472905397E0,2.082989216E-1,-2.929012477E-1
2.246763421E1,1.674943209E0,9.529217333E-2,-3.109212518E-1
2.247678666E1,1.913326383E0,-4.294256270E-1,-1.983726472E-1
2.248592630E1,2.151556730E0,-1.156333804E0,9.452861547E-2
2.249509150E1,2.398491859E0,-1.730072141E0,4.660764635E-1
2.250424390E1,2.681924820E0,-1.978686929E0,7.322531343E-1
2.251339635E1,2.923820496E0,-1.900193095E0,8.034168482E-1
2.252254874E1,3.041866541E0,-1.701973200E0,7.363763452E-1
2.253170119E1,3.046447992E0,-1.607291818E0,6.123743653E-1
2.254084083E1,2.994678736E0,-1.553079128E0,4.952444136E-1
2.255000604E1,2.913435936E0,-1.520398855E0,3.982724249E-1
2.255915843E1,2.803330898E0,-1.566059709E0,3.113794029E-1
2.256829812E1,2.681008577E0,-1.581483603E0,2.512109280E-1
2.257746328E1,2.601903915E0,-1.539029717E0,2.231119573E-1
2.258661572E1,2.587243557E0,-1.422663212E0,2.321219593E-1
2.259576812E1,2.621450901E0,-1.206117868E0,2.933593988E-1
2.260492057E1,2.667264462E0,-7.992936373E-1,4.294256270E-1
2.261407296E1,2.690629482E0,-2.002051920E-1,6.235223413E-1
2.262321265E1,2.683451891E0,3.820849657E-1,8.263236284E-1
2.263237781E1,2.638554811E0,7.195780873E-1,9.894198179E-1
2.264153020E1,2.548913002E0,7.811209559E-1,1.072953224E0
2.265066989E1,2.443388939E0,6.694886088E-1,1.058292866E0
2.265983505E1,2.364131689E0,4.611896873E-1,9.810206890E-1
2.266898749E1,2.334047318E0,2.089097649E-1,8.985562921E-1
2.267812718E1,2.315874577E0,-1.542389300E-2,8.527427912E-1
2.268729234E1,2.280598164E0,-1.959292591E-1,8.122741580E-1
2.269644473E1,2.238449812E0,-3.527642787E-1,7.632536292E-1
2.270558442E1,2.213710546E0,-5.267030597E-1,6.997255087E-1
2.271474958E1,2.188665628E0,-7.211052179E-1,6.215370893E-1
2.272390202E1,2.137812614E0,-9.323056340E-1,5.499152541E-1
2.273305442E1,2.059471607E0,-1.171910524E0,4.926483035E-1
2.274220687E1,1.948297381E0,-1.324774981E0,4.138490260E-1
2.275135926E1,1.797570825E0,-1.369366884E0,3.077143133E-1
2.276051171E1,1.627602577E0,-1.341725945E0,2.137965411E-1
2.276966411E1,1.475654244E0,-1.277281642E0,1.331647038E-1
2.277881656E1,1.332105160E0,-1.177713513E0,7.589777559E-2
2.278795619E1,1.166870952E0,-1.025459886E0,6.673506647E-2
2.279712140E1,9.796462655E-1,-8.461761475E-1,8.536590636E-2
2.280627380E1,7.835643291E-1,-6.444438696E-1,1.131594554E-1
2.281542624E1,5.883986354E-1,-4.193466306E-1,1.372879148E-1
2.282457864E1,4.014793634E-1,-1.899735034E-1,1.522536725E-1
2.283374036E1,2.200577259E-1,3.802524135E-2,1.514901221E-1
2.284288348E1,4.764608666E-2,2.383831441E-1,1.385096163E-1
2.285203588E1,-1.004843712E-1,3.984251320E-1,1.317902952E-1
2.286118833E1,-1.915006191E-1,5.135698318E-1,1.519482583E-1
2.287034078E1,-2.330382317E-1,5.853443742E-1,2.003578991E-1
2.287949317E1,-2.730487287E-1,6.180247068E-1,2.654131353E-1
2.288864557E1,-3.495573401E-1,6.018372774E-1,3.254288733E-1
2.289779802E1,-4.607315361E-1,5.343386531E-1,3.643703759E-1
2.290695041E1,-5.818319917E-1,4.234698713E-1,3.872771561E-1
2.291610286E1,-6.890357137E-1,2.762556672E-1,4.019374847E-1
2.292525526E1,-8.058602214E-1,1.609582454E-1,4.078932703E-1
2.293440770E1,-9.495620728E-1,1.039967462E-1,4.033119082E-1
2.294356010E1,-1.115865231E0,3.451287001E-2,3.857500553E-1
2.295271255E1,-1.292094707E0,-1.009425074E-1,3.466558158E-1
2.296186494E1,-1.445111871E0,-2.466295809E-1,2.754921019E-1
2.297101739E1,-1.526354551E0,-2.942756712E-1,1.638597846E-1
2.298015702E1,-1.494285107E0,-1.519482583E-1,1.007897966E-2
2.298932223E1,-1.345085621E0,6.933116168E-2,-1.692046970E-1
2.299847463E1,-1.077839971E0,2.564031482E-1,-3.518480062E-1
2.300761432E1,-7.722636461E-1,3.425326049E-1,-5.005893111E-1
2.301677947E1,-6.282563806E-1,2.658712566E-1,-5.758762360E-1
2.302593192E1,-8.246437907E-1,5.436540768E-2,-4.860817194E-1
2.303507156E1,-1.165191174E0,-3.460449576E-1,-2.825168669E-1
2.304423676E1,-1.263079405E0,-4.097257853E-1,-4.123219103E-2
2.305338916E1,-1.174201131E0,4.888305068E-1,2.481566966E-1
2.306252885E1,-1.292552829E0,1.377002478E0,4.372139275E-1
2.307169400E1,-1.726712465E0,9.391776323E-1,3.819322586E-1
2.308084645E1,-1.677692056E0,3.952181637E-1,2.690782249E-1
2.308999885E1,-1.248266339E0,6.207735538E-1,2.628170252E-1
2.309915130E1,-1.198787689E0,8.722898960E-1,3.093941510E-1
2.310830369E1,-1.291178346E0,9.115368128E-1,3.697153032E-1
2.311744338E1,-1.256971002E0,6.375718117E-1,4.056025743E-1
2.312660854E1,-1.172979474E0,6.383354217E-2,3.883461356E-1
2.313576093E1,-1.114796281E0,-2.892361879E-1,3.797942698E-1
2.314491338E1,-1.136481285E0,-4.905103445E-1,3.877353072E-1
2.315406578E1,-1.136481285E0,-5.676298141E-1,3.859027624E-1
2.316321822E1,-1.054169655E0,-5.085303187E-1,3.523061574E-1
2.317237062E1,-9.770501852E-1,-4.188885093E-1,2.874036431E-1
2.318152307E1,-9.275715351E-1,-2.619007528E-1,2.076880634E-1
2.319067546E1,-9.060391784E-1,-9.391776472E-2,1.485885978E-1
2.319981515E1,-9.206995368E-1,4.153761268E-2,1.067455560E-1
2.320898031E1,-9.752176404E-1,2.322746664E-1,6.780404598E-2
2.321813276E1,-1.052031636E0,4.285093546E-1,3.909422457E-2
2.322728515E1,-1.115101695E0,5.917583108E-1,3.909422457E-2
2.323643760E1,-1.099677801E0,6.508577466E-1,5.558710173E-2
2.324558999E1,-1.052337170E0,6.070294380E-1,5.650337040E-2
2.325474244E1,-1.035538793E0,5.906893015E-1,2.626643144E-2
2.326389484E1,-1.050809979E0,5.355603099E-1,-3.069507517E-2
2.327304729E1,-1.046839476E0,3.959817290E-1,-1.044548824E-1
2.328219968E1,-1.016297102E0,3.277195692E-1,-1.774511337E-1
2.329135213E1,-9.797990322E-1,2.768665254E-1,-2.418955117E-1
2.330050452E1,-9.591829181E-1,2.681619525E-1,-2.967190444E-1
2.330965697E1,-9.955283403E-1,3.500154912E-1,-3.281776905E-1
2.331880937E1,-1.041800022E0,4.253024161E-1,-3.437542915E-1
2.332796182E1,-1.056765795E0,5.259394646E-1,-3.549022675E-1
2.333711421E1,-1.055696726E0,6.300889254E-1,-3.764346242E-1
2.334626666E1,-1.066691995E0,6.956022978E-1,-4.008685052E-1
2.335541906E1,-1.072189689E0,7.015580535E-1,-4.254551232E-1
2.336457145E1,-1.047450304E0,6.966713071E-1,-4.448495209E-1
2.337372390E1,-1.017976999E0,7.834116220E-1,-4.640912116E-1
2.338287635E1,-9.985825419E-1,9.118422270E-1,-4.726430774E-1
2.339202874E1,-9.973608851E-1,1.038440347E0,-4.569137394E-1
2.340118114E1,-1.015838981E0,1.153585076E0,-4.075878263E-1
2.341033359E1,-1.027750492E0,1.272700310E0,-3.344388604E-1
2.341948598E1,-9.909469485E-1,1.396549582E0,-2.635805905E-1
2.342863843E1,-9.174925685E-1,1.436560035E0,-2.165453583E-1
2.343779083E1,-8.571714163E-1,1.376544356E0,-1.966928244E-1
2.344694328E1,-8.086090684E-1,1.242768764E0,-1.956238300E-1
2.345609567E1,-7.524111271E-1,1.103648305E0,-2.005106062E-1
2.346524812E1,-6.965186000E-1,9.843803644E-1,-2.061609477E-1
2.347440052E1,-6.423059106E-1,8.554915786E-1,-2.166980654E-1
2.348355296E1,-5.795413256E-1,6.716265678E-1,-2.460187376E-1
2.349270536E1,-5.115845799E-1,4.654656053E-1,-2.997733057E-1
2.350184505E1,-4.918847680E-1,3.645231128E-1,-3.629959822E-1
2.351101020E1,-5.209000111E-1,4.559974670E-1,-4.213318825E-1
2.352016265E1,-5.370874405E-1,7.023216486E-1,-4.650074840E-1
2.352931505E1,-5.555655956E-1,9.220739603E-1,-4.873034060E-1
2.353846749E1,-5.738909841E-1,9.793408513E-1,-4.831801951E-1
2.354761989E1,-5.706840754E-1,9.445225596E-1,-4.526378214E-1
2.355677234E1,-5.630484819E-1,8.993198872E-1,-4.201101959E-1
2.356592473E1,-5.743491650E-1,8.524373770E-1,-4.030064642E-1
2.357507718E1,-5.937435627E-1,7.524111271E-1,-4.153761268E-1
2.358422958E1,-6.166502833E-1,6.455128193E-1,-4.599680007E-1
2.359338202E1,-6.377245188E-1,6.055023670E-1,-5.083776116E-1
2.360253442E1,-6.520794630E-1,5.799994469E-1,-5.541911721E-1
2.361168687E1,-6.400152445E-1,5.491516590E-1,-5.883986354E-1
2.362083926E1,-6.152759194E-1,4.931064546E-1,-6.033644080E-1
2.362999166E1,-6.039752364E-1,3.972034156E-1,-6.001574397E-1
2.363914411E1,-6.111527085E-1,2.918322682E-1,-5.916055441E-1
2.364829650E1,-6.314633489E-1,1.466033459E-1,-5.897729993E-1
2.365744895E1,-6.716265678E-1,1.511846948E-2,-5.913001299E-1
2.366660135E1,-6.948387623E-1,-5.497625098E-3,-5.894675851E-1
2.367575380E1,-6.997255087E-1,4.825693369E-2,-5.822901726E-1
2.368490619E1,-6.864396334E-1,1.543916464E-1,-5.731274486E-1
2.369405864E1,-6.569662094E-1,2.913741469E-1,-5.467082858E-1
2.370321104E1,-6.065713167E-1,4.320217371E-1,-4.976878166E-1
2.371236348E1,-5.280774832E-1,5.137225389E-1,-4.384356141E-1
2.372151593E1,-4.091149569E-1,4.906630516E-1,-3.936910629E-1
2.373066833E1,-2.362451702E-1,3.799470067E-1,-3.790307343E-1
2.373982072E1,-1.710372418E-2,2.188360244E-1,-3.938437700E-1
2.374897317E1,1.982199401E-1,5.696150661E-2,-4.196520746E-1
2.375812557E1,3.634541333E-1,-7.773031294E-2,-4.233171642E-1
2.376727802E1,4.618005157E-1,-1.491994411E-1,-3.749074936E-1
2.377643041E1,5.189147592E-1,-1.763821393E-1,-2.707580328E-1
2.378558286E1,5.601469278E-1,-2.234173864E-1,-1.214058921E-1
2.379473526E1,6.070294380E-1,-3.071034551E-1,3.481829539E-2
2.380388770E1,6.865923405E-1,-4.275930822E-1,1.575985998E-1
2.381304010E1,8.186880350E-1,-5.639647245E-1,2.185306102E-1
2.382219255E1,9.950701594E-1,-5.761816502E-1,2.276933193E-1
2.383134494E1,1.156486630E0,-4.946335554E-1,2.287622988E-1
2.384049739E1,1.310420036E0,-5.761816502E-1,2.909159958E-1
2.384964979E1,1.431215167E0,-8.470924497E-1,4.231644273E-1
2.385880223E1,1.530172348E0,-1.186112642E0,6.313106418E-1
2.386795463E1,1.615538239E0,-1.529256105E0,8.385405540E-1
2.387710708E1,1.771151662E0,-1.906912446E0,9.619317055E-1
2.388625947E1,2.029540062E0,-2.199355602E0,9.781191945E-1
2.389541192E1,2.310835123E0,-2.337712526E0,9.208522439E-1
2.390456432E1,2.509207726E0,-2.351609230E0,8.295305967E-1
2.391370401E1,2.613204479E0,-2.273573399E0,7.007945180E-1
2.392286916E1,2.653673172E0,-2.180724621E0,5.525113344E-1
2.393202161E1,2.632598877E0,-2.104063272E0,4.027010500E-1
2.394116124E1,2.554563284E0,-2.052446842E0,2.452551723E-1
2.395032645E1,2.436211586E0,-1.982657433E0,9.651386738E-2
2.395947885E1,2.305795670E0,-1.822310090E0,1.603474095E-2
2.396861854E1,2.224247694E0,-1.465117097E0,2.321219631E-2
2.397778369E1,2.219818830E0,-9.297095537E-1,9.605573118E-2
2.398693609E1,2.257844210E0,-3.289412558E-1,2.119639963E-1
2.399607578E1,2.313584089E0,1.928750277E-1,3.518480062E-1
2.400524093E1,2.376348495E0,5.551074743E-1,4.898995161E-1
2.401439338E1,2.415442705E0,8.298360109E-1,6.103891134E-1
2.402353307E1,2.393299580E0,1.055544019E0,7.010999322E-1
2.403269822E1,2.308238983E0,1.171910524E0,7.620319724E-1
2.404185062E1,2.189582109E0,1.124264359E0,8.015843034E-1
2.405099031E1,2.080087662E0,9.463551044E-1,8.069292307E-1
2.406015546E1,1.992736459E0,7.353073955E-1,7.968502641E-1
2.406930791E1,1.944174170E0,5.044071078E-1,7.934905887E-1
2.407844760E1,1.937302113E0,2.287622988E-1,7.760814428E-1
2.408761276E1,1.927833915E0,-6.123743951E-2,7.211052179E-1
2.409676515E1,1.889503241E0,-3.490992188E-1,6.209262609E-1
2.410591760E1,1.833916187E0,-6.287145615E-1,4.979932308E-1
2.411506999E1,1.767028451E0,-8.774821162E-1,3.724641204E-1
2.412422244E1,1.678761005E0,-1.150530815E0,2.560977042E-1
2.413337484E1,1.582094431E0,-1.395633221E0,1.530172378E-1
2.414252729E1,1.451525807E0,-1.585454106E0,6.612421572E-2
2.415167968E1,1.301257372E0,-1.641346574E0,1.191152167E-2
2.416083213E1,1.195122719E0,-1.607902646E0,-2.733541466E-2
2.416998452E1,1.111283898E0,-1.519024372E0,-5.787777901E-2
2.417913697E1,1.036455035E0,-1.426939249E0,-7.314895838E-2
2.418827661E1,9.492566586E-1,-1.452442050E0,-7.498150319E-2
2.419744182E1,8.194515705E-1,-1.489398360E0,-6.368082762E-2
2.420659421E1,6.771242023E-1,-1.416096687E0,-5.314370990E-2
2.421573390E1,5.335750580E-1,-1.226428628E0,-6.154286116E-2
2.422489906E1,3.935383558E-1,-9.260444641E-1,-8.231166750E-2
2.423405150E1,2.625116110E-1,-5.847335458E-1,-1.055238619E-1
2.424320390E1,1.455343664E-1,-2.625116110E-1,-1.017060652E-1
2.425235635E1,4.153761268E-2,4.016320780E-2,-4.031591862E-2
2.426150874E1,-5.512896553E-2,2.573194206E-1,6.505523622E-2
2.427066119E1,-1.910424829E-1,3.982724249E-1,1.397313178E-1
2.427981359E1,-3.484883606E-1,5.519005060E-1,1.629435122E-1
2.428896604E1,-4.979932308E-1,6.661289334E-1,1.569877416E-1
2.429810567E1,-6.219952106E-1,6.774296165E-1,1.505738497E-1
2.430727088E1,-7.188144922E-1,6.157340407E-1,1.554606259E-1
2.431642328E1,-7.881456614E-1,5.048652887E-1,1.714953631E-1
2.432557572E1,-7.971556783E-1,3.312319219E-1,1.837123185E-1
2.433472812E1,-7.101099491E-1,1.843231618E-1,1.673721522E-1
2.434388057E1,-5.538857579E-1,1.788255423E-1,1.081199646E-1
2.435302020E1,-4.222481549E-1,3.811686933E-1,1.847812906E-2
2.436218541E1,-4.318690002E-1,6.189410090E-1,-6.902574003E-2
2.437133781E1,-5.905365944E-1,6.201626658E-1,-1.777565479E-1
2.438047749E1,-9.162709117E-1,5.769452453E-1,-3.014531136E-1
2.438964265E1,-1.563768983E0,6.670452356E-1,-4.117110670E-1
2.439879510E1,-2.360466480E0,8.567132950E-1,-4.468347728E-1
2.440793473E1,-2.459576607E0,1.308434844E0,-2.738122940E-1
2.441709989E1,-1.901720285E0,2.092609882E0,1.294996142E-1
2.442625234E1,-1.478555799E0,2.593504667E0,4.990622103E-1
2.443539203E1,-1.409530044E0,2.386885643E0,6.158867478E-1
2.444455718E1,-1.429840684E0,1.599503517E0,5.306735635E-1
2.445370958E1,-1.307976723E0,5.395308137E-1,3.083251417E-1
2.446284927E1,-1.245823026E0,-2.310529798E-1,3.130592033E-2
2.447201442E1,-1.265522838E0,-5.697677732E-1,-1.382041872E-1
2.448116687E1,-1.217113137E0,-7.456917763E-1,-1.444653720E-1
2.449030656E1,-1.130983710E0,-9.060391784E-1,-5.207473040E-2
2.449947171E1,-1.039814711E0,-9.620844126E-1,7.559234649E-2
2.450862416E1,-9.999569654E-1,-7.867712975E-1,2.063136548E-1
2.451776380E1,-1.093569279E0,-4.943281412E-1,2.983988822E-1
2.452692895E1,-1.211920977E0,-2.269297540E-1,3.155026138E-1
2.453608140E1,-1.256512761E0,4.214845970E-2,2.619007528E-1
2.454523380E1,-1.226581335E0,1.805053651E-1,1.618745178E-1
2.455438624E1,-1.191304922E0,2.872509360E-1,3.878879920E-2
2.456353864E1,-1.182752967E0,3.477247953E-1,-6.749862432E-2
2.457267833E1,-1.169925213E0,3.915531039E-1,-1.235438585E-1
2.458184348E1,-1.155875683E0,4.729484916E-1,-1.186570823E-1
2.459099593E1,-1.123806238E0,5.160132051E-1,-5.986303091E-2
2.460014833E1,-1.091584086E0,5.164713860E-1,1.969982497E-2
2.460930078E1,-1.075702071E0,4.306473136E-1,9.009996802E-2
2.461845317E1,-1.056460381E0,2.739650011E-1,1.221694499E-1
2.462760562E1,-1.018282413E0,1.353026628E-1,1.090362370E-1
2.463675802E1,-9.717052579E-1,4.123219103E-2,5.818320066E-2
2.464591046E1,-9.199360013E-1,2.229592577E-2,-2.809897438E-2
2.465506286E1,-9.039012194E-1,6.230641901E-2,-1.269035190E-1
2.466421531E1,-9.382613897E-1,8.780929446E-2,-2.096733153E-1
2.467336770E1,-9.669712186E-1,1.539335102E-1,-2.588465214E-1
2.468252015E1,-9.851438999E-1,2.683146596E-1,-2.706053257E-1
2.469167255E1,-1.015838981E0,3.744493723E-1,-2.470877171E-1
2.470082499E1,-1.048672080E0,4.547757804E-1,-2.144073844E-1
2.470997739E1,-1.067913771E0,5.228852630E-1,-1.785201132E-1
2.471912984E1,-1.062721491E0,5.477772951E-1,-1.375933439E-1
2.472828223E1,-1.039814711E0,5.853443742E-1,-8.979454637E-2
2.473743468E1,-1.009272337E0,5.789304972E-1,-4.382828996E-2
2.474658708E1,-9.492566586E-1,5.538857579E-1,-2.809897438E-2
2.475573953E1,-8.585458398E-1,5.526640415E-1,-6.352811307E-2
2.476489192E1,-8.046385646E-1,5.572454333E-1,-1.253764033E-1
2.477404437E1,-8.232693672E-1,5.951179266E-1,-1.774511337E-1
2.478319677E1,-8.617527485E-1,6.490252018E-1,-2.162399292E-1
2.479234921E1,-8.887827396E-1,7.116370797E-1,-2.476985604E-1
2.480150161E1,-8.912261724E-1,7.963921428E-1,-2.849602401E-1
2.481065406E1,-8.521319032E-1,8.655705452E-1,-3.312319219E-1
2.481980645E1,-8.310576677E-1,9.419264793E-1,-3.762819171E-1
2.482895890E1,-8.768712282E-1,1.046075940E0,-4.071297050E-1
2.483811130E1,-9.199360013E-1,1.129609346E0,-4.314108789E-1
2.484726374E1,-9.193251133E-1,1.203674555E0,-4.436278343E-1
2.485641614E1,-8.886300325E-1,1.272394896E0,-4.459185004E-1
2.486556859E1,-8.564078808E-1,1.252084136E0,-4.372139275E-1
2.487472098E1,-8.058602214E-1,1.172521353E0,-4.257605374E-1
2.488387343E1,-7.490514517E-1,1.104564548E0,-4.185830951E-1
2.489302583E1,-7.377507687E-1,1.008814216E0,-4.220954478E-1
2.490217828E1,-7.640172243E-1,9.147437811E-1,-4.202629030E-1
2.491133067E1,-7.647807598E-1,8.437327743E-1,-4.104893506E-1
2.492048312E1,-7.466080785E-1,8.087617755E-1,-4.048390090E-1
2.492963552E1,-7.371399403E-1,7.954758406E-1,-4.138490260E-1
2.493878796E1,-7.356128097E-1,7.756233215E-1,-4.303418994E-1
2.494794036E1,-7.440119386E-1,7.441646457E-1,-4.425588250E-1
2.495709281E1,-7.453863621E-1,6.290199757E-1,-4.523324072E-1
2.496624520E1,-7.137750387E-1,4.741701782E-1,-4.563029110E-1
2.497539765E1,-7.012526393E-1,3.759764731E-1,-4.579827189E-1
2.498455005E1,-7.414158583E-1,3.287885487E-1,-4.760027230E-1
2.499370249E1,-8.079982400E-1,3.448232710E-1,-5.062396526E-1
2.500285489E1,-8.641961813E-1,3.771981895E-1,-5.361711979E-1
2.501200734E1,-8.932114244E-1,3.811686933E-1,-5.563291311E-1
2.502115973E1,-8.832851648E-1,3.144336343E-1,-5.636593103E-1
2.503031218E1,-8.611419201E-1,2.475458533E-1,-5.567872524E-1
2.503946458E1,-8.394568563E-1,1.481304616E-1,-5.460974574E-1
2.504861703E1,-8.046385646E-1,5.421269313E-2,-5.360184908E-1
2.505776942E1,-7.490514517E-1,2.733541466E-2,-5.068505406E-1
2.506692187E1,-6.980457306E-1,2.580829710E-2,-4.588989913E-1
2.507607427E1,-6.600204706E-1,9.162709117E-3,-4.129327536E-1
2.508522671E1,-5.981721878E-1,-1.160609815E-2,-3.830012381E-1
2.509437911E1,-4.955498278E-1,8.246438205E-2,-3.628432751E-1
2.510353156E1,-3.399364948E-1,3.112266660E-1,-3.350497186E-1
2.511268395E1,-1.351499557E-1,5.493044257E-1,-2.922904193E-1
2.512182364E1,1.336228400E-1,6.591041684E-1,-2.165453583E-1
2.513098880E1,4.518742561E-1,5.858024955E-1,-1.220167428E-1
2.514014124E1,7.789829373E-1,3.582619131E-1,-4.321744293E-2
2.514929364E1,1.060278177E0,3.222219273E-2,9.620844387E-3
2.515844609E1,1.265370131E0,-3.107685447E-1,4.978405312E-2
2.516759848E1,1.384638071E0,-5.749599934E-1,8.933641016E-2
2.517673817E1,1.419456363E0,-6.994200945E-1,1.336228400E-1
2.518590333E1,1.392731786E0,-6.902574301E-1,1.754658818E-1
2.519505578E1,1.327218413E0,-6.197045445E-1,2.086043358E-1
2.520420817E1,1.234216928E0,-5.059342384E-1,2.322746664E-1
2.521336062E1,1.204438090E0,-3.509317636E-1,2.661767006E-1
2.522251302E1,1.267355323E0,-2.493783981E-1,3.228327632E-1
2.523165270E1,1.381278396E0,-2.767138183E-1,4.052971601E-1
2.524081786E1,1.495506763E0,-4.845545888E-1,5.161659122E-1
2.524997031E1,1.591409802E0,-8.009734750E-1,6.265766025E-1
2.525910994E1,1.701056957E0,-1.171604991E0,7.130114436E-1
2.526827515E1,1.856059432E0,-1.574916959E0,7.676823139E-1
2.527742755E1,2.055959225E0,-1.890725017E0,7.905890942E-1
2.528656723E1,2.261356592E0,-2.032747030E0,7.670714259E-1
2.529573239E1,2.396506548E0,-2.010603666E0,6.873558760E-1
2.530488484E1,2.444916248E0,-1.938523769E0,5.876350403E-1
2.531402447E1,2.442472696E0,-1.896222591E0,4.818057716E-1
2.532318968E1,2.430255890E0,-1.834679723E0,3.413109183E-1
2.533234208E1,2.428117752E0,-1.680440784E0,2.049392611E-1
2.534148176E1,2.408417940E0,-1.510167122E0,1.327065676E-1
2.535064692E1,2.339239597E0,-1.277587056E0,1.374406368E-1
2.535979937E1,2.248834133E0,-9.768974781E-1,1.884463727E-1
2.536895177E1,2.129871607E0,-6.725428104E-1,2.754921019E-1
2.537810421E1,1.992278337E0,-3.660502136E-1,4.127800465E-1
2.538725661E1,1.886449099E0,-1.082726792E-1,5.596888065E-1
2.539640906E1,1.837581277E0,8.780929446E-2,6.429167390E-1
2.540556145E1,1.848423839E0,2.414373755E-1,6.545228362E-1
2.541471390E1,1.902636528E0,3.216110766E-1,6.297835112E-1
2.542386630E1,1.947228312E0,3.119902313E-1,6.068767309E-1
2.543301874E1,1.944021344E0,2.541124523E-1,5.983248949E-1
2.544217114E1,1.898360610E0,1.937913001E-1,6.053496599E-1
2.545131083E1,1.831014633E0,1.375933439E-1,6.146650314E-1
2.546047598E1,1.746412277E0,8.567132801E-2,6.158867478E-1
2.546962843E1,1.652799964E0,1.863084175E-2,6.073349118E-1
2.547876807E1,1.564227104E0,-1.443126649E-1,5.952706337E-1
2.548793328E1,1.498713732E0,-3.946073353E-1,5.590779781E-1
2.549708567E1,1.469393134E0,-6.755970716E-1,4.947862923E-1
2.550623812E1,1.469851255E0,-9.581139088E-1,4.089622498E-1
2.551539052E1,1.474127173E0,-1.185501814E0,3.223746419E-1
2.552454296E1,1.463437319E0,-1.331647038E0,2.480039895E-1
2.553369536E1,1.426939249E0,-1.440988660E0,1.896680743E-1
2.554284781E1,1.365396380E0,-1.499782681E0,1.508792788E-1
2.555200020E1,1.293469071E0,-1.505280375E0,1.296523362E-1
2.556113989E1,1.207186937E0,-1.443432093E0,1.265980899E-1
2.557030505E1,1.084712029E0,-1.324927688E0,1.334701329E-1
2.557945749E1,9.289459586E-1,-1.150836229E0,1.426328421E-1
2.558860989E1,7.650861740E-1,-9.373451471E-1,1.426328421E-1
2.559776234E1,6.117635369E-1,-7.459971905E-1,1.218640283E-1
2.560691473E1,4.903576374E-1,-5.847335458E-1,8.658760041E-2
2.561606718E1,3.973561525E-1,-4.454603493E-1,3.771981969E-2
2.562521958E1,3.009949923E-1,-3.287885487E-1,-1.068982668E-2
2.563437202E1,1.800472289E-1,-2.116585821E-1,-4.642439261E-2
2.564352442E1,3.771981969E-2,-6.795676053E-2,-7.498150319E-2
2.565267687E1,-1.163664013E-1,8.719844371E-2,-1.055238619E-1
2.566182926E1,-2.576248348E-1,2.464768738E-1,-1.427855492E-1
2.567098171E1,-3.697153032E-1,4.046863019E-1,-1.771457046E-1
2.568013411E1,-4.637857676E-1,5.166240931E-1,-1.925695986E-1
2.568928656E1,-5.644228458E-1,5.364766121E-1,-1.762294322E-1
2.569843895E1,-6.710157394E-1,5.050179958E-1,-1.275143623E-1
2.570759140E1,-7.824953198E-1,4.630222321E-1,-6.108472496E-2
2.571674380E1,-8.948912621E-1,3.822376728E-1,1.695101149E-2
2.572589624E1,-9.969027042E-1,2.263189107E-1,9.941539168E-2
2.573504864E1,-1.092805743E0,3.298575059E-2,1.751604527E-1
2.574420109E1,-1.202911019E0,-1.646233350E-1,2.356343269E-1
2.575335348E1,-1.333937645E0,-3.484883606E-1,2.609844804E-1
2.576250593E1,-1.471378326E0,-4.908157587E-1,2.583884001E-1
2.577165833E1,-1.592173338E0,-5.334223509E-1,2.295258641E-1
2.578079802E1,-1.635543585E0,-4.825693369E-1,1.582094431E-1
2.578996317E1,-1.411362648E0,-4.585935771E-1,1.450762246E-2
2.579911562E1,-7.667660117E-1,-2.983988822E-1,-1.362189353E-1
2.580825531E1,-8.429691941E-2,-9.620844387E-3,-2.267770469E-1
2.581742046E1,-4.306473210E-2,4.550812021E-2,-3.199312389E-1
2.582657286E1,-3.698680103E-1,3.090887070E-1,-4.023956358E-1
2.583571255E1,-1.017518878E0,9.400939345E-1,-4.489727318E-1
2.584487770E1,-2.009992838E0,6.459710002E-1,-3.752129376E-1
2.585403015E1,-2.149266005E0,4.532486796E-1,-1.488940120E-1
2.586316984E1,-1.408155680E0,1.174048424E0,2.130329758E-1
2.587233499E1,-1.141520858E0,1.969982386E0,5.282301903E-1
2.588148744E1,-1.555827975E0,2.088181257E0,5.821374655E-1
2.589062708E1,-1.828571320E0,1.956085682E0,4.952444136E-1
2.589979229E1,-1.593700528E0,1.785506487E0,3.816268146E-1
2.590894468E1,-1.293621778E0,1.519635320E0,2.325800955E-1
2.591808437E1,-1.231009960E0,9.428427219E-1,3.313846514E-2
2.592724952E1,-1.346460104E0,1.536280811E-1,-1.624853760E-1
2.593640197E1,-1.371657491E0,-5.520532131E-1,-3.161134422E-1
2.594554161E1,-1.237729311E0,-8.996253014E-1,-3.655920923E-1
2.595470682E1,-1.135870457E0,-1.000567794E0,-3.239017725E-1
2.596385921E1,-1.134190679E0,-1.013395548E0,-2.341072112E-1
2.597299890E1,-1.139688253E0,-9.443698525E-1,-1.302631795E-1
2.598216406E1,-1.118919492E0,-7.481352091E-1,-3.512371704E-2
2.599131650E1,-1.136786699E0,-3.603998721E-1,2.489202656E-2
2.600046890E1,-1.203827262E0,3.771981969E-2,4.306473210E-2
2.600962135E1,-1.226886749E0,3.492519259E-1,2.809897438E-2
2.601877374E1,-1.209019423E0,6.505523324E-1,-5.650337320E-3
2.602792619E1,-1.192373872E0,8.571714163E-1,-3.191677108E-2
2.603707859E1,-1.183974743E0,9.594883323E-1,-4.352286831E-2
2.604623104E1,-1.167939901E0,1.030652046E0,-4.398100078E-2
2.605538343E1,-1.134648800E0,1.095096469E0,-4.443913698E-2
2.606453588E1,-1.101662993E0,1.134954214E0,-5.650337040E-2
2.607368828E1,-1.090667725E0,1.153585076E0,-7.101099193E-2
2.608284072E1,-1.088682532E0,1.145796776E0,-8.200624585E-2
2.609199312E1,-1.077534556E0,1.083032131E0,-8.872556686E-2
2.610114557E1,-1.064095974E0,1.015533566E0,-9.452861547E-2
2.611029796E1,-1.059361815E0,9.764393568E-1,-9.880454093E-2
2.611945041E1,-1.054016948E0,9.294040799E-1,-1.018587798E-1
2.612860281E1,-1.050962687E0,8.690829277E-1,-1.084253863E-1
2.613775526E1,-1.038287640E0,8.293778896E-1,-1.192679256E-1
2.614690765E1,-1.033553600E0,7.919634581E-1,-1.314848661E-1
2.615606010E1,-1.057834744E0,7.539382577E-1,-1.462979168E-1
2.616521249E1,-1.091584086E0,7.380561829E-1,-1.568350345E-1
2.617436494E1,-1.098914266E0,7.380561829E-1,-1.537808031E-1
2.618351734E1,-1.094638348E0,7.345438004E-1,-1.403421611E-1
2.619266979E1,-1.089446068E0,7.003363967E-1,-1.226275861E-1
2.620182218E1,-1.088071704E0,6.111527085E-1,-1.183516532E-1
2.621097463E1,-1.099219680E0,4.845545888E-1,-1.285833418E-1
2.622012702E1,-1.125944257E0,3.831539452E-1,-1.458397806E-1
2.622927947E1,-1.139993668E0,3.594835997E-1,-1.588202864E-1
2.623843187E1,-1.119683027E0,3.631486893E-1,-1.525591016E-1
2.624758432E1,-1.083184958E0,3.477247953E-1,-1.339282542E-1
2.625673677E1,-1.043327093E0,2.977880239E-1,-1.226275861E-1
2.626588916E1,-1.001025915E0,1.863084137E-1,-1.278197914E-1
2.627504156E1,-9.753703475E-1,6.398624927E-2,-1.317902952E-1
2.628419401E1,-9.704836011E-1,1.527118147E-4,-1.346918195E-1
2.629334645E1,-9.665130973E-1,-2.092151903E-2,-1.450762302E-1
2.630249885E1,-9.491039515E-1,-1.863084175E-2,-1.663031727E-1
2.631165130E1,-9.138274789E-1,-3.619270027E-2,-1.930277348E-1
2.632080369E1,-8.788564801E-1,-7.543963939E-2,-2.147128135E-1
2.632995614E1,-8.554915786E-1,-1.356080920E-1,-2.315111160E-1
2.633910854E1,-8.478559852E-1,-1.568350345E-1,-2.490729690E-1
2.634826098E1,-8.437327743E-1,-1.218640283E-1,-2.606790662E-1
2.635741338E1,-8.338065147E-1,-5.803048983E-2,-2.570139766E-1
2.636656583E1,-8.273926377E-1,-3.206948191E-2,-2.331909388E-1
2.637571822E1,-8.124268651E-1,-5.405998230E-2,-2.038702667E-1
2.638487067E1,-7.977665067E-1,-6.673506647E-2,-1.878355294E-1
2.639402307E1,-7.737907767E-1,-4.077405483E-2,-2.029540092E-1
2.640317552E1,-7.128587365E-1,-1.313321572E-2,-2.385358512E-1
2.641232791E1,-6.265766025E-1,4.275931045E-3,-2.739650011E-1
2.642148036E1,-5.737382770E-1,2.367033064E-2,-2.858765125E-1
2.643063276E1,-5.557183027E-1,7.375980914E-2,-2.680092454E-1
2.643978520E1,-5.302154422E-1,1.612636745E-1,-2.325800955E-1
2.644893760E1,-4.813476503E-1,2.609844804E-1,-1.913478971E-1
2.645809005E1,-4.317162931E-1,3.625378609E-1,-1.543916464E-1
2.646724244E1,-4.004103839E-1,4.355340898E-1,-1.304158866E-1
2.647639489E1,-3.915531039E-1,4.592044353E-1,-1.175880954E-1
2.648554729E1,-3.807105422E-1,4.242334068E-1,-1.033858955E-1
2.649469973E1,-3.541387022E-1,3.350497186E-1,-8.612946421E-2
2.650385213E1,-3.078670204E-1,2.418955117E-1,-5.879404768E-2
2.651300458E1,-2.475458533E-1,1.704263836E-1,-2.535016090E-2
2.652215697E1,-1.956238300E-1,1.380514801E-1,1.832541777E-3
2.653130942E1,-1.719534993E-1,1.140757278E-1,1.740914769E-2
2.654046182E1,-1.669140160E-1,9.605573118E-2,1.679829881E-2
2.654961427E1,-1.675248593E-1,1.061347127E-1,6.413896102E-3
2.655876666E1,-2.072299272E-1,1.391204596E-1,-9.162709117E-3
2.656791911E1,-2.774773538E-1,2.150182426E-1,-2.305948362E-2
2.657707151E1,-3.396310806E-1,3.329117596E-1,-2.916795574E-2
2.658622395E1,-3.655920923E-1,4.167505503E-1,-3.542914242E-2
2.659537635E1,-3.617742956E-1,4.112529159E-1,-4.275930673E-2
2.660451604E1,-3.620797098E-1,3.100049794E-1,-5.008947477E-2
2.661368119E1,-3.840702176E-1,1.519482583E-1,-5.008947477E-2
2.662283364E1,-4.089622498E-1,2.305948362E-2,-4.596625641E-2
2.663198609E1,-4.306473136E-1,-3.298575059E-2,-4.535540938E-2
2.664113848E1,-4.530959427E-1,-5.299099907E-2,-6.139015034E-2
2.665029093E1,-4.810422063E-1,-8.215895295E-2,-8.964183182E-2
2.665944333E1,-5.059342384E-1,-1.267508119E-1,-1.148392856E-1
2.666859578E1,-5.115845799E-1,-1.630962193E-1,-1.258345395E-1
2.667774817E1,-4.981459379E-1,-1.707318127E-1,-1.227803007E-1
2.668690062E1,-4.750864506E-1,-1.327065676E-1,-1.085781008E-1
2.669605302E1,-4.592044353E-1,-5.971032009E-2,-8.154810965E-2
2.670520546E1,-4.436278343E-1,5.070032179E-2,-5.833591148E-2
2.671435786E1,-4.278984964E-1,1.574458778E-1,-4.184303805E-2
2.672351031E1,-4.220954478E-1,2.568612695E-1,-3.390202299E-2
2.673266270E1,-4.162923992E-1,3.665083647E-1,-3.451287001E-2
2.674181515E1,-4.056025743E-1,4.799732268E-1,-3.405473381E-2
2.675096755E1,-3.830012381E-1,5.757235289E-1,-3.145863488E-2
2.676011999E1,-3.455868363E-1,6.716265678E-1,-2.825168520E-2
2.676927239E1,-2.951919436E-1,7.476770282E-1,-2.489202656E-2
2.677842484E1,-2.328855246E-1,7.453863621E-1,-2.504473738E-2
2.678757723E1,-1.637070626E-1,6.610894203E-1,-3.054236248E-2
2.679672968E1,-9.743013978E-2,5.575508475E-1,-3.130592033E-2
2.680588208E1,-4.688252881E-2,4.781406820E-1,-3.023693897E-2
2.681503452E1,-2.168507688E-2,4.227063060E-1,-2.397575416E-2
2.682418692E1,-2.092151903E-2,3.914003670E-1,-1.404948719E-2
2.683333937E1,-4.230117425E-2,3.607053161E-1,-7.482878864E-3
2.684249177E1,-6.704048812E-2,3.165715933E-1,-8.857285604E-3
2.685164421E1,-7.956285775E-2,2.586938143E-1,-1.496575773E-2
2.686079666E1,-7.085828483E-2,1.911951900E-1,-2.779355086E-2
2.686994906E1,-4.627167806E-2,1.357607991E-1,-4.596625641E-2
2.687910150E1,-1.511846948E-2,1.014006436E-1,-5.971032009E-2
2.688825390E1,1.481304597E-2,7.971556485E-2,-6.429167092E-2
2.689740635E1,3.283303976E-2,4.474456236E-2,-5.803048983E-2
2.690655874E1,3.268032894E-2,-2.137965523E-3,-4.642439261E-2
2.691571119E1,1.496575773E-2,-3.161134571E-2,-3.497100621E-2
2.692486359E1,-9.620844387E-3,-4.062134400E-2,-2.657185495E-2
2.693401604E1,-3.161134571E-2,-6.184828654E-2,-2.183778957E-2
2.694316843E1,-4.779879749E-2,-1.076618284E-1,-2.244863659E-2
2.695232088E1,-5.344913527E-2,-1.806580722E-1,-2.367033064E-2
2.696147328E1,-4.245388508E-2,-2.383831441E-1,-2.061609551E-2
2.697062572E1,-1.221694518E-2,-2.443388999E-1,-7.482878864E-3
2.697977812E1,2.870982140E-2,-2.147128135E-1,1.053711493E-2
2.698893057E1,5.482354015E-2,-1.718007922E-1,2.412846684E-2
2.699808296E1,5.757235363E-2,-1.325538605E-1,2.962609194E-2
2.700723541E1,5.161659420E-2,-8.979454637E-2,3.130592033E-2
2.701638781E1,4.245388508E-2,-2.779355086E-2,3.237490356E-2
2.702554026E1,3.558185324E-2,4.337015375E-2,3.176405653E-2
2.703469265E1,2.565558441E-2,1.198787764E-1,2.855710872E-2
2.704384510E1,4.123218823E-3,1.921114624E-1,1.725643501E-2
2.705299749E1,-2.199050039E-2,2.402156889E-1,2.443389036E-3
2.706214994E1,-3.374931216E-2,2.455606014E-1,-1.099525020E-2
2.707130239E1,-3.527642787E-2,2.099787444E-1,-2.076880634E-2
2.708045479E1,-3.176405653E-2,1.672194302E-1,-2.565558441E-2
2.708960723E1,-3.084778599E-2,1.346918195E-1,-2.443389036E-2
2.709875963E1,-3.802524135E-2,1.044548824E-1,-1.893626526E-2
2.710791208E1,-5.635065958E-2,7.910472155E-2,-1.847812906E-2
2.711706447E1,-8.444963396E-2,5.375456065E-2,-3.084778599E-2
2.712621692E1,-1.050657257E-1,2.412846684E-2,-4.550812021E-2
2.713536932E1,-1.104106456E-1,4.886778072E-3,-5.283828825E-2
2.714452176E1,-1.065928489E-1,-7.177455351E-3,-6.139015034E-2
2.715367416E1,-9.895725548E-2,-2.351761982E-2,-7.116370648E-2
2.716282661E1,-9.987352788E-2,-6.276455522E-2,-8.093725890E-2
2.717197900E1,-1.053711548E-1,-1.169772521E-1,-8.887827396E-2
2.718113145E1,-1.050657257E-1,-1.652341783E-1,-8.628217876E-2
2.719028385E1,-9.132166207E-2,-1.934858710E-1,-7.162184268E-2
2.719943630E1,-5.741964281E-2,-1.998997629E-1,-5.543438718E-2
2.720858869E1,-1.679829881E-2,-1.925695986E-1,-3.817795217E-2
2.721774114E1,1.374406368E-2,-1.751604527E-1,-3.115320951E-2
2.722689354E1,3.268032894E-2,-1.533226669E-1,-3.527642787E-2
2.723604598E1,3.939964995E-2,-1.281252056E-1,-4.077405483E-2
2.724519843E1,3.405473381E-2,-9.315420687E-2,-3.833066672E-2
2.725435083E1,2.809897438E-2,-4.550812021E-2,-3.115320951E-2
2.726350328E1,2.260134928E-2,3.970507067E-3,-2.748812735E-2
2.727265567E1,2.367033064E-2,3.588727489E-2,-2.932066843E-2
2.728180812E1,3.481829539E-2,3.710897267E-2,-2.993151546E-2
2.729096052E1,5.405998230E-2,1.298050396E-2,-2.977880463E-2
2.730011296E1,7.223268598E-2,-1.649287529E-2,-3.084778599E-2
2.730926536E1,8.414421231E-2,-4.596625641E-2,-3.374931216E-2
2.731841781E1,8.796200156E-2,-6.169557199E-2,-3.741439432E-2
2.732757020E1,8.857285231E-2,-6.230641901E-2,-4.413371533E-2
2.733672265E1,8.063183725E-2,-4.856235534E-2,-4.856235534E-2
2.734587505E1,6.810946763E-2,-2.443389036E-2,-5.039490014E-2
2.735502749E1,5.482354015E-2,-2.748812549E-3,-4.871506989E-2
2.736417989E1,4.123219103E-2,1.466033421E-2,-4.581354558E-2
2.737333234E1,2.565558441E-2,2.015795931E-2,-4.520269856E-2
