"Time (s)","Gyroscope x (rad/s)","Gyroscope y (rad/s)","Gyroscope z (rad/s)"
1.012200089E1,-3.222219273E-2,6.062658876E-2,-5.955760833E-3
1.013115318E1,-3.451287001E-2,5.161659420E-2,-5.344913341E-3
1.014030553E1,-3.145863488E-2,4.489727318E-2,-5.344913341E-3
1.014945782E1,-2.519745007E-2,3.955236077E-2,-5.344913341E-3
1.015861016E1,-1.908897609E-2,3.649812192E-2,-2.137965523E-3
1.016776251E1,-1.420219894E-2,3.527642787E-2,1.527118147E-3
1.017691480E1,-1.298050396E-2,3.542914242E-2,2.748812549E-3
1.018606714E1,-1.664558798E-2,3.359659761E-2,3.970507067E-3
1.019521944E1,-1.908897609E-2,2.993151546E-2,2.748812549E-3
1.020437178E1,-1.893626526E-2,2.748812735E-2,2.137965523E-3
1.021352412E1,-1.343864016E-2,2.504473738E-2,2.748812549E-3
1.022267641E1,-7.788302377E-3,2.336490713E-2,3.359660041E-3
1.023182876E1,-2.290677279E-3,2.153236605E-2,3.512371797E-3
1.024098105E1,-1.679830020E-3,2.031067200E-2,4.581354442E-4
1.025013339E1,-6.566607859E-3,2.153236605E-2,-2.748812549E-3
1.025928574E1,-1.206423342E-2,2.092151903E-2,-6.413896102E-3
1.026843803E1,-1.832541823E-2,1.908897609E-2,-8.857285604E-3
1.027759037E1,-2.199050039E-2,1.542389300E-2,-9.468132630E-3
1.028674266E1,-2.428117767E-2,9.926267900E-3,-8.246437646E-3
1.029589501E1,-2.733541466E-2,6.413896102E-3,-5.192201585E-3
1.030504735E1,-2.916795574E-2,1.527118147E-3,-2.901524538E-3
1.031419964E1,-2.733541466E-2,9.162708884E-4,9.162708884E-4
1.032335199E1,-2.611372061E-2,3.359660041E-3,2.748812549E-3
1.033250428E1,-2.260134928E-2,8.857285604E-3,3.359660041E-3
1.034165662E1,-2.137965336E-2,1.359135192E-2,3.970507067E-3
1.035080897E1,-1.832541823E-2,1.847812906E-2,5.192201585E-3
1.035996126E1,-1.771457121E-2,2.321219631E-2,3.970507067E-3
1.036911360E1,-2.260134928E-2,2.504473738E-2,1.527118147E-3
1.037826594E1,-2.886253223E-2,2.687728032E-2,-1.679830020E-3
1.038741824E1,-3.497100621E-2,3.100049868E-2,-3.512371797E-3
1.039657058E1,-4.001049697E-2,3.527642787E-2,-5.344913341E-3
1.040572287E1,-4.367557913E-2,3.649812192E-2,-5.955760833E-3
1.041487522E1,-4.428642616E-2,3.161134571E-2,-7.788302377E-3
1.042402756E1,-4.413371533E-2,2.382304333E-2,-6.566607859E-3
1.043317985E1,-4.046862945E-2,1.481304597E-2,-7.177455351E-3
1.044233220E1,-3.420744836E-2,9.315420873E-3,-5.344913341E-3
1.045148449E1,-2.748812735E-2,8.246437646E-3,-1.068982761E-3
1.046063683E1,-1.832541823E-2,1.191152167E-2,3.970507067E-3
1.046978918E1,-1.145338640E-2,1.664558798E-2,7.024743594E-3
1.047894147E1,-6.719320081E-3,2.336490713E-2,8.857285604E-3
1.048809381E1,-4.275931045E-3,3.115320951E-2,1.068982668E-2
1.049724610E1,-1.832541777E-3,4.199574888E-2,1.191152167E-2
1.050639844E1,1.068982761E-3,5.100574717E-2,1.267508045E-2
1.051555079E1,1.679830020E-3,5.833591148E-2,1.206423342E-2
1.052470308E1,-7.635590737E-4,6.077930331E-2,1.068982668E-2
1.053385542E1,-5.803049076E-3,5.894676223E-2,8.246437646E-3
1.054300777E1,-1.175880991E-2,5.222744122E-2,6.413896102E-3
1.055216006E1,-1.420219894E-2,4.260659590E-2,3.359660041E-3
1.056131240E1,-1.725643501E-2,3.359659761E-2,3.359660041E-3
1.057046475E1,-1.893626526E-2,2.626643144E-2,2.137965523E-3
1.057961704E1,-2.076880634E-2,1.603474095E-2,1.527118147E-3
1.058876938E1,-2.244863659E-2,8.246437646E-3,3.359660041E-3
1.059792168E1,-2.122694254E-2,-1.374406274E-3,2.748812549E-3
1.060707402E1,-1.740914769E-2,-8.704573847E-3,2.748812549E-3
1.061622636E1,-1.252236869E-2,-1.466033421E-2,2.748812549E-3
1.062537865E1,-1.007897966E-2,-1.343864016E-2,5.803049076E-3
1.063453100E1,-8.857285604E-3,-1.038440317E-2,5.803049076E-3
1.064368329E1,-9.468132630E-3,-7.941014133E-3,7.024743594E-3
1.065283563E1,-1.130067464E-2,-6.872031838E-3,7.024743594E-3
1.066198798E1,-1.557660475E-2,-1.282779220E-2,6.413896102E-3
1.067114027E1,-1.679829881E-2,-2.000524849E-2,7.024743594E-3
1.068029261E1,-1.786728203E-2,-2.794626169E-2,2.748812549E-3
1.068944496E1,-1.664558798E-2,-3.222219273E-2,1.527118147E-3
1.069859725E1,-1.420219894E-2,-3.329117596E-2,9.162708884E-4
1.070774959E1,-1.236965694E-2,-3.161134571E-2,1.527118147E-3
1.071690188E1,-1.175880991E-2,-2.489202656E-2,1.527118147E-3
1.072605423E1,-1.053711493E-2,-2.122694254E-2,9.162708884E-4
1.073520657E1,-8.093725890E-3,-1.954711229E-2,2.901524538E-3
1.074435886E1,-8.704573847E-3,-1.954711229E-2,1.679830020E-3
1.075351121E1,-6.872031838E-3,-1.893626526E-2,2.901524538E-3
1.076266355E1,-5.039489828E-3,-1.893626526E-2,4.734066315E-3
1.077181584E1,-1.985253533E-3,-2.000524849E-2,6.566607859E-3
1.078096818E1,-4.428642802E-3,-1.710372418E-2,7.177455351E-3
1.079012053E1,-8.704573847E-3,-1.282779220E-2,4.581354558E-3
1.079927282E1,-1.191152167E-2,-6.872031838E-3,3.359660041E-3
1.080842516E1,-1.557660475E-2,-4.428642802E-3,1.527118147E-3
1.081757746E1,-1.924168877E-2,-3.817795310E-3,-9.162708884E-4
1.082672980E1,-2.046338283E-2,-5.650337320E-3,-3.359660041E-3
1.083588214E1,-2.305948362E-2,-3.817795310E-3,-4.581354558E-3
1.084503444E1,-2.489202656E-2,-1.985253533E-3,-2.748812549E-3
1.085418678E1,-2.977880463E-2,-3.054236295E-4,-1.679830020E-3
1.086333912E1,-3.420744836E-2,-1.527118147E-3,-1.068982761E-3
1.087249141E1,-3.542914242E-2,-2.596100792E-3,7.635590737E-4
1.088164376E1,-3.405473381E-2,-2.596100792E-3,7.635590737E-4
1.089079610E1,-3.298575059E-2,-1.985253533E-3,2.596100792E-3
1.089994839E1,-2.794626169E-2,-1.527118147E-4,2.596100792E-3
1.090910074E1,-2.183778957E-2,-1.374406274E-3,3.359660041E-3
1.091825303E1,-1.756185852E-2,-1.985253533E-3,4.581354558E-3
1.092740537E1,-1.450762246E-2,1.679830020E-3,5.803049076E-3
1.093655772E1,-1.511846948E-2,5.803049076E-3,3.359660041E-3
1.094571001E1,-1.634016447E-2,8.246437646E-3,3.970507067E-3
1.095486235E1,-1.511846948E-2,1.420219894E-2,5.192201585E-3
1.096401470E1,-1.404948719E-2,2.092151903E-2,3.970507067E-3
1.097316699E1,-1.023169141E-2,2.153236605E-2,1.527118147E-3
1.098231933E1,-5.344913341E-3,2.275406010E-2,-9.162708884E-4
1.099147162E1,-2.290677279E-3,2.031067200E-2,-7.635590737E-4
1.100062397E1,-4.581354442E-4,2.031067200E-2,4.581354442E-4
1.100977631E1,1.527118147E-4,2.092151903E-2,2.901524538E-3
1.101892860E1,-2.290677279E-3,1.664558798E-2,5.955760833E-3
1.102808095E1,-3.512371797E-3,1.191152167E-2,7.788302377E-3
1.103723329E1,-7.788302377E-3,4.581354558E-3,7.024743594E-3
1.104638558E1,-1.007897966E-2,-7.635590737E-4,7.635590620E-3
1.105553793E1,-9.468132630E-3,-4.428642802E-3,7.635590620E-3
1.106469022E1,-1.191152167E-2,-5.039489828E-3,7.635590620E-3
1.107384256E1,-1.313321572E-2,-5.039489828E-3,6.413896102E-3
1.108299490E1,-1.557660475E-2,-6.261184346E-3,6.413896102E-3
1.109214720E1,-1.557660475E-2,-7.482878864E-3,7.024743594E-3
1.110129954E1,-1.618745178E-2,-1.099525020E-2,7.024743594E-3
1.111045188E1,-1.618745178E-2,-1.649287529E-2,7.635590620E-3
1.111960418E1,-1.481304597E-2,-2.061609551E-2,7.635590620E-3
1.112875652E1,-1.114796288E-2,-2.672456764E-2,7.024743594E-3
1.113790886E1,-8.704573847E-3,-2.855710872E-2,7.024743594E-3
1.114706115E1,-6.872031838E-3,-2.855710872E-2,6.566607859E-3
1.115621350E1,-7.482878864E-3,-2.611372061E-2,5.955760833E-3
1.116536584E1,-8.093725890E-3,-1.893626526E-2,7.635590620E-3
1.117451813E1,-8.857285604E-3,-9.773556143E-3,8.857285604E-3
1.118367048E1,-7.024743594E-3,-3.206948051E-3,1.068982668E-2
1.119282282E1,-7.024743594E-3,1.068982761E-3,1.191152167E-2
1.120197511E1,-9.009997360E-3,2.901524538E-3,8.246437646E-3
1.121112746E1,-1.389677543E-2,4.581354558E-3,3.359660041E-3
1.122027975E1,-1.878355257E-2,2.137965523E-3,-5.192201585E-3
1.122943209E1,-1.863084175E-2,-3.054236295E-4,-1.252236869E-2
1.123858444E1,-1.374406368E-2,-3.359660041E-3,-1.557660475E-2
1.124773673E1,-1.114796288E-2,-8.093725890E-3,-1.618745178E-2
1.125688907E1,-1.481304597E-2,-1.542389300E-2,-1.924168877E-2
1.126604141E1,-2.336490713E-2,-2.748812735E-2,-2.718270384E-2
1.127519371E1,-2.611372061E-2,-5.039490014E-2,-3.695625812E-2
1.128434605E1,-2.092151903E-2,-8.475505561E-2,-4.062134400E-2
1.129349839E1,-4.581354558E-3,-1.136175916E-1,-3.741439432E-2
1.130265069E1,9.620844387E-3,-1.232384369E-1,-2.504473738E-2
1.131180303E1,1.817270555E-2,-1.224748790E-1,-1.160609815E-2
1.132095537E1,1.557660475E-2,-1.188097894E-1,-0.000000000E0
1.133010766E1,5.650337320E-3,-1.110214889E-1,1.023169141E-2
1.133926001E1,-6.108472589E-3,-1.001789495E-1,1.817270555E-2
1.134841235E1,-1.313321572E-2,-8.994726092E-2,2.122694254E-2
1.135756464E1,-1.313321572E-2,-8.383878320E-2,2.351761982E-2
1.136671699E1,-6.413896102E-3,-8.139539510E-2,2.367033064E-2
1.137586928E1,9.162708884E-4,-7.788302749E-2,2.244863659E-2
1.138502162E1,7.024743594E-3,-7.070557028E-2,1.817270555E-2
1.139417397E1,1.130067464E-2,-5.497625470E-2,7.330167107E-3
1.140332626E1,1.618745178E-2,-3.573456407E-2,-6.719320081E-3
1.141247860E1,2.275406010E-2,-1.603474095E-2,-2.260134928E-2
1.142163094E1,2.336490713E-2,9.162708884E-4,-3.176405653E-2
1.143078324E1,2.504473738E-2,1.832541823E-2,-3.787253052E-2
1.143993558E1,2.489202656E-2,3.038965166E-2,-3.665083647E-2
1.144908792E1,2.550287358E-2,3.222219273E-2,-3.603998944E-2
1.145824022E1,2.687728032E-2,2.504473738E-2,-3.359659761E-2
1.146739256E1,2.443389036E-2,8.704573847E-3,-3.054236248E-2
1.147654490E1,2.397575416E-2,-1.175880991E-2,-2.382304333E-2
1.148569720E1,2.473931387E-2,-3.344388679E-2,-1.832541823E-2
1.149484954E1,2.733541466E-2,-4.963133857E-2,-1.771457121E-2
1.150400188E1,2.932066843E-2,-6.169557199E-2,-1.710372418E-2
1.151315418E1,3.985778242E-2,-6.581879407E-2,-1.695101149E-2
1.152230652E1,5.161659420E-2,-6.398624927E-2,-1.817270555E-2
1.153145886E1,6.016845629E-2,-5.925218388E-2,-1.985253580E-2
1.154061115E1,6.627693027E-2,-5.207473040E-2,-2.168507688E-2
1.154976350E1,6.673506647E-2,-4.535540938E-2,-1.985253580E-2
1.155891584E1,6.795676053E-2,-3.985778242E-2,-1.679829881E-2
1.156806813E1,6.551336497E-2,-3.573456407E-2,-1.618745178E-2
1.157722048E1,6.169557199E-2,-2.962609194E-2,-1.679829881E-2
1.158637282E1,5.741964281E-2,-2.367033064E-2,-1.740914769E-2
1.159552511E1,5.299099907E-2,-1.404948719E-2,-2.122694254E-2
1.160467746E1,5.054761097E-2,-6.872031838E-3,-2.733541466E-2
1.161382980E1,4.428642616E-2,2.748812549E-3,-3.405473381E-2
1.162298209E1,3.741439432E-2,1.649287529E-2,-3.787253052E-2
1.163213444E1,2.993151546E-2,3.222219273E-2,-3.970507160E-2
1.164128668E1,2.107422985E-2,4.245388508E-2,-3.970507160E-2
1.165043907E1,1.313321572E-2,4.489727318E-2,-4.291202128E-2
1.165959141E1,4.428642802E-3,4.611896724E-2,-4.535540938E-2
1.166874376E1,-5.955760833E-3,4.428642616E-2,-4.734066129E-2
1.167789605E1,-1.649287529E-2,4.184303805E-2,-4.856235534E-2
1.168704839E1,-2.565558441E-2,4.001049697E-2,-5.238015205E-2
1.169620074E1,-3.237490356E-2,3.390202299E-2,-5.238015205E-2
1.170535303E1,-3.665083647E-2,3.023693897E-2,-5.299099907E-2
1.171450537E1,-3.603998944E-2,3.512371704E-2,-5.421269313E-2
1.172365772E1,-3.252761811E-2,4.779879749E-2,-5.421269313E-2
1.173281001E1,-2.641914412E-2,5.864133686E-2,-5.482354015E-2
1.174196235E1,-1.908897609E-2,7.543963939E-2,-5.833591148E-2
1.175111470E1,-1.557660475E-2,9.345962852E-2,-6.322269142E-2
1.176026699E1,-1.511846948E-2,1.104106456E-1,-6.444438547E-2
1.176941933E1,-1.404948719E-2,1.218640283E-1,-6.444438547E-2
1.177857168E1,-8.399149403E-3,1.218640283E-1,-6.627693027E-2
1.178772397E1,-3.054236295E-4,1.116323397E-1,-6.872031838E-2
1.179687631E1,1.282779220E-2,9.345962852E-2,-7.284353673E-2
1.180602865E1,2.535016090E-2,7.238540053E-2,-7.391251624E-2
1.181518095E1,3.542914242E-2,5.253286287E-2,-7.330167294E-2
1.182433329E1,4.413371533E-2,3.268032894E-2,-7.131642103E-2
1.183348563E1,5.054761097E-2,1.343864016E-2,-6.887302548E-2
1.184263792E1,5.619794875E-2,1.527118147E-4,-6.459710002E-2
1.185179027E1,6.047387794E-2,-1.236965694E-2,-5.772506446E-2
1.186094261E1,7.116370648E-2,-2.565558441E-2,-4.978405312E-2
1.187009490E1,8.551861346E-2,-4.550812021E-2,-4.596625641E-2
1.187924725E1,1.127013192E-1,-6.658235192E-2,-4.337015375E-2
1.188839959E1,1.437018216E-1,-8.338065445E-2,-4.382828996E-2
1.189755188E1,1.795890927E-1,-9.345962852E-2,-4.474456236E-2
1.190670423E1,2.147128135E-1,-9.697200358E-2,-4.749337584E-2
1.191585657E1,2.498365343E-1,-8.857285231E-2,-4.856235534E-2
1.192500886E1,2.864873707E-1,-6.872031838E-2,-4.642439261E-2
1.193416121E1,3.271087110E-1,-4.871506989E-2,-4.184303805E-2
1.194331355E1,3.768927455E-1,-3.588727489E-2,-3.359659761E-2
1.195246584E1,4.421007037E-1,-3.390202299E-2,-2.092151903E-2
1.196161818E1,5.172349215E-1,-3.497100621E-2,-1.985253533E-3
1.197077053E1,5.974085927E-1,-3.176405653E-2,1.863084175E-2
1.197992282E1,6.792621613E-1,-2.611372061E-2,4.062134400E-2
1.198907516E1,7.666133046E-1,-3.191677108E-2,6.444438547E-2
1.199822751E1,8.629744649E-1,-6.108472496E-2,9.513945878E-2
1.200737980E1,9.704836011E-1,-1.059819981E-1,1.270562261E-1
1.201653214E1,1.081046939E0,-1.617218107E-1,1.608055383E-1
1.202568449E1,1.193748236E0,-2.223484069E-1,1.890572309E-1
1.203483683E1,1.307671309E0,-2.889307439E-1,2.101314515E-1
1.204398912E1,1.421594262E0,-3.616215885E-1,2.292204350E-1
1.205314147E1,1.537502527E0,-4.500417113E-1,2.496838123E-1
1.206229381E1,1.655396104E0,-5.430431962E-1,2.793098986E-1
1.207144610E1,1.773747683E0,-6.397097707E-1,3.223746419E-1
1.208059845E1,1.885990858E0,-7.380561829E-1,3.720059693E-1
1.208975079E1,1.989682198E0,-8.438854814E-1,4.162923992E-1
1.209890308E1,2.113989592E0,-9.833113551E-1,4.483618736E-1
1.210805542E1,2.269603014E0,-1.152363300E0,4.599680007E-1
1.211720777E1,2.434226274E0,-1.299119353E0,4.514161348E-1
1.212636006E1,2.563420534E0,-1.402657986E0,4.335488379E-1
1.213551240E1,2.631530046E0,-1.503905892E0,4.132381678E-1
1.214466475E1,2.647717476E0,-1.637223363E0,3.671191931E-1
1.215381704E1,2.660239697E0,-1.746564984E0,2.860292196E-1
1.216304657E1,2.675510883E0,-1.754200578E0,1.743968874E-1
1.217239344E1,2.670318842E0,-1.596754789E0,5.039490014E-2
1.218171579E1,2.623283625E0,-1.338671803E0,-8.857285604E-3
1.219106418E1,2.515469074E0,-1.076007485E0,1.527118124E-2
1.220039949E1,2.332214832E0,-8.072346449E-1,9.620844573E-2
1.220973485E1,2.129260778E0,-6.438329816E-1,2.118112892E-1
1.221907022E1,1.937454820E0,-5.227325559E-1,2.892361879E-1
1.222840553E1,1.794821978E0,-4.353813827E-1,3.119902313E-1
1.223774089E1,1.727781415E0,-3.735330999E-1,3.009949923E-1
1.224707626E1,1.737249613E0,-3.284831047E-1,2.718270421E-1
1.225641157E1,1.802915692E0,-3.344388604E-1,2.283041626E-1
1.226574694E1,1.889655948E0,-3.742966652E-1,1.971509457E-1
1.227508230E1,1.965095639E0,-4.097257853E-1,1.983726472E-1
1.228441761E1,2.016406775E0,-4.390464723E-1,2.322746664E-1
1.229375298E1,2.034884930E0,-4.628695250E-1,2.751866877E-1
1.230308834E1,2.004342556E0,-5.025745630E-1,3.165715933E-1
1.231242371E1,1.945395827E0,-6.087092757E-1,3.358132839E-1
1.232174600E1,1.856975675E0,-7.160657048E-1,3.303156495E-1
1.233109438E1,1.761378050E0,-8.344173431E-1,3.144336343E-1
1.234042975E1,1.673721433E0,-9.623898268E-1,3.060344756E-1
1.234976506E1,1.604390383E0,-1.054627776E0,3.043546379E-1
1.235910043E1,1.550330400E0,-1.077076435E0,3.020639718E-1
1.236843579E1,1.509403586E0,-1.050504565E0,2.987042964E-1
1.237777110E1,1.466338873E0,-9.878927469E-1,3.045073450E-1
1.238710647E1,1.418081880E0,-9.061918855E-1,2.968717813E-1
1.239635376E1,1.360814929E0,-8.212841153E-1,2.793098986E-1
1.240550605E1,1.294996142E0,-7.678350210E-1,2.635805905E-1
1.241465839E1,1.219556570E0,-7.301151752E-1,2.483094037E-1
1.242381074E1,1.143353343E0,-6.814001203E-1,2.312056869E-1
1.243296303E1,1.064554095E0,-6.183301210E-1,2.183778882E-1
1.244211537E1,9.894198179E-1,-5.528167486E-1,2.124221325E-1
1.245126772E1,9.159654379E-1,-4.740174711E-1,2.118112892E-1
1.246042006E1,8.461761475E-1,-3.800997138E-1,2.179197669E-1
1.246957235E1,7.750124335E-1,-2.872509360E-1,2.307475507E-1
1.247872470E1,7.062921524E-1,-2.011214644E-1,2.437280566E-1
1.248787704E1,6.407787800E-1,-1.102579311E-1,2.528907657E-1
1.249702933E1,5.745018721E-1,-1.145338640E-2,2.713688910E-1
1.250618168E1,5.109737515E-1,1.156028435E-1,2.951919436E-1
1.251533402E1,4.561502039E-1,2.348707765E-1,3.100049794E-1
1.252448636E1,4.043808877E-1,3.077143133E-1,3.138227761E-1
1.253363865E1,3.535278440E-1,3.449759781E-1,3.035911024E-1
1.254279100E1,3.022166789E-1,3.623851240E-1,2.959555089E-1
1.255194334E1,2.438807636E-1,3.448232710E-1,2.961082160E-1
1.256109563E1,1.704263836E-1,2.779355049E-1,3.066453338E-1
1.257024798E1,8.826743066E-2,1.655396074E-1,3.110739589E-1
1.257940032E1,3.665083554E-3,4.734066129E-2,3.081724346E-1
1.258855261E1,-7.314895838E-2,-4.795150831E-2,3.003841341E-1
1.259770496E1,-1.472141892E-1,-1.024696305E-1,2.877090573E-1
1.260685730E1,-2.365505993E-1,-1.056765765E-1,2.748812735E-1
1.261600964E1,-3.446705639E-1,-7.269082218E-2,2.666348219E-1
1.262516194E1,-4.744756222E-1,-2.886253223E-2,2.602209449E-1
1.263431428E1,-6.029062271E-1,9.468132630E-3,2.531961799E-1
1.264346662E1,-6.566607952E-1,2.748812735E-2,2.437280566E-1
1.265260621E1,-5.957288146E-1,4.672981426E-2,2.312056869E-1
1.266177126E1,-4.778352678E-1,9.391776472E-2,2.209739983E-1
1.267092360E1,-3.571929336E-1,1.096470803E-1,2.212794125E-1
1.268006319E1,-2.849602401E-1,3.924693540E-2,2.072299272E-1
1.268922824E1,-2.622061968E-1,-1.470614821E-1,1.763821393E-1
1.269838058E1,-2.498365343E-1,-4.045335948E-1,1.282779276E-1
1.270752016E1,-2.344126403E-1,-4.445441067E-1,5.100574717E-2
1.271668522E1,-2.394521236E-1,-1.085781008E-1,-4.214845970E-2
1.272583756E1,-2.617480457E-1,3.706315756E-1,-1.397313178E-1
1.273497714E1,-2.629697323E-1,5.367820263E-1,-2.021904439E-1
1.274414225E1,-2.507528067E-1,3.379512429E-1,-1.915006191E-1
1.275329454E1,-3.251234591E-1,2.783936262E-1,-1.186570823E-1
1.276243412E1,-5.393781066E-1,5.018110275E-1,-5.696150661E-2
1.277159923E1,-8.655705452E-1,6.507050395E-1,-6.963659078E-2
1.278075152E1,-1.199245930E0,7.085828185E-1,-1.270562261E-1
1.278990386E1,-1.453969240E0,8.851176500E-1,-1.577513069E-1
1.279905621E1,-1.651425600E0,1.159235358E0,-1.128540337E-1
1.280820855E1,-1.817728758E0,1.372573733E0,-1.221694518E-2
1.281734808E1,-1.879271626E0,1.266133666E0,7.345438004E-2
1.282651319E1,-1.851325274E0,8.776348233E-1,9.300149232E-2
1.283566553E1,-1.804137349E0,4.472928941E-1,6.184828654E-2
1.284480511E1,-1.834832430E0,1.589729935E-1,2.886253223E-2
1.285397016E1,-1.944937706E0,-8.704573847E-3,3.436015919E-2
1.286312251E1,-1.978686929E0,-2.567085624E-1,8.368607610E-2
1.287226209E1,-1.887059927E0,-5.462501645E-1,1.554606259E-1
1.288142714E1,-1.725490808E0,-7.418739796E-1,2.641914487E-1
1.289057949E1,-1.609887958E0,-7.857022882E-1,4.182776511E-1
1.289971907E1,-1.627907991E0,-6.519267559E-1,6.085565686E-1
1.290888412E1,-1.714037418E0,-4.193466306E-1,7.970029712E-1
1.291803647E1,-1.857128382E0,-4.001049697E-2,9.338327646E-1
1.292717605E1,-1.998692274E0,3.312319219E-1,9.849911928E-1
1.293634110E1,-2.035801172E0,5.033381581E-1,9.431481957E-1
1.294549344E1,-1.982810259E0,4.920374751E-1,8.159392476E-1
1.295463303E1,-1.916838646E0,3.691044450E-1,6.174138784E-1
1.296379813E1,-1.840788245E0,1.910424829E-1,3.713951409E-1
1.297295042E1,-1.740609288E0,4.932591692E-2,1.369825006E-1
1.298209001E1,-1.626686215E0,-6.032116711E-2,-6.108472496E-2
1.299125511E1,-1.513374090E0,-1.890572309E-1,-2.098260373E-1
1.300040746E1,-1.429840684E0,-1.910424829E-1,-2.739650011E-1
1.300954699E1,-1.375627995E0,-6.368082762E-2,-2.516690791E-1
1.301871209E1,-1.335770249E0,1.415638477E-1,-1.769929975E-1
1.302786444E1,-1.317902923E0,3.662029207E-1,-6.963659078E-2
1.303701673E1,-1.349208832E0,6.575770974E-1,4.596625641E-2
1.304616907E1,-1.412737012E0,1.026681542E0,1.221694499E-1
1.305532141E1,-1.485427856E0,1.388150454E0,1.275143623E-1
1.306446100E1,-1.558424115E0,1.640277624E0,7.803573459E-2
1.307362605E1,-1.609735250E0,1.770082593E0,1.068982761E-3
1.308277839E1,-1.641499281E0,1.832999945E0,-7.238540053E-2
1.309191798E1,-1.651883721E0,1.853921413E0,-1.304158866E-1
1.310108308E1,-1.650814772E0,1.814063668E0,-1.646233350E-1
1.311023537E1,-1.659061193E0,1.713884711E0,-1.792836636E-1
1.311938772E1,-1.672041655E0,1.588355541E0,-2.122694254E-1
1.312854006E1,-1.672347069E0,1.494895935E0,-2.414373755E-1
1.313769235E1,-1.642262816E0,1.442515850E0,-2.412846684E-1
1.314684470E1,-1.535364628E0,1.398840189E0,-2.191414535E-1
1.315599704E1,-1.405712247E0,1.357455373E0,-1.948602796E-1
1.316514938E1,-1.321873426E0,1.288887739E0,-1.924168915E-1
1.317430168E1,-1.257123709E0,1.228108406E0,-2.060082406E-1
1.318345402E1,-1.204743505E0,1.290872931E0,-2.069245130E-1
1.319260636E1,-1.198940516E0,1.408461094E0,-2.118112892E-1
1.320175865E1,-1.204132676E0,1.456412554E0,-2.376195788E-1
1.321091100E1,-1.127776742E0,1.422052383E0,-2.822114229E-1
1.322006334E1,-1.023627281E0,1.363563776E0,-3.264978528E-1
1.322921569E1,-9.668185115E-1,1.298508525E0,-3.549022675E-1
1.323836798E1,-9.649859667E-1,1.303242683E0,-3.755183518E-1
1.324752032E1,-1.001025915E0,1.353790283E0,-3.771981895E-1
1.325665990E1,-1.027292371E0,1.373184681E0,-3.405473530E-1
1.326582501E1,-1.014311910E0,1.269798756E0,-3.008422852E-1
1.327497730E1,-9.950701594E-1,1.049741030E0,-2.987042964E-1
1.328412964E1,-9.542961121E-1,8.617527485E-1,-3.465031087E-1
1.329328199E1,-8.628217578E-1,7.803573608E-1,-3.970507085E-1
1.330243433E1,-7.469134927E-1,7.214106321E-1,-4.140017331E-1
1.331158662E1,-6.691831946E-1,6.238277555E-1,-3.938437700E-1
1.332073897E1,-6.581879258E-1,4.734066129E-1,-3.629959822E-1
1.332989131E1,-7.091936469E-1,3.202366829E-1,-3.541387022E-1
1.333904360E1,-7.498149872E-1,2.490729690E-1,-3.665083647E-1
1.334819594E1,-7.069029808E-1,2.791571915E-1,-3.741439581E-1
1.335734829E1,-6.036698222E-1,3.884988427E-1,-3.619270027E-1
1.336650063E1,-5.405998230E-1,4.784461260E-1,-3.420744538E-1
1.337565292E1,-5.729747415E-1,5.181511641E-1,-3.246653080E-1
1.338480527E1,-6.441384554E-1,5.453338623E-1,-3.000787199E-1
1.339395761E1,-6.844543815E-1,5.471664071E-1,-2.606790662E-1
1.340310990E1,-7.017107606E-1,5.190674663E-1,-2.180724740E-1
1.341226225E1,-7.261446714E-1,5.016583204E-1,-2.053973973E-1
1.342141459E1,-7.342383862E-1,5.092939138E-1,-2.243336588E-1
1.343056694E1,-6.765133142E-1,5.424323678E-1,-2.460187376E-1
1.343971928E1,-5.525113344E-1,5.462501645E-1,-2.481566966E-1
1.344887157E1,-3.868190348E-1,4.706578255E-1,-2.414373755E-1
1.345802391E1,-2.211267054E-1,3.437542915E-1,-2.451024652E-1
1.346717626E1,-1.010952219E-1,2.367033064E-1,-2.507528067E-1
1.347632855E1,-6.810946763E-2,1.885990947E-1,-2.402156889E-1
1.348548089E1,-1.243074164E-1,1.910424829E-1,-2.093679011E-1
1.349463324E1,-2.170034945E-1,2.573194206E-1,-1.667613089E-1
1.350378558E1,-2.817533016E-1,3.785725832E-1,-1.130067408E-1
1.351293787E1,-2.880144715E-1,5.167768002E-1,-6.001574174E-2
1.352209022E1,-2.536543310E-1,6.560499668E-1,-1.710372418E-2
1.353124256E1,-1.864611208E-1,7.708892226E-1,1.191152167E-2
1.354039490E1,-8.826743066E-2,8.289197087E-1,1.863084175E-2
1.354954725E1,5.100574717E-2,8.231166601E-1,1.298050396E-2
1.355869954E1,2.157817930E-1,7.401941419E-1,5.039489828E-3
1.356785188E1,3.909422457E-1,5.770979524E-1,1.130067464E-2
1.357700423E1,5.636593103E-1,3.484883606E-1,4.260659590E-2
1.358615657E1,7.191199064E-1,9.834641218E-2,9.147437662E-2
1.359530886E1,8.541171551E-1,-1.296523362E-1,1.420219839E-1
1.360446121E1,9.590302110E-1,-3.142809272E-1,1.826433241E-1
1.361361355E1,1.039356589E0,-4.689779878E-1,2.066190839E-1
1.362276584E1,1.110062122E0,-6.097782850E-1,2.260134816E-1
1.363191818E1,1.186418056E0,-7.488987446E-1,2.444916219E-1
1.364107053E1,1.287971497E0,-8.872556686E-1,2.599155009E-1
1.365022287E1,1.434116602E0,-1.025001645E0,2.591519356E-1
1.365937516E1,1.637986898E0,-1.147629261E0,2.392994165E-1
1.366852751E1,1.918518543E0,-1.264301062E0,1.931804419E-1
1.367767985E1,2.287775755E0,-1.383874416E0,1.354553849E-1
1.368683220E1,2.717812061E0,-1.482068181E0,9.208522737E-2
1.369597178E1,3.109670639E0,-1.533837438E0,9.009996802E-2
1.370513683E1,3.395089149E0,-1.559187651E0,1.324011385E-1
1.371428918E1,3.513288021E0,-1.562394619E0,1.985253543E-1
1.372342876E1,3.460144281E0,-1.519329786E0,2.768665254E-1
1.373259386E1,3.249707460E0,-1.392731786E0,3.741439581E-1
1.374174615E1,2.973909855E0,-1.218029380E0,5.022691488E-1
1.375089850E1,2.768665314E0,-1.152668834E0,6.520794630E-1
1.376005084E1,2.710481882E0,-1.254069448E0,7.843278646E-1
1.376920318E1,2.758891582E0,-1.398229361E0,8.593093753E-1
1.377835548E1,2.851587772E0,-1.425870180E0,8.733588457E-1
1.378750782E1,2.952835560E0,-1.367228866E0,8.612946272E-1
1.379666016E1,3.021250486E0,-1.383416295E0,8.568660021E-1
1.380581246E1,3.024152040E0,-1.493674278E0,8.637380004E-1
1.381496480E1,2.962761879E0,-1.657228589E0,8.512156606E-1
1.382411714E1,2.842730522E0,-1.793753028E0,8.075400591E-1
1.383325673E1,2.691698551E0,-1.834527016E0,7.479824424E-1
1.384242178E1,2.561282635E0,-1.765653968E0,6.933116317E-1
1.385157412E1,2.506000996E0,-1.568808436E0,6.584933400E-1
1.386071371E1,2.514858246E0,-1.315765023E0,6.652126908E-1
1.386987881E1,2.504626513E0,-1.023321867E0,7.076665759E-1
1.387903115E1,2.442625523E0,-7.175928354E-1,7.661551833E-1
1.388817068E1,2.334963560E0,-4.868452549E-1,8.171609044E-1
1.389733579E1,2.218444586E0,-3.645231128E-1,8.541171551E-1
1.390648813E1,2.115974903E0,-3.460449576E-1,8.722898960E-1
1.391562772E1,2.002815485E0,-3.697153032E-1,8.483141065E-1
1.392479277E1,1.844147921E0,-3.744493723E-1,7.861604095E-1
1.393394511E1,1.658603072E0,-4.136963189E-1,6.969767213E-1
1.394308470E1,1.486191392E0,-5.059342384E-1,5.858024955E-1
1.395224975E1,1.360356808E0,-5.903838873E-1,4.579827189E-1
1.396140209E1,1.280183196E0,-6.525375843E-1,3.206948042E-1
1.397055444E1,1.215127945E0,-7.007945180E-1,1.834068894E-1
1.397970678E1,1.157708287E0,-7.867712975E-1,9.941539168E-2
1.398885907E1,1.114796281E0,-9.471186996E-1,8.276980370E-2
1.399801141E1,1.049588323E0,-1.024543524E0,7.269082218E-2
1.400716376E1,9.313893318E-1,-9.578084946E-1,5.405998230E-2
1.401631610E1,7.934905887E-1,-8.134958148E-1,2.305948362E-2
1.402546839E1,6.447492838E-1,-6.423059106E-1,-2.015795931E-2
1.403462074E1,4.937172830E-1,-4.824166298E-1,-6.230641901E-2
1.404377308E1,3.555130959E-1,-3.929274976E-1,-9.452861547E-2
1.405292543E1,2.405211031E-1,-4.034646153E-1,-1.203369126E-1
1.406207777E1,1.424801201E-1,-4.518742561E-1,-1.362189353E-1
1.407123006E1,5.207473040E-2,-4.773771465E-1,-1.429382563E-1
1.408038240E1,-5.146388337E-2,-4.830274582E-1,-1.534753740E-1
1.408953475E1,-1.864611208E-1,-4.753918648E-1,-1.696628332E-1
1.409868709E1,-3.469612300E-1,-4.388937652E-1,-1.892099380E-1
1.410783938E1,-5.018110275E-1,-3.356605768E-1,-2.014268786E-1
1.411699173E1,-6.139014959E-1,-2.159345001E-1,-1.918060333E-1
1.412614407E1,-6.765133142E-1,-1.157555580E-1,-1.472141892E-1
1.413529641E1,-7.183563709E-1,-2.886253223E-2,-7.559234649E-2
1.414444871E1,-7.618792653E-1,5.405998230E-2,8.399149403E-3
1.415360105E1,-8.180772066E-1,8.735115826E-2,9.712471068E-2
1.416275339E1,-8.825215697E-1,2.199050039E-2,1.821851879E-1
1.417190574E1,-9.393303990E-1,-1.404948682E-1,2.551814318E-1
1.418105808E1,-9.820896983E-1,-3.477247953E-1,3.032856584E-1
1.419021037E1,-1.021336675E0,-5.219689608E-1,3.196258247E-1
1.419936272E1,-1.097081661E0,-5.888567567E-1,3.063398898E-1
1.420851506E1,-1.177866220E0,-5.836645365E-1,2.819060087E-1
1.421765464E1,-1.224596024E0,-5.719057322E-1,2.376195788E-1
1.422681970E1,-1.221541762E0,-5.409052372E-1,1.624853760E-1
1.423597204E1,-1.201383829E0,-4.700469673E-1,7.345438004E-2
1.424511162E1,-1.183363795E0,-3.058817685E-1,-2.351761982E-2
1.425427673E1,-1.150072694E0,-5.665608495E-2,-1.163664013E-1
1.426342902E1,-1.085017443E0,1.557660550E-1,-1.808107942E-1
1.427256860E1,-9.712471366E-1,4.691306949E-1,-2.144073844E-1
1.428173371E1,-8.357917666E-1,9.799517393E-1,-2.168507725E-1
1.429088605E1,-8.099834919E-1,1.321109891E0,-1.864611208E-1
1.430002563E1,-1.003011227E0,1.093263865E0,-1.198787764E-1
1.430919068E1,-1.343863964E0,7.666133046E-1,-1.511846948E-2
1.431834303E1,-1.602099657E0,9.081771374E-1,1.166718230E-1
1.432748261E1,-1.764432311E0,1.296065211E0,2.580829561E-1
1.433664772E1,-1.904163599E0,1.424648523E0,3.694098890E-1
1.434580001E1,-1.942646980E0,1.427091956E0,4.265241027E-1
1.435493959E1,-1.905996203E0,1.306754947E0,4.549284875E-1
1.436410470E1,-1.772373319E0,8.405258060E-1,4.471401870E-1
1.437325704E1,-1.609735250E0,2.399102598E-1,4.370612204E-1
1.438239662E1,-1.546359777E0,-2.371614426E-1,4.323271513E-1
1.439156168E1,-1.514595747E0,-6.927008033E-1,4.274403751E-1
1.440071402E1,-1.437476277E0,-1.263995647E0,4.191939235E-1
1.440985360E1,-1.298966646E0,-1.857281089E0,4.004103839E-1
1.441901871E1,-1.124111652E0,-2.246543407E0,3.707842827E-1
1.442817100E1,-9.681929350E-1,-2.270672083E0,3.042019308E-1
1.443731058E1,-8.929060102E-1,-1.955016613E0,2.098260373E-1
1.444647569E1,-8.973346353E-1,-1.393953443E0,7.574506104E-2
1.445562803E1,-9.431481957E-1,-6.780404449E-1,-7.177454978E-2
1.446476756E1,-1.006981730E0,5.467082933E-2,-1.881409585E-1
1.447393266E1,-1.076618314E0,6.876612902E-1,-2.324273884E-1
1.448308501E1,-1.132663488E0,1.165038466E0,-2.069245130E-1
1.449223735E1,-1.163511276E0,1.492452621E0,-1.432436854E-1
1.450138970E1,-1.186112642E0,1.707928896E0,-5.390727147E-2
1.451054199E1,-1.203216434E0,1.852241635E0,4.001049697E-2
1.451968157E1,-1.203216434E0,1.890419602E0,1.035386100E-1
1.452884668E1,-1.189625025E0,1.800166845E0,1.195733473E-1
1.453799902E1,-1.165038466E0,1.620425105E0,8.811471611E-2
1.454713860E1,-1.150378108E0,1.452747464E0,2.962609194E-2
1.455630365E1,-1.149614573E0,1.327829242E0,-3.313846514E-2
1.456545600E1,-1.159082651E0,1.160609841E0,-8.246438205E-2
1.457460834E1,-1.171146870E0,1.011104941E0,-1.185043678E-1
1.458376069E1,-1.205965161E0,9.043593407E-1,-1.339282542E-1
1.459291298E1,-1.264606595E0,7.915053368E-1,-1.435490996E-1
1.460206532E1,-1.323553324E0,6.882721782E-1,-1.395785958E-1
1.461121766E1,-1.345849276E0,5.796940327E-1,-1.682884246E-1
1.462037001E1,-1.343711257E0,5.094466209E-1,-2.360924631E-1
1.462952230E1,-1.315765023E0,5.140279531E-1,-3.133646548E-1
1.463867464E1,-1.322178841E0,6.374191046E-1,-3.697153032E-1
1.464782699E1,-1.391357303E0,8.012788892E-1,-3.831539452E-1
1.465697933E1,-1.463590026E0,9.439117312E-1,-3.599417508E-1
1.466613162E1,-1.490467310E0,1.113421798E0,-3.126010895E-1
1.467528397E1,-1.453511000E0,1.362036705E0,-2.582356930E-1
1.468443631E1,-1.368145108E0,1.596754789E0,-2.107423097E-1
1.469358865E1,-1.288429618E0,1.697544575E0,-1.846285909E-1
1.470274100E1,-1.233147860E0,1.661962628E0,-2.147128135E-1
1.471189329E1,-1.166412830E0,1.543611050E0,-3.210002482E-1
1.472104563E1,-1.074785709E0,1.423884988E0,-4.503471553E-1
1.473019798E1,-9.561286569E-1,1.362952948E0,-5.209000111E-1
1.473935032E1,-8.371661901E-1,1.339129925E0,-4.986040890E-1
1.474850266E1,-7.525638342E-1,1.284153700E0,-4.246915579E-1
1.475765496E1,-7.394306064E-1,1.163969398E0,-3.683409095E-1
1.476680730E1,-7.417212725E-1,1.013242841E0,-3.585673273E-1
1.477595964E1,-6.667397618E-1,9.119949341E-1,-3.964398801E-1
1.478511199E1,-5.618267655E-1,9.185615778E-1,-4.579827189E-1
1.479426433E1,-4.734066129E-1,9.727742672E-1,-4.885250926E-1
1.480341662E1,-3.892624080E-1,9.320002198E-1,-4.738647640E-1
1.481256897E1,-3.341334462E-1,7.441646457E-1,-4.294256270E-1
1.482172131E1,-3.571929336E-1,4.708105326E-1,-3.823903799E-1
1.483087365E1,-4.550811946E-1,2.345653474E-1,-3.486410677E-1
1.484002594E1,-5.705313683E-1,1.084253863E-1,-3.358132839E-1
1.484917829E1,-6.568135023E-1,3.894151375E-2,-3.364241421E-1
1.485833063E1,-6.968240142E-1,-4.535540938E-2,-3.324536085E-1
1.486748298E1,-6.897992492E-1,-1.634016484E-1,-2.974826097E-1
1.487663532E1,-6.264238358E-1,-3.100049794E-1,-2.333436459E-1
1.488578761E1,-5.355603099E-1,-4.391991794E-1,-1.673721522E-1
1.489493996E1,-4.361449480E-1,-4.840964675E-1,-1.275143623E-1
1.490409230E1,-3.303156495E-1,-3.910949528E-1,-1.133121699E-1
1.491324464E1,-2.188360244E-1,-1.798945218E-1,-1.010952219E-1
1.492239699E1,-1.120904684E-1,7.941014320E-2,-8.231166750E-2
1.493154928E1,-1.328592747E-2,3.303156495E-1,-7.131642103E-2
1.494070162E1,9.208522737E-2,5.329642296E-1,-6.948387623E-2
1.494985397E1,2.166980654E-1,6.609367132E-1,-4.932591692E-2
1.495900631E1,3.654393852E-1,7.368345261E-1,7.330167107E-3
1.496815865E1,5.398362875E-1,7.711946368E-1,9.773556143E-2
1.497731095E1,7.356128097E-1,7.592831254E-1,2.034121305E-1
1.498646329E1,9.431481957E-1,6.737645268E-1,2.971771955E-1
1.499561563E1,1.158624530E0,5.279247165E-1,3.550549746E-1
1.500476798E1,1.397618532E0,4.011739492E-1,3.713951409E-1
1.501392032E1,1.682884216E0,2.768665254E-1,3.625378609E-1
1.502307261E1,2.019613743E0,6.215370819E-2,3.419217467E-1
1.503222496E1,2.409028769E0,-2.029540092E-1,3.362714052E-1
1.504136454E1,2.762556791E0,-4.666872919E-1,3.932329118E-1
1.505052964E1,2.968564987E0,-6.972821355E-1,5.231906772E-1
1.505968199E1,3.044157267E0,-9.501729012E-1,6.752916574E-1
1.506882157E1,3.056985140E0,-1.337297320E0,7.843278646E-1
1.507801324E1,3.056832314E0,-1.822157383E0,8.257128000E-1
1.508713897E1,2.998496532E0,-2.186527729E0,7.950177193E-1
1.509631793E1,2.934815645E0,-2.201951742E0,7.047650218E-1
1.510544365E1,2.969481230E0,-2.010756493E0,5.821374655E-1
1.511459595E1,3.113335848E0,-1.851783514E0,4.688252807E-1
1.512373553E1,3.284983873E0,-1.849950910E0,4.315635860E-1
1.513290063E1,3.438917398E0,-1.995943427E0,4.840964675E-1
1.514205298E1,3.515884161E0,-2.120098114E0,5.861079693E-1
1.515119256E1,3.458158970E0,-2.048170805E0,6.901046634E-1
1.516035761E1,3.266200304E0,-1.820935726E0,7.343910933E-1
1.516950996E1,3.039423227E0,-1.546665311E0,6.946860552E-1
1.517864954E1,2.893888950E0,-1.276212692E0,5.981721878E-1
1.518781464E1,2.836622000E0,-9.620844126E-1,4.955498278E-1
1.519696699E1,2.830055237E0,-6.103891134E-1,4.524851143E-1
1.520611928E1,2.823641539E0,-2.475458533E-1,4.827220440E-1
1.521527162E1,2.772635698E0,1.107160673E-1,5.804576278E-1
1.522442397E1,2.678412437E0,3.859027624E-1,7.090409398E-1
1.523357631E1,2.542499065E0,5.832064152E-1,8.289197087E-1
1.524272865E1,2.401393175E0,6.639909744E-1,9.077190161E-1
1.525188095E1,2.269908428E0,6.096255779E-1,9.269607067E-1
1.526102053E1,2.139950752E0,4.880669713E-1,8.846595287E-1
1.527018563E1,2.007702112E0,2.880144715E-1,7.934905887E-1
1.527933798E1,1.864611268E0,-3.054236295E-3,6.809419990E-1
1.528847756E1,1.717091680E0,-3.411581814E-1,5.628957748E-1
1.529764261E1,1.579650998E0,-6.340594292E-1,4.376720488E-1
1.530679496E1,1.457176089E0,-8.794673681E-1,3.185568452E-1
1.531594730E1,1.343405843E0,-1.058445573E0,2.041756958E-1
1.532509964E1,1.229024649E0,-1.181989431E0,1.094943732E-1
1.533425199E1,1.097692490E0,-1.278808713E0,4.138490185E-2
1.534340428E1,9.443698525E-1,-1.355011940E0,1.725643501E-2
1.535255662E1,7.844805717E-1,-1.396854997E0,2.764083818E-2
1.536170897E1,6.383354068E-1,-1.399451017E0,2.733541466E-2
1.537086131E1,5.057815313E-1,-1.328745484E0,6.108472589E-4
1.538001365E1,3.654393852E-1,-1.182752967E0,-3.771981969E-2
1.538916594E1,2.078407854E-1,-9.895725846E-1,-6.154286116E-2
1.539830553E1,2.794626169E-2,-7.892146707E-1,-5.635065958E-2
1.540747063E1,-1.656923145E-1,-5.760289431E-1,-2.794626169E-2
1.541662298E1,-3.393256664E-1,-3.405473530E-1,1.175880991E-2
1.542577532E1,-4.822639227E-1,-8.933641016E-2,4.474456236E-2
1.543492766E1,-5.923691392E-1,1.539335102E-1,6.627693027E-2
1.544407996E1,-6.794148684E-1,3.118375242E-1,8.460234851E-2
1.545323230E1,-7.612683773E-1,3.429907262E-1,1.041494608E-1
1.546238464E1,-8.292251825E-1,2.912214398E-1,1.175880954E-1
1.547153699E1,-8.788564801E-1,1.779092699E-1,1.308740228E-1
1.548067657E1,-9.231429100E-1,3.084778599E-2,1.446180940E-1
1.548984168E1,-9.391776323E-1,-1.137702987E-1,1.592784226E-1
1.549899397E1,-9.197832346E-1,-2.197522968E-1,1.632489264E-1
1.550813355E1,-9.289459586E-1,-2.915268540E-1,1.551551968E-1
1.551729865E1,-1.024085402E0,-3.352024257E-1,1.276670843E-1
1.552645100E1,-1.187639832E0,-3.407000601E-1,4.657710344E-2
1.553559058E1,-1.327065706E0,-3.353551328E-1,-9.177979827E-2
1.554475563E1,-1.360356808E0,-3.329117596E-1,-2.428117841E-1
1.555390798E1,-1.219709277E0,-1.427855492E-1,-3.677300513E-1
1.556304756E1,-9.599464536E-1,3.345915973E-1,-4.211791754E-1
1.557221266E1,-8.084563613E-1,6.774296165E-1,-3.709369898E-1
1.558136501E1,-9.026795626E-1,4.132381678E-1,-2.383831441E-1
1.559050459E1,-1.128082156E0,-1.252236813E-1,-5.940489471E-2
1.559966964E1,-1.326607585E0,-3.387148082E-1,1.285833418E-1
1.560882199E1,-1.532310367E0,-1.832541823E-2,3.040492237E-1
1.561796157E1,-1.708845258E0,5.077667832E-1,4.049917459E-1
1.562712668E1,-1.820324779E0,1.116476059E0,4.453076422E-1
1.563627902E1,-1.955169320E0,1.571862698E0,4.653128982E-1
1.564541860E1,-1.927833915E0,1.446944475E0,4.112529159E-1
1.565458365E1,-1.702736735E0,8.664868474E-1,2.686200738E-1
1.566373600E1,-1.574611545E0,2.651077211E-1,8.735115826E-2
1.567287558E1,-1.586828470E0,-3.542914242E-2,-3.894151375E-2
1.568204068E1,-1.678608298E0,-1.140757278E-1,-5.543438718E-2
1.569119303E1,-1.810398579E0,-1.638597846E-1,2.977880463E-2
1.570033261E1,-1.874384761E0,-2.441861928E-1,1.650814712E-1
1.570949766E1,-1.813300133E0,-3.996468186E-1,3.151971996E-1
1.571865001E1,-1.720756769E0,-5.367820263E-1,4.656183124E-1
1.572780235E1,-1.663947940E0,-5.254813433E-1,5.734328628E-1
1.573695470E1,-1.621799469E0,-3.651339412E-1,5.864133835E-1
1.574610704E1,-1.577971220E0,-1.815743446E-1,4.986040890E-1
1.575525933E1,-1.545138121E0,-5.390727147E-2,3.321481943E-1
1.576441168E1,-1.529103398E0,3.695625812E-2,1.311794519E-1
1.577356402E1,-1.490772724E0,1.093416587E-1,-5.787777901E-2
1.578271636E1,-1.430451512E0,1.328592747E-1,-2.064663768E-1
1.579186871E1,-1.361883998E0,1.591257155E-1,-3.006895781E-1
1.580102105E1,-1.309503794E0,2.452551723E-1,-3.388675153E-1
1.581016063E1,-1.257276416E0,3.875826001E-1,-3.214583695E-1
1.581932568E1,-1.218334913E0,5.596888065E-1,-2.602209449E-1
1.582847803E1,-1.206728816E0,7.414158583E-1,-1.814216375E-1
1.583763037E1,-1.218945742E0,9.814788103E-1,-1.212531775E-1
1.584678272E1,-1.229635477E0,1.206881523E0,-9.773556143E-2
1.585593506E1,-1.218640327E0,1.375627995E0,-1.160609797E-1
1.586508740E1,-1.194206357E0,1.491078138E0,-1.763821393E-1
1.587423970E1,-1.160915256E0,1.522231340E0,-2.562504113E-1
1.588339204E1,-1.120141149E0,1.556286097E0,-3.396310806E-1
1.589254438E1,-1.096928954E0,1.681967974E0,-4.164451063E-1
1.590169673E1,-1.102121115E0,1.801083088E0,-4.685198367E-1
1.591084907E1,-1.116323352E0,1.890725017E0,-4.821111858E-1
1.592000141E1,-1.135565042E0,1.963110328E0,-4.596625566E-1
1.592915376E1,-1.154348612E0,1.965706468E0,-4.097257853E-1
1.593830605E1,-1.166565537E0,1.926154137E0,-3.518480062E-1
1.594744563E1,-1.165496588E0,1.931040883E0,-3.048127890E-1
1.595661074E1,-1.150836229E0,1.920503736E0,-2.735068500E-1
1.596576308E1,-1.118766785E0,1.832083583E0,-2.403683960E-1
1.597491542E1,-1.073258638E0,1.636917949E0,-2.165453583E-1
1.598406777E1,-1.015228152E0,1.351957679E0,-2.263189107E-1
1.599322011E1,-9.468132257E-1,1.079672575E0,-2.599155009E-1
1.600237240E1,-8.635852933E-1,8.933641315E-1,-3.025220931E-1
1.601152475E1,-7.875348330E-1,8.035695553E-1,-3.361186981E-1
1.602067709E1,-7.340856791E-1,7.740961909E-1,-3.590254784E-1
1.602982944E1,-7.380561829E-1,7.401941419E-1,-3.637595475E-1
1.603898178E1,-7.898254991E-1,6.690304875E-1,-3.623851240E-1
1.604813412E1,-8.324320912E-1,6.003101468E-1,-3.613161445E-1
1.605728647E1,-8.347227573E-1,5.845808387E-1,-3.558185399E-1
1.606643876E1,-8.070819378E-1,6.655181050E-1,-3.556658030E-1
1.607559110E1,-7.780666947E-1,7.999044657E-1,-3.567348123E-1
1.608474344E1,-7.603521347E-1,8.812998533E-1,-3.567348123E-1
1.609389579E1,-7.288935184E-1,8.759549856E-1,-3.449759781E-1
1.610304813E1,-6.762079000E-1,7.603521347E-1,-3.243598938E-1
1.611220048E1,-6.349757314E-1,5.506787896E-1,-3.208475113E-1
1.612135282E1,-6.250494719E-1,3.512371778E-1,-3.455868363E-1
1.613050516E1,-6.007682681E-1,2.680092454E-1,-3.735330999E-1
1.613965746E1,-5.528167486E-1,2.209739983E-1,-3.810159862E-1
1.614880980E1,-5.073086619E-1,1.565296054E-1,-3.758237660E-1
1.615796214E1,-4.854708612E-1,1.163664013E-1,-3.652866483E-1
1.616711449E1,-5.001311898E-1,9.819369763E-2,-3.536805511E-1
1.617626683E1,-5.489989519E-1,5.299099907E-2,-3.529170156E-1
1.618541918E1,-5.935907960E-1,4.123218823E-3,-3.567348123E-1
1.619457152E1,-5.848862529E-1,1.068982761E-3,-3.549022675E-1
1.620372386E1,-5.216635466E-1,3.191677108E-2,-3.397837877E-1
1.621287621E1,-4.333961308E-1,5.451811850E-2,-3.086305857E-1
1.622202855E1,-3.310792148E-1,4.398100078E-2,-2.657185495E-1
1.623118084E1,-2.188360244E-1,1.542389300E-2,-2.252499312E-1
1.624033318E1,-8.429691941E-2,-1.863084175E-2,-1.937913001E-1
1.624948553E1,1.003316641E-1,-6.933116168E-2,-1.643179059E-1
1.625863787E1,3.197785318E-1,-9.483403713E-2,-1.304158866E-1
1.626779022E1,5.349494815E-1,-4.199574888E-2,-1.068982705E-1
1.627694256E1,7.186617851E-1,1.078145429E-1,-1.015533581E-1
1.628609490E1,8.825215697E-1,3.213056624E-1,-1.023169160E-1
1.629524725E1,1.054627776E0,5.054761171E-1,-8.047912270E-2
1.630438683E1,1.256665468E0,5.609105229E-1,-1.801999472E-2
1.631355194E1,1.488482118E0,4.446968138E-1,6.856760383E-2
1.632270428E1,1.723658204E0,2.345653474E-1,1.491994411E-1
1.633184381E1,1.944479585E0,4.520269856E-2,2.130329758E-1
1.634100891E1,2.130177021E0,-7.528692484E-2,2.615953386E-1
1.635016126E1,2.262272835E0,-1.087308154E-1,3.101576865E-1
1.635930084E1,2.332978487E0,-6.001574174E-2,3.790307343E-1
1.636846594E1,2.332062006E0,7.788302377E-3,4.705050886E-1
1.637761829E1,2.345500708E0,-2.687728032E-2,5.677825212E-1
1.638675787E1,2.436058760E0,-2.745758295E-1,6.632274389E-1
1.639592298E1,2.556548595E0,-7.783721089E-1,7.627955079E-1
1.640507532E1,2.609539509E0,-1.458245158E0,8.698465228E-1
1.641421490E1,2.557770252E0,-1.990598559E0,9.736905098E-1
1.642338001E1,2.545095205E0,-2.254331827E0,1.038440347E0
1.643253235E1,2.651840687E0,-2.344584465E0,1.022863746E0
1.644168464E1,2.833567619E0,-2.360924721E0,9.484930634E-1
1.645083699E1,3.000787258E0,-2.338017941E0,8.756495714E-1
1.645998933E1,3.084015131E0,-2.313431263E0,8.157865405E-1
1.646912897E1,3.069507360E0,-2.322135925E0,7.528692484E-1
1.647829402E1,2.975589752E0,-2.346569777E0,6.965186000E-1
1.648744636E1,2.825321198E0,-2.392841339E0,6.363501549E-1
1.649658594E1,2.671540499E0,-2.469197273E0,5.607577562E-1
1.650575105E1,2.553341627E0,-2.454689741E0,4.799732268E-1
1.651490339E1,2.480345249E0,-2.237533569E0,4.188885093E-1
1.652404298E1,2.451177359E0,-1.809024215E0,4.282039404E-1
1.653320808E1,2.445832491E0,-1.245212078E0,5.253286362E-1
1.654236043E1,2.434684515E0,-6.763606071E-1,6.763606071E-1
1.655151277E1,2.396353722E0,-1.925695986E-1,8.356390595E-1
1.656066511E1,2.335879803E0,1.898207814E-1,9.411629438E-1
1.656981746E1,2.258302212E0,4.506525695E-1,9.613208771E-1
1.657895704E1,2.158734322E0,5.833591223E-1,9.121476412E-1
1.658812209E1,2.036259413E0,5.914528370E-1,8.283088803E-1
1.659727444E1,1.895306349E0,4.804313779E-1,7.437065244E-1
1.660641402E1,1.741220117E0,3.016058207E-1,6.664343476E-1
1.661557912E1,1.579192877E0,1.149920002E-1,6.036698222E-1
1.662473147E1,1.442057610E0,-1.030804738E-1,5.456393361E-1
1.663388381E1,1.342489600E0,-3.144336343E-1,4.735593498E-1
1.664303615E1,1.257734537E0,-5.094466209E-1,3.869717419E-1
1.665218850E1,1.151752472E0,-6.817055345E-1,2.941229641E-1
1.666134084E1,1.047297597E0,-8.739697337E-1,1.867665499E-1
1.667049318E1,9.730796814E-1,-1.099830508E0,1.020114943E-1
1.667964553E1,9.095515609E-1,-1.265828252E0,5.894676223E-2
1.668879787E1,8.325847983E-1,-1.341420531E0,2.061609551E-2
1.669795022E1,7.328640223E-1,-1.338671803E0,-2.275406010E-2
1.670710256E1,6.026008129E-1,-1.283084631E0,-6.765133142E-2
1.671625490E1,4.482091665E-1,-1.186418056E0,-9.575030953E-2
1.672540725E1,3.035911024E-1,-1.057071209E0,-9.987352788E-2
1.673455959E1,1.777565479E-1,-9.205468297E-1,-9.483403713E-2
1.674371194E1,5.314370990E-2,-7.759287357E-1,-8.292251825E-2
1.675286428E1,-7.223268598E-2,-6.062659025E-1,-6.810946763E-2
1.676201662E1,-1.792836636E-1,-4.242334068E-1,-4.886778072E-2
1.677116897E1,-2.680092454E-1,-2.394521236E-1,-1.908897609E-2
1.678032126E1,-3.497100472E-1,-9.773556143E-3,9.468132630E-3
1.678947365E1,-4.271349311E-1,2.510582209E-1,1.679829881E-2
1.679862594E1,-5.065450668E-1,4.546230733E-1,1.420219894E-2
1.680777829E1,-5.887040496E-1,5.381564498E-1,2.092151903E-2
1.681693063E1,-6.617003083E-1,4.876088202E-1,3.741439432E-2
1.682608298E1,-7.099572420E-1,3.448232710E-1,6.047387794E-2
1.683523532E1,-7.317950130E-1,1.605001241E-1,9.407047927E-2
1.684438766E1,-7.427902818E-1,-1.893626526E-2,1.325538605E-1
1.685354001E1,-7.482879162E-1,-1.598892659E-1,1.637070626E-1
1.686269235E1,-7.415685654E-1,-2.423536479E-1,1.791309565E-1
1.687184470E1,-7.015580535E-1,-2.971771955E-1,1.800472289E-1
1.688099704E1,-6.604785919E-1,-3.495573401E-1,1.724116355E-1
1.689014938E1,-6.368082762E-1,-3.761292100E-1,1.554606259E-1
1.689930173E1,-6.400152445E-1,-4.170559645E-1,1.378987730E-1
1.690844131E1,-6.878139973E-1,-4.460712075E-1,1.302631795E-1
1.691760641E1,-7.501204610E-1,-4.408790171E-1,1.334701329E-1
1.692675876E1,-7.931851745E-1,-3.883461356E-1,1.488940120E-1
1.693589834E1,-7.980719209E-1,-2.605263591E-1,1.708845198E-1
1.694506345E1,-7.516475320E-1,-8.551862091E-3,1.959292591E-1
1.695421579E1,-7.430956960E-1,3.248180151E-1,2.367033064E-1
1.696336813E1,-8.918370008E-1,5.949652195E-1,2.977880239E-1
1.697252048E1,-1.160915256E0,6.807892919E-1,3.373403847E-1
1.698167282E1,-1.411209822E0,6.983511448E-1,3.080197275E-1
1.699082516E1,-1.510167122E0,7.930324674E-1,2.107423097E-1
1.699997751E1,-1.518413544E0,1.011257648E0,8.108997345E-2
1.700912985E1,-1.573237062E0,1.345085621E0,-4.596625641E-2
1.701826944E1,-1.675248623E0,1.734958887E0,-1.794363856E-1
1.702743454E1,-1.794058442E0,1.910730243E0,-3.324536085E-1
1.703658688E1,-1.918365836E0,1.750993609E0,-4.443913698E-1
1.704572647E1,-1.930582762E0,1.379293084E0,-4.422534108E-1
1.705489157E1,-1.735875249E0,1.319888234E0,-2.863346636E-1
1.706404391E1,-1.463131905E0,1.723200083E0,-3.802524135E-2
1.707318355E1,-1.386317849E0,1.707470775E0,6.383354217E-2
1.708234860E1,-1.412889719E0,7.879929543E-1,-3.588727489E-2
1.709150094E1,-1.351041436E0,-1.681357026E-1,-1.543916464E-1
1.710064053E1,-1.274227381E0,-5.590779781E-1,-1.462979168E-1
1.710980563E1,-1.303089857E0,-4.964661002E-1,-4.734066315E-3
1.711895798E1,-1.378682256E0,-3.475720882E-1,2.070772201E-1
1.712809761E1,-1.416096687E0,-2.469350100E-1,3.825430870E-1
1.713726272E1,-1.426175594E0,-2.550287247E-1,4.680617154E-1
1.714641501E1,-1.399451017E0,-2.904578745E-1,4.761554301E-1
1.715556735E1,-1.359745979E0,-3.127537966E-1,4.581354558E-1
1.716471975E1,-1.279419541E0,-3.935383558E-1,4.208737612E-1
1.717387209E1,-1.164580345E0,-4.495835900E-1,3.600944579E-1
1.718301168E1,-1.048061132E0,-4.636330605E-1,2.620534599E-1
1.719217678E1,-9.576557875E-1,-4.489727318E-1,1.343863904E-1
1.720132912E1,-9.063445926E-1,-4.052971601E-1,3.970507067E-3
1.721046871E1,-8.791618943E-1,-3.063398898E-1,-9.407047927E-2
1.721963381E1,-8.768712282E-1,-1.207950488E-1,-1.327065676E-1
1.722878615E1,-9.025267959E-1,1.261399537E-1,-1.415638477E-1
1.723792574E1,-9.709417224E-1,4.207210541E-1,-1.496575773E-1
1.724709084E1,-1.048213840E0,7.145385742E-1,-1.681357026E-1
1.725624319E1,-1.109298587E0,1.024085402E0,-1.944021434E-1
1.726539553E1,-1.145185947E0,1.261399627E0,-2.309002578E-1
1.727454787E1,-1.125944257E0,1.341420531E0,-2.802261710E-1
1.728370022E1,-1.049741030E0,1.325538516E0,-3.449759781E-1
1.729285256E1,-9.868237376E-1,1.291025639E0,-4.185830951E-1
1.730200490E1,-9.944593310E-1,1.337144613E0,-4.790569544E-1
1.731115725E1,-1.058750987E0,1.455649018E0,-5.015056133E-1
1.732029683E1,-1.128540277E0,1.523147583E0,-4.752391577E-1
1.732946194E1,-1.160915256E0,1.524063945E0,-3.972034156E-1
1.733861428E1,-1.155264854E0,1.467102408E0,-3.043546379E-1
1.734776662E1,-1.154043198E0,1.356539011E0,-2.267770469E-1
1.735691897E1,-1.163511276E0,1.216349602E0,-1.516428292E-1
1.736607131E1,-1.179240584E0,1.076312900E0,-9.055810422E-2
1.737522371E1,-1.197566032E0,9.787300229E-1,-6.123743951E-2
1.738437605E1,-1.195428133E0,8.631271720E-1,-4.657710344E-2
1.739352839E1,-1.161220670E0,7.698202729E-1,-4.932591692E-2
1.740268074E1,-1.104259133E0,7.498149872E-1,-8.368607610E-2
1.741183308E1,-1.048672080E0,7.623373866E-1,-1.353026628E-1
1.742098542E1,-1.019809484E0,7.212579250E-1,-1.789782494E-1
1.743013777E1,-1.036913276E0,7.235485911E-1,-2.102841735E-1
1.743929011E1,-1.078603506E0,7.901309133E-1,-2.460187376E-1
1.744844246E1,-1.090515018E0,8.315158486E-1,-2.954973578E-1
1.745759480E1,-1.063637733E0,8.180772066E-1,-3.576510847E-1
1.746674714E1,-9.918632507E-1,8.084563613E-1,-4.004103839E-1
1.747589949E1,-8.858812451E-1,8.235748410E-1,-4.132381678E-1
1.748505183E1,-7.798992395E-1,8.052493930E-1,-3.903313875E-1
1.749420418E1,-7.334748507E-1,7.632536292E-1,-3.503209054E-1
1.750335652E1,-7.591304183E-1,7.350019813E-1,-3.231382072E-1
1.751250886E1,-7.976137996E-1,7.579087615E-1,-3.153499067E-1
1.752166126E1,-7.837170362E-1,8.446490765E-1,-3.092414141E-1
1.753081360E1,-7.241594195E-1,9.579612017E-1,-3.071034551E-1
1.753996595E1,-6.507050395E-1,1.009272337E0,-3.164188862E-1
1.754911829E1,-5.703786016E-1,9.304730892E-1,-3.394783735E-1
1.755827063E1,-4.836383164E-1,7.605048418E-1,-3.724641204E-1
1.756742298E1,-3.826957941E-1,5.050179958E-1,-3.984251320E-1
1.757657532E1,-3.087832928E-1,1.586675793E-1,-4.103366435E-1
1.758572766E1,-2.971771955E-1,-1.643179059E-1,-4.124746025E-1
1.759486725E1,-3.176405728E-1,-3.023693860E-1,-4.004103839E-1
1.760403235E1,-3.720059693E-1,-2.373141646E-1,-3.733803928E-1
1.761318470E1,-4.596625566E-1,-8.964183182E-2,-3.509317636E-1
1.762233704E1,-5.468609929E-1,8.735115826E-2,-3.472666740E-1
1.763148938E1,-5.998520255E-1,2.281514555E-1,-3.619270027E-1
1.764064178E1,-6.051968932E-1,2.823641598E-1,-3.790307343E-1
1.764979412E1,-5.450284481E-1,2.415900975E-1,-3.736858070E-1
1.765894647E1,-4.292729199E-1,1.598892659E-1,-3.410054743E-1
1.766809881E1,-2.811424434E-1,1.127013192E-1,-2.855710983E-1
1.767725115E1,-1.273616552E-1,1.180462316E-1,-2.162399292E-1
1.768640350E1,3.008422814E-2,1.240019947E-1,-1.490467340E-1
1.769555584E1,2.040229887E-1,8.597674966E-2,-9.162709117E-2
1.770470818E1,4.146125913E-1,1.359135192E-2,-2.718270384E-2
1.771386053E1,6.668924689E-1,-3.268032894E-2,4.856235534E-2
1.772301287E1,9.339854717E-1,-2.473931387E-2,1.255291104E-1
1.773216522E1,1.186112642E0,8.399149403E-3,1.846285909E-1
1.774131761E1,1.412126184E0,2.275406010E-2,2.020377368E-1
1.775046996E1,1.622868419E0,-2.336490713E-2,1.797417998E-1
1.775960954E1,1.836817741E0,-9.132166207E-2,1.330119967E-1
1.776877464E1,2.064052820E0,-1.105633527E-1,7.910472155E-2
1.777792699E1,2.262272835E0,2.153236605E-2,1.206423342E-2
1.778706657E1,2.363520861E0,3.852919042E-1,-6.077930331E-2
1.779623168E1,2.370698214E0,7.937960029E-1,-1.189625040E-1
1.780538402E1,2.289761066E0,9.086353183E-1,-1.472141892E-1
1.781452365E1,2.166675329E0,5.066977739E-1,-1.014006436E-1
1.782368871E1,2.084516287E0,-3.840702176E-1,7.024743408E-2
1.783284110E1,2.121319771E0,-1.431215167E0,3.857500553E-1
1.784198068E1,2.276780367E0,-2.254026413E0,7.857022882E-1
1.785114579E1,2.464463234E0,-2.599460602E0,1.130983710E0
1.786029813E1,2.603889227E0,-2.469044685E0,1.287055135E0
1.786943772E1,2.684520960E0,-2.088944912E0,1.232995152E0
1.787860282E1,2.772941113E0,-1.748244882E0,1.052031636E0
1.788775516E1,2.883962631E0,-1.607291818E0,8.553388715E-1
1.789689480E1,2.973146439E0,-1.649287581E0,7.040014863E-1
1.790605985E1,2.988570213E0,-1.813605547E0,5.986303091E-1
1.791521225E1,2.900150061E0,-2.077491522E0,4.894413650E-1
1.792435183E1,2.719950199E0,-2.271130085E0,3.515425920E-1
1.793351694E1,2.498059750E0,-2.281667233E0,2.333436459E-1
1.794266928E1,2.279529333E0,-2.148349762E0,1.925695986E-1
1.795180886E1,2.115822077E0,-1.839872003E0,2.286095917E-1
1.796097397E1,2.052904844E0,-1.344169378E0,3.565820754E-1
1.797012631E1,2.096733332E0,-7.502731681E-1,5.690042377E-1
1.797927865E1,2.191720009E0,-1.546970755E-1,7.737907767E-1
1.798843100E1,2.264716148E0,3.654393852E-1,9.168817401E-1
1.799758339E1,2.279834747E0,7.154548764E-1,9.868237376E-1
1.800672298E1,2.227912664E0,8.893936276E-1,9.710944295E-1
1.801588808E1,2.108492136E0,9.063445926E-1,8.828269839E-1
1.802504042E1,1.944174170E0,7.875348330E-1,7.695148587E-1
1.803418001E1,1.776191115E0,5.842754245E-1,6.713211536E-1
1.804334511E1,1.638139606E0,3.584146202E-1,5.996993184E-1
1.805249746E1,1.531852245E0,1.169772521E-1,5.477772951E-1
1.806163709E1,1.455496311E0,-1.394258887E-1,5.059342384E-1
1.807080220E1,1.387997627E0,-4.277457893E-1,4.624113739E-1
1.807995454E1,1.331647038E0,-7.197307944E-1,3.955236077E-1
1.808910688E1,1.271173120E0,-9.509364963E-1,3.043546379E-1
1.809825923E1,1.211004734E0,-1.142895222E0,2.063136548E-1
1.810741157E1,1.125027895E0,-1.274227381E0,1.185043678E-1
1.811655115E1,1.004843712E0,-1.312710762E0,5.238015205E-2
1.812571626E1,8.785510659E-1,-1.294385314E0,7.635590737E-4
1.813486860E1,7.582141757E-1,-1.268118858E0,-3.665083647E-2
1.814400824E1,6.322268844E-1,-1.223832488E0,-5.894676223E-2
1.815317334E1,4.836383164E-1,-1.093874693E0,-5.283828825E-2
1.816232569E1,3.167243004E-1,-9.037485123E-1,-3.939964995E-2
1.817147803E1,1.391204596E-1,-6.972821355E-1,-2.687728032E-2
1.818063037E1,-2.993151546E-2,-4.662291706E-1,-2.076880634E-2
1.818978272E1,-1.710372269E-1,-2.651077211E-1,-9.162709117E-3
1.819893506E1,-2.777827978E-1,-1.211004704E-1,5.192201585E-3
1.820808740E1,-3.545968235E-1,-1.878355257E-2,2.779355086E-2
1.821723980E1,-4.023956358E-1,8.429691941E-2,5.360184610E-2
1.822639214E1,-4.421007037E-1,1.722589284E-1,7.650861889E-2
1.823554449E1,-5.089884996E-1,1.957765520E-1,8.460234851E-2
1.824469683E1,-6.163448691E-1,2.064663768E-1,7.834116369E-2
1.825384918E1,-7.430956960E-1,2.652604282E-1,6.688777357E-2
1.826300152E1,-8.707627654E-1,3.445178568E-1,5.803048983E-2
1.827215386E1,-9.900307059E-1,3.840702176E-1,6.032116711E-2
1.828130626E1,-1.082879424E0,3.490992188E-1,7.864658535E-2
1.829045860E1,-1.123806238E0,2.244863659E-1,1.107160673E-1
1.829961094E1,-1.100135922E0,3.176405653E-2,1.378987730E-1
1.830876329E1,-9.604045749E-1,-1.513374150E-1,1.346918195E-1
1.831791563E1,-7.554653287E-1,-2.276933193E-1,7.513421029E-2
1.832706798E1,-6.322268844E-1,-1.038440317E-1,-4.001049697E-2
1.833620761E1,-6.558972597E-1,1.444653720E-1,-1.814216375E-1
1.834537272E1,-7.970029712E-1,3.414636254E-1,-3.077143133E-1
1.835452506E1,-9.576557875E-1,5.583143830E-1,-3.877353072E-1
1.836366464E1,-1.112200141E0,6.786513329E-1,-4.078932703E-1
1.837282975E1,-1.313932419E0,5.662553906E-1,-3.939964771E-1
1.838198209E1,-1.492299795E0,8.028060198E-1,-2.562504113E-1
1.839112168E1,-1.498408318E0,1.698155403E0,5.085303262E-2
1.840028678E1,-1.469698548E0,2.248681545E0,2.930539846E-1
1.840943918E1,-1.541625738E0,1.669445515E0,2.709107697E-1
1.841857876E1,-1.521773219E0,8.107470274E-1,1.258345395E-1
1.842774386E1,-1.367228866E0,5.297572613E-1,2.825168520E-2
1.843689621E1,-1.327218413E0,5.723638535E-1,-5.451811850E-2
1.844603579E1,-1.411057115E0,6.183301210E-1,-1.345391124E-1
1.845520089E1,-1.475348830E0,4.552339315E-1,-1.850867122E-1
1.846435329E1,-1.545443535E0,8.689302206E-2,-1.980672181E-1
1.847350563E1,-1.568350315E0,-3.239017725E-1,-1.679829955E-1
1.848265798E1,-1.515359282E0,-5.760289431E-1,-9.040539712E-2
1.849181032E1,-1.445111871E0,-7.450809479E-1,-1.603474095E-2
1.850096266E1,-1.372268319E0,-7.748597264E-1,2.107422985E-2
1.851011501E1,-1.327676535E0,-6.041279435E-1,3.603998944E-2
1.851926735E1,-1.299577594E0,-3.576510847E-1,3.787253052E-2
1.852841975E1,-1.274532795E0,-3.833066672E-2,2.321219631E-2
1.853757209E1,-1.288887739E0,2.658712566E-1,5.803049076E-3
1.854672444E1,-1.349819779E0,4.604261220E-1,-7.024743594E-3
1.855587678E1,-1.407697558E0,6.044333577E-1,-2.168507688E-2
1.856502912E1,-1.432894945E0,7.368345261E-1,-1.695101149E-2
1.857418147E1,-1.440225124E0,7.942541242E-1,-7.330167107E-3
1.858333381E1,-1.426939249E0,8.134958148E-1,1.374406274E-3
1.859248621E1,-1.390441060E0,7.983773947E-1,-3.970507067E-3
1.860163855E1,-1.348292589E0,7.754706144E-1,-2.260134928E-2
1.861079089E1,-1.294232607E0,7.513421178E-1,-5.940489471E-2
1.861994324E1,-1.232078910E0,7.182036638E-1,-1.096470803E-1
1.862909558E1,-1.191915751E0,7.337802649E-1,-1.600419879E-1
1.863824792E1,-1.196344376E0,8.299887180E-1,-1.925695986E-1
1.864740032E1,-1.219709277E0,9.775083065E-1,-2.061609477E-1
1.865655266E1,-1.239714503E0,1.137855768E0,-2.064663768E-1
1.866570501E1,-1.281099439E0,1.282931924E0,-2.055501044E-1
1.867485735E1,-1.340656996E0,1.407697558E0,-1.982199401E-1
1.868400970E1,-1.366159916E0,1.493216157E0,-1.818797737E-1
1.869316204E1,-1.334854007E0,1.504669547E0,-1.969982386E-1
1.870231444E1,-1.283695459E0,1.444348335E0,-2.264716178E-1
1.871146678E1,-1.254374862E0,1.347376347E0,-2.444916219E-1
1.872061912E1,-1.254527569E0,1.237576604E0,-2.506000996E-1
1.872977147E1,-1.242921472E0,1.181531310E0,-2.565558553E-1
1.873892381E1,-1.209782958E0,1.201536536E0,-2.600682080E-1
1.874807615E1,-1.143047929E0,1.179240584E0,-2.527380586E-1
1.875722855E1,-1.076160192E0,1.067455530E0,-2.425063550E-1
1.876638089E1,-1.007439852E0,8.903098702E-1,-2.437280566E-1
1.877553324E1,-9.457442760E-1,7.626428008E-1,-2.712161839E-1
1.878468558E1,-9.009997249E-1,7.275190949E-1,-3.142809272E-1
1.879383793E1,-8.588512540E-1,7.262973785E-1,-3.512371778E-1
1.880299027E1,-8.616000414E-1,7.111788988E-1,-3.732276857E-1
1.881214266E1,-9.058864713E-1,7.621846795E-1,-3.790307343E-1
1.882129501E1,-9.446752667E-1,8.205205798E-1,-3.872771561E-1
1.883044735E1,-9.663603902E-1,8.440381885E-1,-4.027010500E-1
1.883959970E1,-9.694145918E-1,8.583931327E-1,-4.283566475E-1
1.884875204E1,-9.645278454E-1,8.877137899E-1,-4.668400288E-1
1.885789162E1,-8.965710402E-1,1.016755223E0,-4.989095032E-1
1.886705673E1,-7.330167294E-1,1.128387570E0,-4.972296655E-1
1.887620912E1,-5.508314967E-1,9.993461370E-1,-4.604261220E-1
1.888536147E1,-4.459185004E-1,6.158867478E-1,-4.104893506E-1
1.889451381E1,-4.330907166E-1,1.995943487E-1,-3.674246371E-1
1.890366615E1,-4.401154518E-1,-6.123743951E-2,-3.452814221E-1
1.891281850E1,-4.274403751E-1,-1.769929975E-1,-3.384093940E-1
1.892197084E1,-4.256078303E-1,-2.516690791E-1,-3.413109183E-1
1.893112324E1,-4.688252807E-1,-3.072561622E-1,-3.440597057E-1
1.894026282E1,-5.395308137E-1,-3.271087110E-1,-3.377985358E-1
1.894942793E1,-6.001574397E-1,-3.092414141E-1,-3.431434333E-1
1.895858027E1,-6.332958937E-1,-2.449497581E-1,-3.642176688E-1
1.896773261E1,-6.365028620E-1,-1.449235082E-1,-3.892624080E-1
1.897688496E1,-6.174138784E-1,-6.963659078E-2,-4.033119082E-1
1.898603735E1,-5.781669021E-1,-5.085303262E-2,-3.981196880E-1
1.899518970E1,-5.193728805E-1,-7.788302749E-2,-3.781144619E-1
1.900434204E1,-4.422534108E-1,-1.041494608E-1,-3.520007432E-1
1.901349438E1,-3.368822634E-1,-1.140757278E-1,-3.304683566E-1
1.902264673E1,-1.983726472E-1,-9.513945878E-2,-3.202366829E-1
1.903179907E1,-8.246437646E-3,-5.864133686E-2,-3.202366829E-1
1.904095147E1,2.473931462E-1,-4.428642616E-2,-3.049654961E-1
1.905010381E1,5.540384650E-1,-3.833066672E-2,-2.551814318E-1
1.905925615E1,8.733588457E-1,1.023169141E-2,-1.748550236E-1
1.906840850E1,1.165649295E0,8.567132801E-2,-8.918370306E-2
1.907756084E1,1.395938754E0,1.507265568E-1,-3.084778599E-2
1.908671324E1,1.547886968E0,1.782146841E-1,-1.389677543E-2
1.909586558E1,1.639972210E0,1.630962193E-1,-3.512371704E-2
1.910501793E1,1.709761500E0,1.546970755E-1,-6.765133142E-2
1.911417027E1,1.792989373E0,1.632489264E-1,-7.925742865E-2
1.912332261E1,1.901872993E0,1.785201132E-1,-6.261184067E-2
1.913247496E1,1.992278337E0,2.637332976E-1,-4.627167806E-2
1.914162730E1,2.068328857E0,4.465293586E-1,-2.504473738E-2
1.915077970E1,2.222109556E0,4.398100376E-1,3.100049868E-2
1.915991928E1,2.398949862E0,-2.519745007E-2,1.718007922E-1
1.916908438E1,2.532725334E0,-9.434536099E-1,4.604261220E-1
1.917823673E1,2.578080893E0,-1.927681208E0,8.412894011E-1
1.918737631E1,2.600224018E0,-2.493020296E0,1.169161677E0
1.919654141E1,2.679328680E0,-2.594115496E0,1.320040941E0
1.920569381E1,2.818601847E0,-2.502335787E0,1.284917235E0
1.921483339E1,2.957875252E0,-2.426896095E0,1.134343386E0
1.922399850E1,3.047822475E0,-2.392535925E0,9.304730892E-1
1.923315084E1,3.066300631E0,-2.443999767E0,7.302678823E-1
1.924229042E1,3.000481844E0,-2.589228868E0,5.858024955E-1
1.925145553E1,2.848380804E0,-2.777827978E0,4.938700199E-1
1.926060793E1,2.644815922E0,-2.861514091E0,4.130854607E-1
1.926974751E1,2.487370014E0,-2.715674162E0,3.251234591E-1
1.927891261E1,2.436822414E0,-2.276169538E0,2.713688910E-1
1.928806496E1,2.464768648E0,-1.625006437E0,3.333698809E-1
1.929721730E1,2.517759800E0,-9.217684865E-1,4.773771465E-1
1.930636964E1,2.525547981E0,-2.770192325E-1,6.369609833E-1
1.931552204E1,2.470113516E0,2.809897363E-1,7.881456614E-1
1.932467438E1,2.383526087E0,7.404996157E-1,9.130639434E-1
1.933382673E1,2.282278061E0,1.004691005E0,9.927794933E-1
1.934297907E1,2.182099104E0,1.104564548E0,1.011563063E0
1.935211865E1,2.090624809E0,1.081963181E0,9.730796814E-1
1.936128376E1,1.985558987E0,9.875873327E-1,9.022213817E-1
1.937043615E1,1.866443753E0,8.406785131E-1,8.397622705E-1
1.937957574E1,1.768708229E0,6.102364063E-1,8.067765236E-1
1.938874084E1,1.693726778E0,3.284831047E-1,7.783721089E-1
1.939789318E1,1.614163876E0,6.306997687E-2,7.285880446E-1
1.940703277E1,1.527576327E0,-2.180724740E-1,6.700994372E-1
1.941619787E1,1.463284612E0,-4.957025647E-1,5.850389600E-1
1.942535027E1,1.413347840E0,-7.348492742E-1,4.859289825E-1
1.943450261E1,1.348445296E0,-9.390249252E-1,3.872771561E-1
1.944365496E1,1.258345366E0,-1.108840466E0,3.067980409E-1
1.945280730E1,1.166107416E0,-1.238187432E0,2.519744933E-1
1.946194688E1,1.062721491E0,-1.300493836E0,2.041756958E-1
1.947111199E1,9.220739603E-1,-1.267813444E0,1.397313178E-1
1.948026438E1,7.325585485E-1,-1.134648800E0,7.467607409E-2
1.948941673E1,5.222744346E-1,-9.628480077E-1,1.878355257E-2
1.949856907E1,3.245126009E-1,-8.145648241E-1,-3.023693897E-2
1.950772141E1,1.640124917E-1,-6.913263798E-1,-6.154286116E-2
1.951687376E1,4.275930673E-2,-5.752654076E-1,-7.956285775E-2
1.952602615E1,-5.115845799E-2,-4.091149569E-1,-8.887827396E-2
1.953517850E1,-1.507265568E-1,-1.574458778E-1,-8.674030751E-2
1.954433084E1,-2.777827978E-1,1.172826737E-1,-6.887302548E-2
1.955348318E1,-4.259132445E-1,3.358132839E-1,-4.184303805E-2
1.956263553E1,-5.515950918E-1,4.604261220E-1,-2.214321308E-2
1.957178787E1,-6.184828281E-1,5.013529062E-1,-1.359135192E-2
1.958094027E1,-6.287145615E-1,4.622586668E-1,4.734066315E-3
1.959009261E1,-6.290199757E-1,3.399364948E-1,5.008947477E-2
1.959924496E1,-6.664343476E-1,2.136438340E-1,1.023169160E-1
1.960839730E1,-7.418739796E-1,1.473668963E-1,1.476723254E-1
1.961754964E1,-8.454126120E-1,7.925742865E-2,1.721062213E-1
1.962670199E1,-9.494093657E-1,-1.985253580E-2,1.664558798E-1
1.963585433E1,-9.991934299E-1,-8.383878320E-2,1.406475753E-1
1.964500673E1,-9.556705356E-1,-1.116323397E-1,1.079672500E-1
1.965415907E1,-8.307522535E-1,-1.423274130E-1,6.673506647E-2
1.966331141E1,-6.678087711E-1,-1.470614821E-1,8.551862091E-3
1.967246376E1,-5.690042377E-1,1.618745178E-2,-4.703523964E-2
1.968160339E1,-6.288672686E-1,1.612636745E-1,-6.276455522E-2
1.969076844E1,-8.997780085E-1,-1.389677543E-2,-4.749337584E-2
1.969992084E1,-1.367076159E0,-2.295258641E-1,-6.108472589E-4
1.970906042E1,-1.848576546E0,9.483403713E-2,7.513421029E-2
1.971822553E1,-1.936233044E0,9.979717135E-1,2.357870489E-1
1.972737787E1,-1.607139111E0,1.870108843E0,4.828747511E-1
1.973651751E1,-1.398534775E0,1.723200083E0,5.662553906E-1
1.974568261E1,-1.457787037E0,6.652126908E-1,3.229855001E-1
1.975483496E1,-1.577818513E0,-1.136175916E-1,2.107422985E-2
1.976397454E1,-1.591562510E0,-5.253286287E-2,-7.437065244E-2
1.977313964E1,-1.587592006E0,2.580829561E-1,-2.748812735E-2
1.978229199E1,-1.604237556E0,8.170082420E-2,2.260134928E-2
1.979143162E1,-1.567739487E0,-3.593308926E-1,5.497625470E-2
1.980059673E1,-1.544374585E0,-6.728482842E-1,1.218640283E-1
1.980974907E1,-1.548803210E0,-8.609892130E-1,2.411319613E-1
1.981890141E1,-1.518871665E0,-9.646805525E-1,3.903313875E-1
1.982805376E1,-1.435796499E0,-1.051573515E0,4.831801951E-1
1.983720610E1,-1.344016671E0,-1.118919492E0,4.790569544E-1
1.984634574E1,-1.302784443E0,-1.072189689E0,4.030064642E-1
1.985551084E1,-1.315154195E0,-8.014315963E-1,2.835858464E-1
1.986466318E1,-1.350583315E0,-4.434750974E-1,1.750077456E-1
1.987380277E1,-1.358677030E0,-1.183516532E-1,1.001789495E-1
1.988296787E1,-1.334395885E0,2.171562016E-1,6.841489673E-2
1.989212022E1,-1.342489600E0,5.812211633E-1,7.788302749E-2
1.990127256E1,-1.387692213E0,8.724426031E-1,9.620844573E-2
1.991042496E1,-1.414416790E0,1.099525094E0,1.079672500E-1
1.991957730E1,-1.415485859E0,1.279114127E0,1.097997949E-1
1.992871688E1,-1.389066696E0,1.311030984E0,9.590301663E-2
1.993788199E1,-1.334701300E0,1.223527074E0,5.787777901E-2
1.994703433E1,-1.269951463E0,1.129456639E0,-1.007897966E-2
1.995618668E1,-1.221999884E0,1.040578246E0,-7.925742865E-2
1.996533907E1,-1.193595529E0,9.042066336E-1,-1.443126649E-1
1.997449141E1,-1.164885759E0,7.637118101E-1,-2.020377368E-1
1.998364376E1,-1.128082156E0,6.594096422E-1,-2.414373755E-1
1.999279610E1,-1.093874693E0,5.766398311E-1,-2.599155009E-1
2.000194844E1,-1.074633002E0,5.526640415E-1,-2.634278834E-1
2.001110084E1,-1.072495103E0,5.833591223E-1,-2.591519356E-1
2.002025318E1,-1.095707297E0,6.207735538E-1,-2.533488870E-1
2.002940553E1,-1.109145880E0,6.901046634E-1,-2.661767006E-1
2.003855787E1,-1.109451294E0,8.073873520E-1,-2.895416021E-1
2.004771022E1,-1.118003249E0,9.344435930E-1,-3.043546379E-1
2.005686256E1,-1.127776742E0,1.067608237E0,-3.100049794E-1
2.006601496E1,-1.140146375E0,1.232689738E0,-3.292466700E-1
2.007516730E1,-1.146407604E0,1.466949701E0,-3.513898849E-1
2.008431964E1,-1.148087382E0,1.725490808E0,-3.594835997E-1
2.009347199E1,-1.162747741E0,1.922489047E0,-3.542914093E-1
2.010262433E1,-1.157250166E0,1.994874477E0,-3.457395434E-1
2.011177668E1,-1.103648305E0,1.980519533E0,-3.318427801E-1
2.012092907E1,-1.052031636E0,1.936080337E0,-3.248180151E-1
2.013008141E1,-1.030346632E0,1.860640764E0,-3.477247953E-1
2.013923376E1,-9.921686649E-1,1.747939467E0,-4.005630910E-1
2.014837334E1,-9.478822351E-1,1.634474516E0,-4.556920528E-1
2.015753844E1,-9.127585292E-1,1.531852245E0,-4.963133931E-1
2.016669079E1,-8.570187092E-1,1.367381573E0,-5.128062963E-1
2.017584318E1,-7.869240046E-1,1.093263865E0,-5.054761171E-1
2.018499553E1,-7.267554998E-1,8.397622705E-1,-4.938700199E-1
2.019414787E1,-6.720846891E-1,7.247702479E-1,-4.952444136E-1
2.020330022E1,-6.349757314E-1,7.120952010E-1,-5.034908652E-1
2.021245256E1,-6.281036735E-1,7.127060294E-1,-5.169295073E-1
2.022160496E1,-6.563553810E-1,7.168292403E-1,-5.372401476E-1
2.023075730E1,-6.774296165E-1,7.295043468E-1,-5.410579443E-1
2.023990964E1,-6.691831946E-1,7.518002391E-1,-5.209000111E-1
2.024906199E1,-6.426113248E-1,7.478297353E-1,-4.944808483E-1
2.025821433E1,-6.122216582E-1,7.050704360E-1,-4.734066129E-1
2.026736668E1,-5.969504714E-1,6.508577466E-1,-4.683671296E-1
2.027651907E1,-6.560499668E-1,6.513158679E-1,-4.865398407E-1
2.028567141E1,-7.678350210E-1,6.865923405E-1,-5.123481154E-1
2.029482376E1,-8.483141065E-1,7.249229550E-1,-5.227325559E-1
2.030397610E1,-8.780929446E-1,7.365291119E-1,-4.996730685E-1
2.031312844E1,-8.797727823E-1,6.916317940E-1,-4.361449480E-1
2.032228079E1,-8.721371889E-1,5.627430081E-1,-3.628432751E-1
2.033143318E1,-8.402203918E-1,3.474193811E-1,-3.165715933E-1
2.034058553E1,-7.660024762E-1,9.086353332E-2,-3.043546379E-1
2.034973787E1,-6.700994372E-1,-1.446180940E-1,-2.961082160E-1
2.035889022E1,-5.515950918E-1,-3.269560039E-1,-2.609844804E-1
2.036804256E1,-4.162923992E-1,-4.637857676E-1,-1.927223057E-1
2.037719496E1,-2.693836391E-1,-5.891621709E-1,-1.079672500E-1
2.038634730E1,-1.024696305E-1,-6.905628443E-1,-3.894151375E-2
2.039549964E1,1.050657257E-1,-7.557707429E-1,-1.527118147E-4
2.040465199E1,3.399364948E-1,-7.649334669E-1,1.191152167E-2
2.041380433E1,5.661026835E-1,-6.856760383E-1,6.108472589E-4
2.042295668E1,7.482879162E-1,-5.063923597E-1,-6.872031838E-3
2.043210907E1,8.622109294E-1,-2.929012477E-1,4.275931045E-3
2.044126141E1,9.126058221E-1,-1.264453828E-1,1.053711493E-2
2.045040100E1,9.272661209E-1,-2.962609194E-2,-2.168507688E-2
2.045956610E1,9.533798695E-1,1.275143623E-1,-1.041494608E-1
2.046871844E1,1.033706307E0,4.332434237E-1,-2.154763639E-1
2.047787084E1,1.173437595E0,7.760814428E-1,-3.106158376E-1
2.048702318E1,1.380667567E0,8.443436027E-1,-3.330644667E-1
2.049617553E1,1.641346574E0,3.859027624E-1,-2.539597452E-1
2.050531511E1,1.920809150E0,-4.341596961E-1,-4.688252881E-2
2.051448022E1,2.242114782E0,-1.380209327E0,2.993151546E-1
2.052363256E1,2.569681644E0,-2.159345150E0,6.820109487E-1
2.053278496E1,2.812493563E0,-2.495158434E0,9.703308940E-1
2.054193730E1,2.894041538E0,-2.287928343E0,1.094791055E0
2.055108964E1,2.932983160E0,-1.789782524E0,1.021947503E0
2.056022923E1,3.065384150E0,-1.467865944E0,8.072346449E-1
2.056939433E1,3.238559484E0,-1.493826985E0,5.824428797E-1
2.057854673E1,3.308654070E0,-1.694795728E0,4.640912116E-1
2.058768631E1,3.221150398E0,-1.912410021E0,4.805840850E-1
2.059685141E1,3.014683962E0,-2.096885920E0,5.549547076E-1
2.060600376E1,2.792793751E0,-2.201951742E0,6.122216582E-1
2.061514339E1,2.631835461E0,-2.187749386E0,6.195518374E-1
2.062430844E1,2.566016674E0,-2.061151266E0,6.207735538E-1
2.063346084E1,2.572888613E0,-1.780467033E0,6.116108298E-1
2.064260042E1,2.594420910E0,-1.294079900E0,6.198572516E-1
2.065176553E1,2.602056503E0,-7.094991207E-1,6.468872428E-1
2.066091787E1,2.603583813E0,-1.922641695E-1,6.844543815E-1
2.067007027E1,2.595337391E0,1.574458778E-1,7.275190949E-1
2.067922261E1,2.558228254E0,3.008422852E-1,7.540909648E-1
2.068837496E1,2.479581833E0,3.326063454E-1,7.547017932E-1
2.069751454E1,2.366422176E0,3.119902313E-1,7.380561829E-1
2.070667964E1,2.239671469E0,2.828222811E-1,7.285880446E-1
2.071583199E1,2.116891146E0,2.483094037E-1,7.276718020E-1
2.072497162E1,2.003578901E0,1.600419879E-1,7.319477201E-1
2.073413673E1,1.901109338E0,2.076880634E-2,7.441646457E-1
2.074328907E1,1.831930876E0,-1.708845198E-1,7.418739796E-1
2.075244141E1,1.794974685E0,-4.314108789E-1,7.070556879E-1
2.076159376E1,1.767333865E0,-6.992673874E-1,6.563553810E-1
2.077074615E1,1.739540339E0,-9.388722181E-1,5.861079693E-1
2.077989850E1,1.689908981E0,-1.136939406E0,5.016583204E-1
2.078905084E1,1.610956907E0,-1.304922462E0,4.052971601E-1
2.079820319E1,1.517497301E0,-1.410904408E0,3.028275371E-1
2.080735553E1,1.413195133E0,-1.434880257E0,2.171562016E-1
2.081650792E1,1.298966646E0,-1.384638071E0,1.608055383E-1
2.082566027E1,1.178629756E0,-1.273616552E0,1.189625040E-1
2.083481261E1,1.053406119E0,-1.107618809E0,8.857285231E-2
2.084396496E1,9.255862832E-1,-9.355126023E-1,7.299624383E-2
2.085311730E1,7.782194018E-1,-7.795938253E-1,6.200099736E-2
2.086226964E1,6.085565686E-1,-6.270347238E-1,5.039490014E-2
2.087142204E1,4.220954478E-1,-5.086830258E-1,1.771457121E-2
2.088057438E1,2.396048307E-1,-3.422271907E-1,-2.764083818E-2
2.088972673E1,1.084253863E-1,-1.244601309E-1,-7.574506104E-2
2.089887907E1,3.191677108E-2,-3.436015919E-2,-1.099525094E-1
2.090803141E1,-3.436015919E-2,-1.971509457E-1,-1.261399537E-1
2.091718381E1,-7.650861889E-2,-3.732276857E-1,-1.146865711E-1
2.092633615E1,-9.865183383E-2,-3.362714052E-1,-5.818320066E-2
2.093548850E1,-1.713426560E-1,-1.721062213E-1,2.183778957E-2
2.094464084E1,-3.032856584E-1,2.137965523E-3,9.651386738E-2
2.095379319E1,-4.271349311E-1,4.001049697E-2,1.560714692E-1
2.096294558E1,-5.196782947E-1,-1.130067408E-1,1.916533262E-1
2.097209792E1,-6.029062271E-1,-3.842229247E-1,2.082989216E-1
2.098125027E1,-6.849125028E-1,-6.012263894E-1,2.225011140E-1
2.099040261E1,-7.580614686E-1,-6.345176101E-1,2.342599183E-1
2.099955496E1,-8.223531246E-1,-5.453338623E-1,2.417428046E-1
2.100870735E1,-8.582404256E-1,-4.538595080E-1,2.327328026E-1
2.101785970E1,-8.353336453E-1,-4.503471553E-1,2.127275616E-1
2.102701204E1,-7.864658237E-1,-5.358657837E-1,2.040229887E-1
2.103616438E1,-7.492041588E-1,-6.387935281E-1,2.037175596E-1
2.104531673E1,-7.006418109E-1,-6.858287454E-1,1.821851879E-1
2.105446912E1,-6.633801460E-1,-6.154286265E-1,1.214058921E-1
2.106362147E1,-6.778877378E-1,-3.295520842E-1,3.436015919E-2
2.107277381E1,-7.232431769E-1,8.582404256E-2,-3.222219273E-2
2.108192615E1,-7.459971905E-1,4.454603493E-1,-4.611896724E-2
2.109107850E1,-7.302678823E-1,6.656708121E-1,-3.970507067E-3
2.110023084E1,-7.414158583E-1,7.641699314E-1,7.391251624E-2
2.110938324E1,-8.273926377E-1,8.331956863E-1,1.600419879E-1
2.111853558E1,-9.425373077E-1,9.283351302E-1,2.214321345E-1
2.112768792E1,-1.025001645E0,9.969027042E-1,2.165453583E-1
2.113684027E1,-1.085475564E0,1.097234368E0,1.470614821E-1
2.114599261E1,-1.205965161E0,1.388913989E0,5.314370990E-2
2.115514501E1,-1.448013425E0,1.762294292E0,-5.940489471E-2
2.116428459E1,-1.674790502E0,2.027249336E0,-1.606528312E-1
2.117344970E1,-1.801694036E0,2.228218079E0,-1.776038408E-1
2.118260204E1,-1.771609783E0,2.281514406E0,-1.212531775E-1
2.119174168E1,-1.516733766E0,1.873010397E0,-6.963659078E-2
2.120090678E1,-1.289803982E0,1.288429618E0,-4.810422286E-2
2.121005912E1,-1.215738773E0,8.701519370E-1,-6.383354217E-2
2.121919871E1,-1.252542257E0,3.093941510E-1,-1.198787764E-1
2.122836381E1,-1.303700805E0,-3.434488773E-1,-1.814216375E-1
2.123751615E1,-1.156486630E0,-6.939224601E-1,-1.666085869E-1
2.124666855E1,-9.932376146E-1,-6.690304875E-1,-2.993151546E-2
2.125582089E1,-9.706363082E-1,-6.048914790E-1,1.692046970E-1
2.126497324E1,-9.880454540E-1,-6.030589342E-1,3.498627543E-1
2.127411282E1,-1.000720501E0,-5.598415136E-1,4.602734149E-1
2.128327792E1,-1.000109673E0,-4.091149569E-1,4.802786708E-1
2.129243027E1,-9.924740791E-1,-2.195995897E-1,4.234698713E-1
2.130158266E1,-9.912523627E-1,-8.200624585E-2,3.165715933E-1
2.131073501E1,-9.736905098E-1,3.206948051E-3,1.962346882E-1
2.131988735E1,-9.381086826E-1,7.696675509E-2,8.154810965E-2
2.132903970E1,-8.933641315E-1,1.603474021E-1,-2.015795931E-2
2.133819209E1,-8.440381885E-1,1.872246861E-1,-1.003316641E-1
2.134734444E1,-8.133431077E-1,2.860292196E-1,-1.374406368E-1
2.135649678E1,-8.011261821E-1,4.282039404E-1,-1.319430023E-1
2.136564912E1,-7.924215794E-1,5.609105229E-1,-1.070509851E-1
2.137480147E1,-7.802046537E-1,6.894938350E-1,-7.101099193E-2
2.138395386E1,-7.656970620E-1,7.661551833E-1,-3.359659761E-2
2.139310621E1,-7.766922712E-1,8.295305967E-1,-9.468132630E-3
2.140225855E1,-8.131904006E-1,8.415948153E-1,-6.566607859E-3
2.141141089E1,-8.509102464E-1,7.896727920E-1,-2.519745007E-2
2.142056324E1,-8.718317747E-1,7.369872332E-1,-6.245913357E-2
2.142971563E1,-8.680139780E-1,6.662816405E-1,-1.107160673E-1
2.143886798E1,-8.186880350E-1,5.624375939E-1,-1.627907902E-1
2.144802032E1,-7.653915882E-1,3.990359604E-1,-2.067717910E-1
2.145717266E1,-7.530219555E-1,2.736595869E-1,-2.420482337E-1
2.146632501E1,-7.652388811E-1,2.012741715E-1,-2.609844804E-1
2.147547740E1,-7.753179073E-1,2.301367074E-1,-2.507528067E-1
2.148462975E1,-7.895200849E-1,3.520007432E-1,-2.228065431E-1
2.149378209E1,-7.988355160E-1,4.882196784E-1,-1.960819662E-1
2.150293444E1,-7.980719209E-1,6.016845703E-1,-1.858502775E-1
2.151208678E1,-7.948650122E-1,6.546755433E-1,-1.846285909E-1
2.152123918E1,-7.817317843E-1,7.101099491E-1,-1.979145110E-1
2.153039152E1,-7.689039707E-1,8.131904006E-1,-2.113531530E-1
2.153954386E1,-7.771504521E-1,9.017632604E-1,-2.121167034E-1
2.154869621E1,-7.941014171E-1,9.433009028E-1,-2.092151791E-1
2.155784855E1,-7.989882231E-1,9.384140968E-1,-2.202104330E-1
2.156700089E1,-7.551599145E-1,9.474241138E-1,-2.455606014E-1
2.157615329E1,-6.667397618E-1,9.914051294E-1,-2.761029601E-1
2.158530563E1,-6.172611713E-1,9.805625677E-1,-2.996205688E-1
2.159445798E1,-6.534538269E-1,9.074136019E-1,-3.272614181E-1
2.160361032E1,-7.120952010E-1,8.704573512E-1,-3.759764731E-1
2.161276272E1,-7.357655168E-1,9.243646264E-1,-4.414898455E-1
2.162191506E1,-7.362236381E-1,1.011563063E0,-4.958552718E-1
2.163106740E1,-7.488987446E-1,1.060889006E0,-5.192201734E-1
2.164021975E1,-7.669187188E-1,1.066233873E0,-5.150969625E-1
2.164937209E1,-7.855495811E-1,1.071120620E0,-4.914266169E-1
2.165852449E1,-7.944068313E-1,1.086849928E0,-4.566083252E-1
2.166767683E1,-7.882983685E-1,1.073258638E0,-4.248442650E-1
2.167682918E1,-7.779139876E-1,1.008203387E0,-4.027010500E-1
2.168598152E1,-7.910472155E-1,9.503256083E-1,-3.936910629E-1
2.169513391E1,-8.330429196E-1,9.032903910E-1,-3.872771561E-1
2.170428626E1,-9.028322697E-1,9.104678631E-1,-3.834593594E-1
2.171343860E1,-9.842276573E-1,9.898779988E-1,-4.066715539E-1
2.172259094E1,-1.072189689E0,1.046228647E0,-4.268295169E-1
2.173174334E1,-1.132510781E0,9.588775039E-1,-3.941491842E-1
2.174088292E1,-1.064095974E0,7.200362086E-1,-3.361186981E-1
2.175004803E1,-9.179506898E-1,4.810422063E-1,-2.898470163E-1
2.175920037E1,-8.183826208E-1,3.124483824E-1,-2.932066917E-1
2.176835272E1,-7.869240046E-1,2.629697323E-1,-3.405473530E-1
2.177750506E1,-7.740961909E-1,2.929012477E-1,-3.912476599E-1
2.178665746E1,-7.624900937E-1,3.037438095E-1,-4.161396921E-1
2.179580980E1,-7.740961909E-1,3.060344756E-1,-4.138490260E-1
2.180496214E1,-7.748597264E-1,3.037438095E-1,-3.979669809E-1
2.181411449E1,-7.594358325E-1,3.640649617E-1,-3.880407214E-1
2.182326683E1,-7.421793938E-1,4.477510452E-1,-3.886515796E-1
2.183241923E1,-7.195780873E-1,4.720322192E-1,-3.939964771E-1
2.184157157E1,-6.930062175E-1,4.624113739E-1,-3.926220834E-1
2.185072391E1,-6.539120078E-1,4.926483035E-1,-3.678827584E-1
2.185987626E1,-6.145123243E-1,5.357130170E-1,-3.274141252E-1
2.186902865E1,-5.799994469E-1,5.219689608E-1,-2.959555089E-1
2.187818100E1,-5.375455618E-1,4.575245976E-1,-2.840439677E-1
2.188733334E1,-4.845545888E-1,3.167243004E-1,-2.725905776E-1
2.189648569E1,-4.083513916E-1,1.331647038E-1,-2.408265322E-1
2.190563808E1,-3.159607351E-1,-3.573456407E-2,-1.777565479E-1
2.191479042E1,-2.341072112E-1,-1.872246861E-1,-1.189625040E-1
2.192394277E1,-1.716480851E-1,-3.141281903E-1,-7.207997888E-2
2.193309511E1,-1.082726792E-1,-3.868190348E-1,-2.519745007E-2
2.194224746E1,-3.069507517E-2,-3.972034156E-1,3.527642787E-2
2.195139985E1,3.985778242E-2,-3.866663277E-1,9.559759498E-2
2.196055220E1,7.666133344E-2,-3.883461356E-1,1.313321590E-1
2.196970454E1,8.719844371E-2,-3.936910629E-1,1.313321590E-1
2.197885688E1,8.826743066E-2,-3.642176688E-1,1.044548824E-1
2.198800923E1,8.842013776E-2,-2.944283783E-1,6.658235192E-2
2.199716162E1,8.307522535E-2,-2.360924631E-1,3.909422457E-2
2.200631397E1,8.002099395E-2,-2.409792393E-1,2.367033064E-2
2.201546631E1,9.193251282E-2,-3.264978528E-1,2.565558441E-2
2.202461865E1,1.362189353E-1,-4.668400288E-1,3.527642787E-2
2.203377105E1,2.304421216E-1,-5.877877474E-1,3.665083647E-2
2.204291063E1,3.744493723E-1,-6.256603003E-1,2.122694254E-2
2.205207574E1,5.451811552E-1,-5.412106514E-1,-2.657185495E-2
2.206122808E1,7.408050299E-1,-3.765873313E-1,-8.628217876E-2
2.207038048E1,9.880454540E-1,-2.328855246E-1,-1.359135211E-1
2.207953282E1,1.282321095E0,-1.765348613E-1,-1.626380831E-1
2.208868516E1,1.549414039E0,-2.002051920E-1,-1.588202864E-1
2.209783751E1,1.807038903E0,-2.996205688E-1,-1.154501289E-1
2.210698985E1,2.036870241E0,-4.622586668E-1,-3.680354729E-2
2.211614225E1,2.211114407E0,-6.213843822E-1,5.787777901E-2
2.212529459E1,2.298923731E0,-6.281036735E-1,1.525591016E-1
2.213444694E1,2.368102074E0,-4.752391577E-1,2.385358512E-1
2.214359928E1,2.483705044E0,-4.066715539E-1,3.051182032E-1
2.215275162E1,2.621603727E0,-4.785988331E-1,3.593308926E-1
2.216190402E1,2.732167006E0,-6.125270724E-1,4.158342779E-1
2.217105636E1,2.775842667E0,-6.936170459E-1,4.686725736E-1
2.218020871E1,2.762862206E0,-6.934643388E-1,4.960079789E-1
2.218936105E1,2.714757919E0,-7.007945180E-1,4.981459379E-1
2.219851344E1,2.623741627E0,-7.948650122E-1,5.073086619E-1
2.220765303E1,2.500503302E0,-9.594883323E-1,5.450284481E-1
2.221681813E1,2.397269964E0,-1.150530815E0,5.645755529E-1
2.222597048E1,2.341377497E0,-1.297134161E0,5.552601814E-1
2.223512287E1,2.311751366E0,-1.356844425E0,5.373928547E-1
2.224427522E1,2.289150000E0,-1.308129430E0,5.297572613E-1
2.225342756E1,2.294036865E0,-1.172521353E0,5.444176197E-1
2.226257990E1,2.325953722E0,-1.016907930E0,5.567872524E-1
2.227173225E1,2.346569777E0,-8.469397426E-1,5.531222224E-1
2.228088464E1,2.345042706E0,-6.710157394E-1,5.413633585E-1
2.229002423E1,2.322135925E0,-5.048652887E-1,5.288410187E-1
2.229918933E1,2.279071093E0,-3.681881726E-1,5.253286362E-1
2.230834168E1,2.214473963E0,-2.548760176E-1,5.322006941E-1
2.231749407E1,2.135369301E0,-1.568350345E-1,5.456393361E-1
2.232664641E1,2.053973913E0,-1.695101112E-1,5.731274486E-1
2.233579876E1,1.975327373E0,-2.110477239E-1,6.093201637E-1
2.234495110E1,1.910119414E0,-1.736333370E-1,6.368082762E-1
2.235410350E1,1.857433796E0,-1.394258887E-1,6.375718117E-1
2.236325584E1,1.797418118E0,-1.643179059E-1,6.018372774E-1
2.237240818E1,1.729919434E0,-2.466295809E-1,5.415160656E-1
2.238156053E1,1.659213901E0,-3.778090179E-1,4.660764635E-1
2.239071287E1,1.593853235E0,-5.402944088E-1,3.955236077E-1
2.239986527E1,1.524216652E0,-7.291989326E-1,3.377985358E-1
2.240901761E1,1.443890214E0,-8.927532434E-1,2.982461751E-1
2.241816996E1,1.359287858E0,-9.996515512E-1,2.757975459E-1
2.242732235E1,1.258650780E0,-1.041036487E0,2.457133085E-1
2.243647470E1,1.144575000E0,-1.003316641E0,1.899735034E-1
2.244562704E1,1.025154471E0,-9.303203821E-1,1.365243644E-1
2.245477938E1,9.074136019E-1,-8.444963098E-1,1.007898003E-1
2.246393173E1,7.997517586E-1,-7.789829373E-1,7.498150319E-2
2.247308412E1,7.033905983E-1,-7.545490861E-1,6.642963737E-2
2.248223647E1,6.113054156E-1,-7.408050299E-1,7.055285573E-2
2.249138881E1,5.082249045E-1,-7.270609736E-1,7.895200700E-2
2.250054115E1,3.778090179E-1,-6.881194115E-1,8.658760041E-2
2.250969355E1,2.322746664E-1,-6.062659025E-1,9.162709117E-2
2.251884589E1,1.014006436E-1,-4.468347728E-1,9.177979827E-2
2.252799824E1,-2.443389036E-3,-1.974563748E-1,8.964183182E-2
2.253715058E1,-8.185353130E-2,1.294996142E-1,8.582404256E-2
2.254630293E1,-1.553079188E-1,4.277457893E-1,8.872556686E-2
2.255545532E1,-2.536543310E-1,5.836645365E-1,1.044548824E-1
2.256460766E1,-3.788780272E-1,5.853443742E-1,1.200314835E-1
2.257376001E1,-4.992149174E-1,4.682144225E-1,1.272089481E-1
2.258291240E1,-5.913001299E-1,2.874036431E-1,1.424801201E-1
2.259206475E1,-6.500942111E-1,9.697200358E-2,1.647760421E-1
2.260121709E1,-6.934643388E-1,-4.092676565E-2,1.921114624E-1
2.261036944E1,-7.359182239E-1,-1.276670843E-1,2.168507725E-1
2.261952178E1,-7.811209559E-1,-1.837123185E-1,2.385358512E-1
2.262867418E1,-8.215895891E-1,-2.168507725E-1,2.615953386E-1
2.263782652E1,-8.228112459E-1,-2.228065431E-1,2.677038014E-1
2.264696610E1,-7.847860456E-1,-1.908897758E-1,2.586938143E-1
2.265613121E1,-7.846332788E-1,-6.016845629E-2,2.330382317E-1
2.266528360E1,-8.611419201E-1,1.136175916E-1,1.730224788E-1
2.267442319E1,-9.912523627E-1,1.676775664E-1,6.230641901E-2
2.268358829E1,-1.050809979E0,1.453816444E-1,-9.819369763E-2
2.269274063E1,-9.297095537E-1,3.962871730E-1,-2.599155009E-1
2.270188027E1,-7.250757217E-1,8.023478985E-1,-3.649812341E-1
2.271104537E1,-6.418477297E-1,7.200362086E-1,-3.472666740E-1
2.272019772E1,-6.899519563E-1,3.619270027E-1,-1.812689304E-1
2.272933735E1,-7.198835015E-1,2.432699203E-1,1.221694518E-2
2.273850246E1,-7.261446714E-1,5.402944088E-1,1.353026628E-1
2.274765480E1,-9.659022093E-1,1.226428628E0,1.678302884E-1
2.275679438E1,-1.415791273E0,1.384485364E0,1.102579311E-1
2.276595949E1,-1.611720443E0,9.301676750E-1,1.695101149E-2
2.277511188E1,-1.369672298E0,6.326850653E-1,-3.909422457E-2
2.278426423E1,-1.135565042E0,4.436278343E-1,-5.680879578E-2
2.279341657E1,-1.138924718E0,3.949127495E-1,-5.131116882E-2
2.280256891E1,-1.239561796E0,3.376458287E-1,-4.275931045E-3
2.281170855E1,-1.301257372E0,8.842013776E-2,7.238540053E-2
2.282087365E1,-1.250251651E0,-2.142546773E-1,1.638597846E-1
2.283002600E1,-1.158929944E0,-5.494571328E-1,2.600682080E-1
2.283917834E1,-1.113421798E0,-8.605310917E-1,3.381039500E-1
2.284833074E1,-1.056002140E0,-1.020573020E0,3.802524209E-1
2.285748308E1,-9.642223716E-1,-1.032484531E0,3.949127495E-1
2.286662266E1,-8.747332692E-1,-9.720106721E-1,3.857500553E-1
2.287578777E1,-8.261709213E-1,-8.596147895E-1,3.347443044E-1
2.288494016E1,-8.101361990E-1,-6.772769094E-1,2.394521236E-1
2.289409251E1,-8.124268651E-1,-4.277457893E-1,1.206423342E-1
2.290324485E1,-8.484668136E-1,-1.220167428E-1,5.497625098E-3
2.291239720E1,-8.945857882E-1,1.710372269E-1,-6.902574003E-2
2.292154954E1,-9.214630723E-1,4.390464723E-1,-9.804098308E-2
2.293070194E1,-9.297095537E-1,6.754443645E-1,-8.246438205E-2
2.293985428E1,-9.281824231E-1,8.997780085E-1,-3.313846514E-2
2.294899386E1,-9.135220647E-1,1.076618314E0,3.100049868E-2
2.295815902E1,-8.875610828E-1,1.120141149E0,8.612946421E-2
2.296731136E1,-8.562551737E-1,1.059972763E0,1.053711548E-1
2.297646371E1,-8.515210748E-1,1.011257648E0,9.498675168E-2
2.298561605E1,-8.574768305E-1,8.622109294E-1,5.665608495E-2
2.299476839E1,-8.625163436E-1,6.853706241E-1,5.344913341E-3
2.300392079E1,-8.721371889E-1,4.892886579E-1,-5.436540768E-2
2.301307313E1,-8.842014074E-1,3.371876776E-1,-1.099525094E-1
2.302222548E1,-8.823688626E-1,2.183778882E-1,-1.556133330E-1
2.303137782E1,-8.710681796E-1,8.567132801E-2,-1.933331639E-1
2.304053022E1,-8.557969928E-1,-3.191677108E-2,-2.254026383E-1
2.304968256E1,-8.612946272E-1,-2.550287358E-2,-2.463241518E-1
2.305883490E1,-8.974873424E-1,9.132166207E-2,-2.454078794E-1
2.306798725E1,-9.332218766E-1,2.234173864E-1,-2.334963679E-1
2.307713964E1,-9.243646264E-1,3.361186981E-1,-2.249445021E-1
2.308629199E1,-9.095515609E-1,4.711159468E-1,-2.200577259E-1
2.309544433E1,-9.142856598E-1,5.905365944E-1,-2.110477239E-1
2.310459668E1,-9.174925685E-1,7.369872332E-1,-2.008160353E-1
2.311374907E1,-9.515473247E-1,8.887827396E-1,-1.931804419E-1
2.312290141E1,-1.008356094E0,1.052642584E0,-1.944021434E-1
2.313205376E1,-1.042716265E0,1.238187432E0,-1.989834905E-1
2.314120610E1,-1.045465112E0,1.332715988E0,-2.082989216E-1
2.315035850E1,-1.029583097E0,1.361578584E0,-2.209739983E-1
2.315951084E1,-1.017976999E0,1.436254621E0,-2.258607745E-1
2.316866318E1,-1.017671585E0,1.483900666E0,-2.386885732E-1
2.317781553E1,-1.026223421E0,1.498255610E0,-2.637332976E-1
2.318696792E1,-1.059056401E0,1.531852245E0,-2.982461751E-1
2.319612027E1,-1.124264359E0,1.597823739E0,-3.255815804E-1
2.320527261E1,-1.175728321E0,1.565754294E0,-3.407000601E-1
2.321442501E1,-1.179087877E0,1.401283622E0,-3.442124426E-1
2.322357735E1,-1.096470833E0,1.248266339E0,-3.582619131E-1
2.323272970E1,-9.969027042E-1,1.236202121E0,-3.929274976E-1
2.324188204E1,-9.483403563E-1,1.265064716E0,-4.425588250E-1
2.325103444E1,-9.666658044E-1,1.210699320E0,-4.836383164E-1
2.326018678E1,-1.041341901E0,1.003163934E0,-5.022691488E-1
2.326933912E1,-1.117086887E0,7.976137996E-1,-5.063923597E-1
2.327849147E1,-1.131747246E0,7.174401283E-1,-4.917320311E-1
2.328764386E1,-1.060583591E0,7.243121266E-1,-4.698942602E-1
2.329679621E1,-9.736905098E-1,7.382088900E-1,-4.717268050E-1
2.330594855E1,-9.158127308E-1,7.455390692E-1,-4.976878166E-1
2.331510089E1,-8.924478292E-1,6.997255087E-1,-5.254813433E-1
2.332425329E1,-8.990144730E-1,6.103891134E-1,-5.438067913E-1
2.333340563E1,-9.008470178E-1,5.392253995E-1,-5.450284481E-1
2.334255798E1,-8.519791961E-1,5.163186193E-1,-5.341859460E-1
2.335171032E1,-7.664605975E-1,5.274665952E-1,-5.201364160E-1
2.336086272E1,-6.856760383E-1,5.286883116E-1,-5.190674663E-1
2.337001506E1,-6.308525205E-1,5.384618640E-1,-5.357130170E-1
2.337916740E1,-6.076403260E-1,5.751127005E-1,-5.526640415E-1
2.338831975E1,-6.079457402E-1,6.024481058E-1,-5.502206683E-1
2.339747214E1,-6.076403260E-1,6.319214702E-1,-5.239542127E-1
2.340662449E1,-5.751127005E-1,6.936170459E-1,-4.824166298E-1
2.341577683E1,-5.025745630E-1,7.125533223E-1,-4.512633979E-1
2.342492923E1,-4.222481549E-1,6.771242023E-1,-4.451549351E-1
2.343408157E1,-3.888042867E-1,6.036698222E-1,-4.564556181E-1
2.344323391E1,-3.910949528E-1,5.143333673E-1,-4.698942602E-1
2.345238626E1,-3.973561525E-1,4.468347728E-1,-4.674508572E-1
2.346153865E1,-3.959817290E-1,4.330907166E-1,-4.540122151E-1
2.347069100E1,-3.836120665E-1,4.850127101E-1,-4.318690002E-1
2.347984334E1,-3.507790267E-1,5.285356045E-1,-4.031592011E-1
2.348899569E1,-2.706053257E-1,4.961606860E-1,-3.744493723E-1
2.349814808E1,-1.392731816E-1,3.422271907E-1,-3.465031087E-1
2.350730042E1,4.184303805E-2,6.429167092E-2,-3.168770075E-1
2.351645277E1,2.637332976E-1,-3.020639718E-1,-2.753393948E-1
2.352560516E1,5.036435723E-1,-6.939224601E-1,-2.257080674E-1
2.353475751E1,7.362236381E-1,-1.015075445E0,-1.811162084E-1
2.354390985E1,9.419264793E-1,-1.223679781E0,-1.441599578E-1
2.355304949E1,1.106549859E0,-1.308282137E0,-1.044548824E-1
2.356221459E1,1.226275921E0,-1.284917235E0,-3.695625812E-2
2.357136694E1,1.315001488E0,-1.196344376E0,6.795676053E-2
2.358050652E1,1.398229361E0,-1.115712523E0,1.930277348E-1
2.358967162E1,1.504974961E0,-1.037982225E0,2.980934680E-1
2.359882402E1,1.648829460E0,-8.970292211E-1,3.662029207E-1
2.360797636E1,1.803526521E0,-7.020162344E-1,4.159869850E-1
2.361712871E1,1.976701736E0,-5.935907960E-1,4.782933891E-1
2.362628110E1,2.133078575E0,-5.447230339E-1,5.641174316E-1
2.363542068E1,2.226843596E0,-3.976615667E-1,6.868977547E-1
2.364458579E1,2.236311913E0,-2.747285664E-1,8.376243114E-1
2.365373813E1,2.199661016E0,-3.182514310E-1,9.827005267E-1
2.366287777E1,2.225927353E0,-5.499152541E-1,1.092347622E0
2.367204287E1,2.362146378E0,-1.000720501E0,1.155417562E0
2.368119522E1,2.538528442E0,-1.505280375E0,1.182142138E0
2.369034756E1,2.665279388E0,-1.904010892E0,1.174811959E0
2.369949996E1,2.700708389E0,-2.192178011E0,1.127471328E0
2.370865230E1,2.660697937E0,-2.437891483E0,1.052795291E0
2.371779188E1,2.600071430E0,-2.581135035E0,9.396358132E-1
2.372695699E1,2.571514130E0,-2.620382071E0,7.806627750E-1
2.373610938E1,2.564031363E0,-2.662072420E0,5.993938446E-1
2.374524897E1,2.539292097E0,-2.638707399E0,4.311054647E-1
2.375441407E1,2.478359938E0,-2.465684891E0,3.231382072E-1
2.376356647E1,2.366116762E0,-2.154458284E0,2.898470163E-1
2.377270605E1,2.222567797E0,-1.771762490E0,3.293993771E-1
2.378187115E1,2.094289780E0,-1.372115612E0,4.075878263E-1
2.379102355E1,1.997012377E0,-9.374978542E-1,4.895940721E-1
2.380017589E1,1.935469508E0,-4.993676245E-1,5.657972693E-1
2.380932824E1,1.898971438E0,-1.652341783E-1,6.258130074E-1
2.381848058E1,1.878355265E0,6.978929788E-2,6.510104537E-1
2.382763298E1,1.870108843E0,2.360924631E-1,6.349757314E-1
2.383678532E1,1.868123651E0,3.304683566E-1,5.995466113E-1
2.384593766E1,1.832236409E0,3.796415627E-1,5.577035546E-1
2.385507730E1,1.751299143E0,4.071297050E-1,5.320479870E-1
2.386424240E1,1.654327035E0,3.605526090E-1,5.271611810E-1
2.387339475E1,1.572015405E0,2.599155009E-1,5.364766121E-1
2.388253433E1,1.524674773E0,9.055810422E-2,5.502206683E-1
2.389169944E1,1.505738497E0,-1.397313178E-1,5.558710098E-1
2.390085183E1,1.479166627E0,-3.910949528E-1,5.393781066E-1
2.390999141E1,1.425717473E0,-5.980194807E-1,4.767662883E-1
2.391915652E1,1.366465330E0,-7.414158583E-1,3.805578351E-1
2.392830891E1,1.325538516E0,-8.881719112E-1,2.832804024E-1
2.393746126E1,1.291942000E0,-1.019351363E0,1.879882365E-1
2.394661360E1,1.254985690E0,-1.112047434E0,1.027750522E-1
2.395576595E1,1.196038961E0,-1.196038961E0,4.749337584E-2
2.396490558E1,1.122126460E0,-1.256512761E0,2.260134928E-2
2.397407068E1,1.027597785E0,-1.215738773E0,9.162709117E-3
2.398322303E1,9.179506898E-1,-1.073716760E0,3.054236295E-4
2.399237543E1,8.127322793E-1,-8.901571631E-1,6.108472589E-4
2.400152777E1,7.180509567E-1,-7.143858671E-1,-7.635590737E-4
2.401068011E1,6.290199757E-1,-5.409052372E-1,-7.024743594E-3
2.401983246E1,5.267030597E-1,-3.965925872E-1,-1.878355257E-2
2.402898485E1,4.072824121E-1,-2.762556672E-1,-3.329117596E-2
2.403813720E1,2.889307439E-1,-2.037175596E-1,-5.115845799E-2
2.404728954E1,1.817270666E-1,-1.774511337E-1,-7.452336699E-2
2.405644188E1,9.590301663E-2,-1.643179059E-1,-8.979454637E-2
2.406559428E1,3.252761811E-2,-1.131594554E-1,-9.391776472E-2
2.407474662E1,-1.756185852E-2,-2.229592577E-2,-9.193251282E-2
2.408389897E1,-9.071081877E-2,8.796200156E-2,-7.360709459E-2
2.409305136E1,-1.959292591E-1,1.976090819E-1,-4.275930673E-2
2.410220371E1,-3.200839758E-1,2.848075330E-1,-1.985253580E-2
2.411135605E1,-4.512633979E-1,3.359659910E-1,-6.108472589E-3
2.412050845E1,-5.746545792E-1,3.454341292E-1,5.192201585E-3
2.412966079E1,-6.719319820E-1,3.168770075E-1,2.290677279E-2
2.413881313E1,-7.458444834E-1,2.945810854E-1,5.115845799E-2
2.414796548E1,-8.130376935E-1,2.892361879E-1,8.780929446E-2
2.415711787E1,-8.840487003E-1,2.857238054E-1,1.276670843E-1
2.416627022E1,-9.628480077E-1,2.495311052E-1,1.650814712E-1
2.417542256E1,-1.052947998E0,1.898207814E-1,1.950129867E-1
2.418457496E1,-1.162289619E0,1.397313178E-1,2.118112892E-1
2.419372730E1,-1.300799251E0,1.117850468E-1,2.115058601E-1
2.420287964E1,-1.447097182E0,7.773031294E-2,1.878355294E-1
2.421201928E1,-1.530630469E0,6.413896382E-2,1.403421611E-1
2.422118438E1,-1.417012930E0,7.605048269E-2,5.451811850E-2
2.423033673E1,-1.032179117E0,1.183516532E-1,-5.711421743E-2
2.423947631E1,-4.700469673E-1,3.492519259E-1,-1.247655526E-1
2.424864141E1,-2.454078794E-1,6.817055345E-1,-1.380514801E-1
2.425779381E1,-4.214846194E-1,6.332958937E-1,-2.557922900E-1
2.426693339E1,-5.263976455E-1,7.493568659E-1,-4.497362971E-1
2.427609850E1,-8.684720993E-1,7.403468490E-1,-5.931326747E-1
2.428525089E1,-1.441752195E0,1.467560530E-1,-5.143333673E-1
2.429439048E1,-1.411209822E0,-8.719844371E-2,-2.446443290E-1
2.430355558E1,-9.544488192E-1,3.390202224E-1,4.963133857E-2
2.431270798E1,-9.599464536E-1,1.169925213E0,2.034121305E-1
2.432184756E1,-1.455190897E0,1.675401330E0,2.154763639E-1
2.433101266E1,-1.746870399E0,1.719229579E0,1.699682474E-1
2.434016501E1,-1.622104883E0,1.555522561E0,1.521009654E-1
2.434930464E1,-1.459314108E0,1.149461865E0,1.162136942E-1
2.435846975E1,-1.429382563E0,5.337277651E-1,9.162708884E-4
2.436762209E1,-1.489245653E0,5.528167635E-2,-1.481304616E-1
2.437676173E1,-1.497644782E0,-3.333698809E-1,-2.823641598E-1
2.438592683E1,-1.352110386E0,-7.201889157E-1,-3.506263196E-1
2.439507918E1,-1.188403368E0,-9.150491953E-1,-3.028275371E-1
2.440421881E1,-1.172826767E0,-9.420791864E-1,-1.574458778E-1
2.441338391E1,-1.215586066E0,-8.571714163E-1,7.635590620E-3
2.442253626E1,-1.230551839E0,-6.061131954E-1,1.264453828E-1
2.443167589E1,-1.241241574E0,-3.263451457E-1,1.579040140E-1
2.444084100E1,-1.267355323E0,-7.162184268E-2,1.105633527E-1
2.444999334E1,-1.273616552E0,1.840177327E-1,3.527642787E-2
2.445914569E1,-1.268882513E0,4.471401870E-1,-3.512371704E-2
2.446829808E1,-1.258650780E0,6.513158679E-1,-8.826743066E-2
2.447745042E1,-1.229941010E0,7.711946368E-1,-1.224748790E-1
2.448660277E1,-1.188250661E0,7.879929543E-1,-1.429382563E-1
2.449575511E1,-1.142284393E0,7.640172243E-1,-1.444653720E-1
2.450490751E1,-1.114032745E0,7.640172243E-1,-1.362189353E-1
2.451405985E1,-1.119072199E0,7.724163532E-1,-1.296523362E-1
2.452321220E1,-1.102426648E0,7.664605975E-1,-1.227803007E-1
2.453236459E1,-1.048824787E0,6.931589246E-1,-1.156028435E-1
2.454151694E1,-1.024238110E0,6.407787800E-1,-1.049130186E-1
2.455066928E1,-1.035844207E0,6.853706241E-1,-9.055810422E-2
2.455982168E1,-1.049435616E0,6.800256968E-1,-7.650861889E-2
2.456897402E1,-1.053711534E0,6.076403260E-1,-8.017370105E-2
2.457812636E1,-1.038745761E0,5.864133835E-1,-9.162709117E-2
2.458727871E1,-1.021031141E0,6.142069101E-1,-1.122431830E-1
2.459643110E1,-1.022558331E0,6.743753552E-1,-1.319430023E-1
2.460558344E1,-1.063179612E0,7.429429889E-1,-1.487413049E-1
2.461473579E1,-1.117697716E0,7.754706144E-1,-1.589729935E-1
2.462388819E1,-1.131289124E0,7.831062078E-1,-1.669140160E-1
2.463304053E1,-1.092500329E0,7.832589149E-1,-1.751604527E-1
2.464219287E1,-1.031262875E0,7.597413063E-1,-1.724116355E-1
2.465134522E1,-1.017213345E0,7.081246972E-1,-1.594311297E-1
2.466049761E1,-1.077381849E0,6.629219651E-1,-1.487413049E-1
2.466964996E1,-1.141978979E0,6.507050395E-1,-1.320957243E-1
2.467878959E1,-1.136328578E0,6.189410090E-1,-1.094943732E-1
2.468795470E1,-1.076465607E0,5.387672782E-1,-9.177979827E-2
2.469710704E1,-1.007439852E0,3.973561525E-1,-9.132166207E-2
2.470625938E1,-9.732323885E-1,2.304421216E-1,-1.099525094E-1
2.471541178E1,-9.576557875E-1,9.361234307E-2,-1.408002973E-1
2.472456412E1,-9.342908859E-1,3.374931216E-2,-1.748550236E-1
2.473371647E1,-9.240592122E-1,6.566607859E-3,-1.985253543E-1
2.474286886E1,-9.263498783E-1,-7.360709459E-2,-2.026485801E-1
2.475202121E1,-9.220739603E-1,-1.374406368E-1,-1.928750277E-1
2.476117355E1,-9.263498783E-1,-1.548497826E-1,-1.983726472E-1
2.477032595E1,-9.321529269E-1,-1.682884246E-1,-2.246390730E-1
2.477947829E1,-9.064973593E-1,-1.334701329E-1,-2.556395829E-1
2.478863063E1,-8.553388715E-1,-7.009471953E-2,-2.675510943E-1
2.479778298E1,-8.116632700E-1,-4.535540938E-2,-2.648022771E-1
2.480693537E1,-7.944068313E-1,-4.947862774E-2,-2.560977042E-1
2.481608772E1,-8.026533127E-1,-3.802524135E-2,-2.556395829E-1
2.482524006E1,-7.910472155E-1,-2.183778957E-2,-2.652604282E-1
2.483439246E1,-7.623373866E-1,2.764083818E-2,-2.748812735E-1
2.484354480E1,-7.348492742E-1,1.127013192E-1,-2.667875290E-1
2.485269714E1,-7.062921524E-1,2.290677279E-1,-2.509055138E-1
2.486184949E1,-6.792621613E-1,3.677300513E-1,-2.434226274E-1
2.487100188E1,-6.533011198E-1,4.990622103E-1,-2.542651594E-1
2.488015423E1,-6.325323582E-1,5.974085927E-1,-2.634278834E-1
2.488930657E1,-6.109999418E-1,6.673506498E-1,-2.461714447E-1
2.489845897E1,-5.716003180E-1,7.302678823E-1,-2.075353563E-1
2.490761131E1,-5.419742465E-1,7.786775231E-1,-1.682884246E-1
2.491676365E1,-5.306735635E-1,8.017370105E-1,-1.357607991E-1
2.492591605E1,-5.299099684E-1,7.783721089E-1,-1.149920002E-1
2.493506839E1,-5.184566379E-1,7.211052179E-1,-1.015533581E-1
2.494422074E1,-4.900522232E-1,6.441384554E-1,-9.208522737E-2
2.495337313E1,-4.454603493E-1,5.549547076E-1,-7.345438004E-2
2.496252548E1,-4.158342779E-1,4.677563012E-1,-5.299099907E-2
2.497167782E1,-4.176668227E-1,3.720059693E-1,-2.901524492E-2
2.498083022E1,-4.304946065E-1,2.709107697E-1,3.817795310E-3
2.498998256E1,-4.347705245E-1,1.800472289E-1,5.100574717E-2
2.499913490E1,-4.288147688E-1,1.223221645E-1,9.804098308E-2
2.500828730E1,-4.140017331E-1,9.300149232E-2,1.305686086E-1
2.501743964E1,-3.984251320E-1,7.925742865E-2,1.348445266E-1
2.502659199E1,-3.906368315E-1,5.680879578E-2,1.038440317E-1
2.503574433E1,-4.028537571E-1,5.650337040E-2,3.787253052E-2
2.504489673E1,-4.124746025E-1,7.971556485E-2,-4.413371533E-2
2.505404907E1,-3.755183518E-1,1.186570823E-1,-1.043021679E-1
2.506320141E1,-2.864873707E-1,1.513374150E-1,-1.232384369E-1
2.507235381E1,-1.798945218E-1,1.672194302E-1,-1.151447073E-1
2.508150615E1,-9.681928903E-2,1.690519750E-1,-1.122431830E-1
2.509065850E1,-5.283828825E-2,1.608055383E-1,-1.178935245E-1
2.509981089E1,-4.734066129E-2,1.553079188E-1,-1.215586066E-1
2.510896324E1,-6.093201414E-2,1.553079188E-1,-1.125486046E-1
2.511811558E1,-8.506047726E-2,1.571404636E-1,-9.376505762E-2
2.512726798E1,-1.149920002E-1,1.867665499E-1,-6.963659078E-2
2.513642032E1,-1.404948682E-1,2.687727809E-1,-4.413371533E-2
2.514557266E1,-1.569877416E-1,3.874298632E-1,-2.611372061E-2
2.515472506E1,-1.666085869E-1,4.935645759E-1,-2.244863659E-2
2.516387740E1,-1.776038408E-1,5.555655956E-1,-3.787253052E-2
2.517302975E1,-1.896680743E-1,6.108472347E-1,-6.673506647E-2
2.518218209E1,-1.811162084E-1,7.049177289E-1,-9.055810422E-2
2.519133449E1,-1.357607991E-1,7.959339619E-1,-8.979454637E-2
2.520048683E1,-7.070557028E-2,8.273926377E-1,-7.650861889E-2
2.520963918E1,-9.926267900E-3,7.739434838E-1,-6.444438547E-2
2.521879157E1,3.878879920E-2,6.371136904E-1,-6.459710002E-2
2.522794391E1,6.780404598E-2,4.364503622E-1,-7.040014863E-2
2.523709626E1,7.879929990E-2,2.363978922E-1,-7.925742865E-2
2.524624865E1,8.017370105E-2,8.093725890E-2,-8.032641560E-2
2.525540100E1,6.872031838E-2,-3.405473381E-2,-6.810946763E-2
2.526455334E1,5.222744122E-2,-1.195733473E-1,-4.489727318E-2
2.527370574E1,4.214845970E-2,-1.762294322E-1,-2.061609551E-2
2.528285808E1,4.230117425E-2,-2.079934925E-1,-3.054236295E-4
2.529201042E1,4.382828996E-2,-2.386885732E-1,2.137965523E-3
2.530116282E1,4.169032723E-2,-2.732014358E-1,-6.413896102E-3
2.531031516E1,3.878879920E-2,-2.899997234E-1,-1.191152167E-2
2.531946751E1,3.497100621E-2,-2.738122940E-1,-1.068982668E-2
2.532861990E1,2.947338112E-2,-2.202104330E-1,-7.788302377E-3
2.533777225E1,2.015795931E-2,-1.351499557E-1,-7.941014133E-3
2.534692459E1,3.817795310E-3,-4.123219103E-2,-7.482878864E-3
2.535607699E1,-1.725643501E-2,4.978405312E-2,-1.023169141E-2
2.536522933E1,-3.283303976E-2,1.353026628E-1,-1.466033421E-2
2.537438168E1,-3.344388679E-2,2.148655206E-1,-1.771457121E-2
2.538353407E1,-2.107422985E-2,2.852656841E-1,-2.015795931E-2
2.539268641E1,-6.719320081E-3,3.245126009E-1,-2.305948362E-2
2.540183876E1,-3.512371797E-3,3.251234591E-1,-3.038965166E-2
2.541099110E1,-1.389677543E-2,3.177932799E-1,-3.848337755E-2
2.542014350E1,-3.436015919E-2,3.309265077E-1,-3.985778242E-2
2.542929584E1,-5.070032179E-2,3.623851240E-1,-3.069507517E-2
2.543844819E1,-5.482354015E-2,3.930802047E-1,-1.801999472E-2
2.544760058E1,-5.421269313E-2,3.967452943E-1,-7.635590620E-3
2.545675292E1,-5.085303262E-2,3.600944579E-1,-2.137965523E-3
2.546590527E1,-4.031591862E-2,2.860292196E-1,-4.428642802E-3
2.547505766E1,-2.779355086E-2,1.907370538E-1,-1.221694518E-2
2.548421001E1,-1.695101149E-2,8.887827396E-2,-1.817270555E-2
2.549336235E1,-9.315420873E-3,-6.261184346E-3,-2.046338283E-2
2.550251475E1,-9.926267900E-3,-8.826743066E-2,-1.969982497E-2
2.551166709E1,-1.175880991E-2,-1.508792788E-1,-1.542389300E-2
2.552081944E1,-1.634016447E-2,-1.913478971E-1,-7.482878864E-3
2.552997183E1,-2.428117767E-2,-2.087570578E-1,-3.054236295E-4
2.553912418E1,-3.726168349E-2,-2.009687424E-1,1.007897966E-2
2.554827652E1,-4.810422286E-2,-1.756185889E-1,2.275406010E-2
2.555742891E1,-5.512896553E-2,-1.418692768E-1,3.252761811E-2
2.556658126E1,-5.421269313E-2,-1.128540337E-1,3.374931216E-2
2.557573360E1,-5.008947477E-2,-8.765657991E-2,2.702999115E-2
2.558488600E1,-4.413371533E-2,-6.948387623E-2,1.725643501E-2
2.559403834E1,-3.313846514E-2,-4.963133857E-2,9.926267900E-3
2.560319068E1,-2.168507688E-2,-2.015795931E-2,2.748812549E-3
2.561234308E1,-1.634016447E-2,1.481304597E-2,-3.054236295E-4
2.562149543E1,-1.282779220E-2,3.649812192E-2,-9.162708884E-4
2.563064777E1,-7.330167107E-3,4.138490185E-2,-1.527118147E-3
2.563980011E1,-8.551862091E-3,3.833066672E-2,-5.803049076E-3
2.564895251E1,-1.343864016E-2,3.222219273E-2,-1.130067464E-2
2.565810485E1,-2.382304333E-2,2.855710872E-2,-1.695101149E-2
2.566725725E1,-3.695625812E-2,4.489727318E-2,-1.267508045E-2
2.567640959E1,-5.131116882E-2,6.963659078E-2,6.108472589E-4
2.568556194E1,-6.200099736E-2,8.231166750E-2,8.399149403E-3
2.569471433E1,-7.711946964E-2,4.611896724E-2,3.512371797E-3
2.570386668E1,-9.926267713E-2,-2.092151903E-2,-1.435491070E-2
2.571301902E1,-1.140757278E-1,-6.673506647E-2,-2.596100792E-2
2.572217141E1,-1.084253863E-1,-8.903098851E-2,-2.046338283E-2
2.573132376E1,-8.979454637E-2,-1.154501289E-1,-3.817795310E-3
2.574047610E1,-7.956285775E-2,-1.569877416E-1,7.330167107E-3
2.574962850E1,-9.239064902E-2,-2.341072112E-1,-5.039489828E-3
2.575878084E1,-1.253764033E-1,-3.150444627E-1,-3.939964995E-2
2.576793318E1,-1.522536725E-1,-3.399364948E-1,-6.948387623E-2
2.577708558E1,-1.375933439E-1,-3.303156495E-1,-7.299624383E-2
2.578623793E1,-9.452861547E-2,-3.260397315E-1,-5.864133686E-2
2.579539027E1,-5.253286287E-2,-3.385621011E-1,-3.878879920E-2
2.580454261E1,-1.847812906E-2,-3.648285270E-1,-2.214321308E-2
2.581369501E1,1.832541777E-3,-3.750602305E-1,-1.282779220E-2
2.582284735E1,1.343864016E-2,-3.617742956E-1,-7.788302377E-3
2.583199970E1,1.878355257E-2,-3.292466700E-1,-5.955760833E-3
2.584115209E1,2.137965336E-2,-2.857238054E-1,-1.068982761E-3
2.585030444E1,2.458660305E-2,-2.292204350E-1,4.428642802E-3
2.585945683E1,3.741439432E-2,-1.513374150E-1,9.315420873E-3
2.586860918E1,5.757235363E-2,-6.566607952E-2,1.557660475E-2
2.587776152E1,7.528692484E-2,1.801999472E-2,1.863084175E-2
2.588691386E1,8.353336155E-2,6.933116168E-2,1.496575773E-2
2.589606626E1,8.521319181E-2,9.926267713E-2,6.413896102E-3
2.590521860E1,7.696675509E-2,1.203369126E-1,1.527118147E-3
2.591437094E1,6.505523622E-2,1.397313178E-1,3.817795310E-3
2.592352334E1,5.635065958E-2,1.433963925E-1,7.482878864E-3
2.593267569E1,5.650337040E-2,1.360662282E-1,9.926267900E-3
2.594182803E1,5.909947306E-2,1.174353883E-1,7.482878864E-3
2.595098042E1,5.451811850E-2,8.780929446E-2,5.650337320E-3
2.596013277E1,5.176930502E-2,4.749337584E-2,5.039489828E-3
2.596928511E1,5.146388337E-2,1.068982668E-2,6.261184346E-3
2.597843751E1,4.566083103E-2,-2.535016090E-2,9.926267900E-3
2.598758985E1,3.665083647E-2,-6.276455522E-2,1.236965694E-2
2.599674225E1,2.702999115E-2,-9.239064902E-2,1.527118124E-2
2.600589459E1,1.908897609E-2,-1.049130186E-1,1.649287529E-2
2.601504694E1,1.359135192E-2,-9.651386738E-2,1.404948719E-2
2.602419928E1,5.344913341E-3,-7.498150319E-2,1.084253844E-2
2.603335168E1,-4.734066315E-3,-4.413371533E-2,7.177455351E-3
2.604250402E1,-1.175880991E-2,-1.466033421E-2,2.748812549E-3
2.605165636E1,-1.878355257E-2,9.162708884E-4,9.162708884E-4
2.606080876E1,-2.565558441E-2,1.175880991E-2,-2.290677279E-3
2.606996110E1,-3.069507517E-2,2.626643144E-2,-4.734066315E-3
2.607911344E1,-2.947338112E-2,3.649812192E-2,-4.734066315E-3
2.608826584E1,-2.535016090E-2,4.321744293E-2,-3.512371797E-3
2.609741819E1,-1.481304597E-2,4.795150831E-2,-9.162708884E-4
2.610657058E1,1.679830020E-3,5.467082933E-2,2.748812549E-3
2.611572292E1,1.649287529E-2,5.589252338E-2,8.399149403E-3
2.612487527E1,2.641914412E-2,4.932591692E-2,1.282779220E-2
2.613402766E1,3.451287001E-2,4.031591862E-2,1.710372418E-2
2.614318001E1,3.833066672E-2,2.764083818E-2,1.832541823E-2
2.615233235E1,3.161134571E-2,1.801999472E-2,1.893626526E-2
2.616148475E1,2.367033064E-2,1.374406368E-2,1.893626526E-2
2.617063709E1,2.046338283E-2,2.092151903E-2,1.695101149E-2
2.617978944E1,3.206948191E-2,3.970507160E-2,1.466033421E-2
2.618894183E1,4.779879749E-2,6.139015034E-2,1.038440317E-2
2.619809418E1,6.200099736E-2,7.345438004E-2,5.039489828E-3
2.620724652E1,6.200099736E-2,6.917845458E-2,-1.068982761E-3
2.621639891E1,5.054761097E-2,4.382828996E-2,-4.123218823E-3
2.622555126E1,2.977880463E-2,1.908897609E-2,-6.108472589E-3
2.623470360E1,1.206423342E-2,7.024743594E-3,4.581354442E-4
2.624385600E1,-5.192201585E-3,7.635590620E-3,7.024743594E-3
2.625300834E1,-2.260134928E-2,1.481304597E-2,8.093725890E-3
2.626216068E1,-3.497100621E-2,1.725643501E-2,2.596100792E-3
2.627131308E1,-4.153761268E-2,8.093725890E-3,-5.344913341E-3
2.628046543E1,-4.382828996E-2,-5.192201585E-3,-1.206423342E-2
2.628961782E1,-4.566083103E-2,-1.603474095E-2,-1.634016447E-2
2.629877016E1,-4.382828996E-2,-1.542389300E-2,-1.817270555E-2
2.630792251E1,-3.771981969E-2,-5.803049076E-3,-1.878355257E-2
2.631707490E1,-2.916795574E-2,2.748812549E-3,-1.695101149E-2
2.632622725E1,-1.939439960E-2,5.192201585E-3,-1.679829881E-2
2.633537959E1,-1.328592747E-2,1.236965694E-2,-1.801999472E-2
2.634453199E1,-8.857285604E-3,1.481304597E-2,-2.046338283E-2
2.635368433E1,-6.413896102E-3,1.893626526E-2,-1.924168877E-2
2.636283668E1,-2.901524538E-3,3.222219273E-2,-1.252236869E-2
2.637198907E1,1.832541777E-3,5.100574717E-2,-3.206948051E-3
2.638114141E1,4.123218823E-3,6.673506647E-2,2.901524538E-3
2.639029376E1,6.413896102E-3,7.941014320E-2,7.788302377E-3
2.639944615E1,3.970507067E-3,7.941014320E-2,1.252236869E-2
2.640859850E1,-3.970507067E-3,6.612421572E-2,1.496575773E-2
2.641775089E1,-5.650337320E-3,4.627167806E-2,1.679829881E-2
2.642690324E1,-5.497625098E-3,2.993151546E-2,1.618745178E-2
2.643605558E1,-5.955760833E-3,1.313321572E-2,1.557660475E-2
2.644520798E1,-9.468132630E-3,-3.817795310E-3,1.191152167E-2
2.645436032E1,-1.175880991E-2,-2.305948362E-2,4.581354558E-3
2.646351266E1,-8.551862091E-3,-3.817795217E-2,-1.527118147E-3
2.647266506E1,-5.955760833E-3,-5.329642445E-2,-1.527118147E-4
2.648181740E1,-5.344913341E-3,-5.864133686E-2,1.679830020E-3
2.649096975E1,-3.512371797E-3,-5.497625470E-2,2.901524538E-3
2.650012214E1,1.527118147E-4,-4.596625641E-2,4.734066315E-3
2.650927449E1,5.039489828E-3,-3.329117596E-2,4.123218823E-3
2.651842688E1,5.497625098E-3,-2.061609551E-2,3.512371797E-3
2.652757923E1,1.679830020E-3,-7.482878864E-3,7.177455351E-3
2.653673157E1,-3.054236295E-4,1.007897966E-2,1.084253844E-2
2.654588397E1,0.000000000E0,3.054236248E-2,1.328592747E-2
2.655503631E1,6.108472589E-3,4.627167806E-2,1.206423342E-2
2.656418865E1,1.420219894E-2,4.627167806E-2,5.955760833E-3
2.657334105E1,3.344388679E-2,3.542914242E-2,-1.221694518E-3
2.658249339E1,5.024218559E-2,1.786728203E-2,-4.123218823E-3
2.659164574E1,5.818320066E-2,1.068982668E-2,1.527118147E-4
2.660079813E1,5.757235363E-2,2.092151903E-2,1.114796288E-2
2.660995048E1,5.665608495E-2,4.337015375E-2,2.458660305E-2
2.661910287E1,4.657710344E-2,5.848862603E-2,3.298575059E-2
2.662825522E1,3.359659761E-2,6.093201414E-2,3.542914242E-2
