"Time (s)","Gyroscope x (rad/s)","Gyroscope y (rad/s)","Gyroscope z (rad/s)"
1.741339693E1,-2.412846684E-2,4.001049697E-2,-1.481304597E-2
1.742254688E1,-2.214321308E-2,2.565558441E-2,-1.908897609E-2
1.743169678E1,-1.206423342E-2,1.053711493E-2,-1.420219894E-2
1.744084672E1,-7.635590620E-3,-5.650337320E-3,-1.221694518E-2
1.744999662E1,1.679830020E-3,-1.649287529E-2,-1.160609815E-2
1.745914652E1,1.206423342E-2,-2.137965336E-2,-6.566607859E-3
1.746829646E1,1.343864016E-2,-2.855710872E-2,-5.955760833E-3
1.747744636E1,1.099525020E-2,-3.756710514E-2,-4.123218823E-3
1.748659631E1,9.162709117E-3,-3.695625812E-2,-1.832541777E-3
1.749574620E1,1.068982761E-3,-3.283303976E-2,-3.054236295E-3
1.750489610E1,-1.114796288E-2,-3.344388679E-2,-4.428642802E-3
1.751404605E1,-1.863084175E-2,-2.794626169E-2,-7.482878864E-3
1.752319594E1,-1.924168877E-2,-2.076880634E-2,-1.359135192E-2
1.753234589E1,-1.557660475E-2,-1.664558798E-2,-1.786728203E-2
1.754149579E1,-6.261184346E-3,-1.847812906E-2,-1.954711229E-2
1.755064574E1,-4.428642802E-3,-2.260134928E-2,-2.137965336E-2
1.755979563E1,-9.315420873E-3,-2.076880634E-2,-2.504473738E-2
1.756894553E1,-1.374406368E-2,-1.114796288E-2,-2.580829710E-2
1.757809548E1,-1.084253844E-2,1.985253533E-3,-2.519745007E-2
1.758724537E1,-4.734066315E-3,7.482878864E-3,-2.626643144E-2
1.759639532E1,1.527118147E-3,4.428642802E-3,-2.199050039E-2
1.760554521E1,8.399149403E-3,-5.650337320E-3,-1.343864016E-2
1.761469511E1,1.404948719E-2,-2.611372061E-2,-3.512371797E-3
1.762384506E1,1.924168877E-2,-5.024218559E-2,3.206948051E-3
1.763299495E1,2.489202656E-2,-7.666133344E-2,8.093725890E-3
1.764214490E1,2.932066843E-2,-8.811471611E-2,1.068982668E-2
1.765129480E1,3.054236248E-2,-9.055810422E-2,1.252236869E-2
1.766044469E1,2.809897438E-2,-8.628217876E-2,1.114796288E-2
1.766959464E1,2.244863659E-2,-7.727217674E-2,6.261184346E-3
1.767874454E1,1.679829881E-2,-6.765133142E-2,1.985253533E-3
1.768789448E1,1.374406368E-2,-5.558710173E-2,1.527118147E-4
1.769704438E1,4.886778072E-3,-4.550812021E-2,-6.108472589E-3
1.770619433E1,-3.665083554E-3,-4.001049697E-2,-9.773556143E-3
1.771534423E1,-7.482878864E-3,-2.794626169E-2,-7.941014133E-3
1.772449412E1,-9.468132630E-3,-1.603474095E-2,-9.315420873E-3
1.773364407E1,-2.748812549E-3,-1.298050396E-2,-6.719320081E-3
1.774279396E1,3.970507067E-3,-3.817795310E-3,-1.832541777E-3
1.775194391E1,3.359660041E-3,3.054236295E-4,-6.108472589E-4
1.776109381E1,1.068982761E-3,-1.404948719E-2,-4.275931045E-3
1.777024376E1,1.267508045E-2,-2.367033064E-2,1.221694518E-3
1.777939365E1,2.367033064E-2,-1.649287529E-2,1.175880991E-2
1.778854355E1,1.939439960E-2,-2.000524849E-2,1.420219894E-2
1.779769350E1,2.015795931E-2,-3.390202299E-2,1.481304597E-2
1.780684339E1,2.260134928E-2,-3.573456407E-2,1.725643501E-2
1.781599334E1,2.321219631E-2,-3.023693897E-2,1.969982497E-2
1.782514324E1,1.817270555E-2,-2.183778957E-2,1.542389300E-2
1.783429318E1,1.695101149E-2,-1.282779220E-2,1.175880991E-2
1.784344308E1,1.924168877E-2,2.901524538E-3,1.053711493E-2
1.785259298E1,8.704573847E-3,1.664558798E-2,6.108472589E-3
1.786174292E1,4.275931045E-3,2.015795931E-2,1.832541777E-3
1.787089282E1,8.551862091E-3,2.565558441E-2,1.832541777E-3
1.788004277E1,1.160609815E-2,3.283303976E-2,1.832541777E-3
1.788919266E1,8.551862091E-3,3.588727489E-2,-2.443389036E-3
1.789834261E1,9.162709117E-3,4.077405483E-2,-6.108472589E-4
1.790749251E1,1.450762246E-2,4.734066129E-2,7.941014133E-3
1.791664245E1,1.038440317E-2,3.054236248E-2,1.038440317E-2
1.792579235E1,1.191152167E-2,2.290677279E-3,7.941014133E-3
1.793494225E1,2.870982140E-2,-1.282779220E-2,9.315420873E-3
1.794409219E1,3.924693540E-2,-2.122694254E-2,1.252236869E-2
1.795324209E1,4.184303805E-2,-4.230117425E-2,8.246437646E-3
1.796239204E1,4.199574888E-2,-4.779879749E-2,2.748812549E-3
1.797154193E1,4.291202128E-2,-2.000524849E-2,4.581354558E-3
1.798069188E1,3.222219273E-2,7.177455351E-3,1.053711493E-2
1.798984178E1,2.519745007E-2,1.969982497E-2,1.542389300E-2
1.799899172E1,2.702999115E-2,3.176405653E-2,1.969982497E-2
1.800814162E1,3.130592033E-2,2.947338112E-2,2.275406010E-2
1.801729152E1,3.512371704E-2,1.679829881E-2,2.275406010E-2
1.802644146E1,3.344388679E-2,2.901524538E-3,2.031067200E-2
1.803559136E1,3.588727489E-2,-1.374406274E-3,2.031067200E-2
1.804474131E1,4.443913698E-2,1.679830020E-3,2.229592577E-2
1.805389120E1,5.192201585E-2,-4.275931045E-3,2.657185495E-2
1.806304115E1,5.650337040E-2,-2.473931387E-2,2.901524492E-2
1.807219105E1,5.344913527E-2,-4.169032723E-2,2.901524492E-2
1.808134100E1,4.062134400E-2,-4.642439261E-2,3.023693897E-2
1.809049089E1,2.397575416E-2,-4.596625641E-2,2.702999115E-2
1.809964084E1,1.893626526E-2,-4.291202128E-2,2.153236605E-2
1.810879074E1,1.893626526E-2,-4.001049697E-2,1.542389300E-2
1.811794063E1,3.008422814E-2,-3.390202299E-2,1.542389300E-2
1.812709058E1,3.497100621E-2,-2.550287358E-2,1.557660475E-2
1.813624053E1,3.298575059E-2,-1.771457121E-2,1.114796288E-2
1.814539042E1,2.565558441E-2,-1.832541823E-2,6.872031838E-3
1.815454032E1,2.244863659E-2,-1.527118124E-2,5.650337320E-3
1.816369027E1,1.878355257E-2,-1.985253533E-3,5.650337320E-3
1.817284016E1,1.863084175E-2,8.857285604E-3,5.650337320E-3
1.818199011E1,2.168507688E-2,5.803049076E-3,3.817795310E-3
1.819114001E1,2.428117767E-2,1.068982761E-3,5.650337320E-3
1.820028995E1,2.733541466E-2,1.068982761E-3,8.093725890E-3
1.820943985E1,3.038965166E-2,-3.206948051E-3,7.482878864E-3
1.821858980E1,2.428117767E-2,-9.315420873E-3,2.596100792E-3
1.822773969E1,2.061609551E-2,-5.650337320E-3,2.596100792E-3
1.823688964E1,2.596100792E-2,1.786728203E-2,1.175880991E-2
1.824603954E1,2.870982140E-2,4.871506989E-2,1.969982497E-2
1.825518949E1,2.550287358E-2,5.405998230E-2,1.969982497E-2
1.826433938E1,1.786728203E-2,1.786728203E-2,1.114796288E-2
1.827348928E1,2.504473738E-2,-1.282779220E-2,5.650337320E-3
1.828263922E1,2.748812735E-2,-1.893626526E-2,3.817795310E-3
1.829178912E1,1.710372418E-2,-2.794626169E-2,-1.679830020E-3
1.830093907E1,1.466033421E-2,-2.489202656E-2,-3.512371797E-3
1.831008896E1,2.000524849E-2,4.581354442E-4,-2.290677279E-3
1.831923891E1,9.315420873E-3,2.504473738E-2,-4.886778072E-3
1.832838881E1,-1.175880991E-2,2.733541466E-2,-9.926267900E-3
1.833753876E1,-1.588202827E-2,1.954711229E-2,-1.114796288E-2
1.834668865E1,-9.009997360E-3,1.236965694E-2,-8.093725890E-3
1.835583860E1,1.068982761E-3,-7.482878864E-3,-1.282779220E-2
1.836498850E1,1.298050396E-2,-3.344388679E-2,-1.206423342E-2
1.837413844E1,2.489202656E-2,-6.047387794E-2,-5.955760833E-3
1.838328834E1,3.298575059E-2,-7.971556485E-2,5.803049076E-3
1.839243829E1,2.932066843E-2,-8.689302206E-2,1.068982668E-2
1.840158818E1,3.420744836E-2,-8.200624585E-2,1.985253580E-2
1.841073813E1,4.199574888E-2,-6.505523622E-2,2.901524492E-2
1.841988803E1,4.245388508E-2,-5.192201585E-2,3.329117596E-2
1.842903798E1,3.802524135E-2,-4.169032723E-2,3.573456407E-2
1.843818787E1,3.176405653E-2,-3.191677108E-2,3.497100621E-2
1.844733782E1,3.420744836E-2,-2.901524492E-2,3.252761811E-2
1.845648771E1,4.169032723E-2,-3.374931216E-2,3.451287001E-2
1.846563766E1,4.734066129E-2,-3.863608837E-2,3.023693897E-2
1.847478756E1,4.428642616E-2,-5.131116882E-2,2.412846684E-2
1.848393751E1,3.512371704E-2,-6.154286116E-2,1.985253580E-2
1.849308740E1,2.473931387E-2,-6.887302548E-2,1.603474095E-2
1.850223735E1,9.315420873E-3,-6.215370819E-2,1.282779220E-2
1.851138724E1,1.221694518E-3,-4.902049154E-2,5.497625098E-3
1.852053719E1,-3.665083554E-3,-3.695625812E-2,-2.443389036E-3
1.852968709E1,-1.740914769E-2,-2.076880634E-2,-1.053711493E-2
1.853883704E1,-3.542914242E-2,-3.359660041E-3,-1.924168877E-2
1.854798693E1,-4.596625641E-2,1.343864016E-2,-2.596100792E-2
1.855713688E1,-5.467082933E-2,3.145863488E-2,-3.771981969E-2
1.856628678E1,-6.398624927E-2,3.619270027E-2,-5.054761097E-2
1.857543672E1,-7.192726433E-2,3.191677108E-2,-6.032116711E-2
1.858458662E1,-7.559234649E-2,2.473931387E-2,-6.719319522E-2
1.859373657E1,-7.101099193E-2,9.620844387E-3,-6.826218218E-2
1.860288646E1,-6.658235192E-2,-9.620844387E-3,-7.192726433E-2
1.861203641E1,-6.581879407E-2,-2.229592577E-2,-7.620319724E-2
1.862118631E1,-7.437065244E-2,-2.779355086E-2,-7.620319724E-2
1.863033626E1,-8.307522535E-2,-2.840439789E-2,-7.574506104E-2
1.863948615E1,-8.567132801E-2,-1.634016447E-2,-7.574506104E-2
1.864863610E1,-8.887827396E-2,6.108472589E-4,-7.574506104E-2
1.865778600E1,-9.452861547E-2,1.740914769E-2,-7.650861889E-2
1.866693594E1,-9.651386738E-2,2.336490713E-2,-7.711946964E-2
1.867608584E1,-9.025268257E-2,2.092151903E-2,-7.757759839E-2
1.868523579E1,-7.849387079E-2,1.435491070E-2,-7.818844914E-2
1.869438568E1,-7.040014863E-2,1.145338640E-2,-7.742489129E-2
1.870353563E1,-6.810946763E-2,1.863084175E-2,-7.803573459E-2
1.871268553E1,-6.994201243E-2,3.130592033E-2,-7.559234649E-2
1.872183548E1,-7.009471953E-2,4.337015375E-2,-7.437065244E-2
1.873098537E1,-7.024743408E-2,5.726693198E-2,-7.452336699E-2
1.874013532E1,-6.917845458E-2,7.116370648E-2,-7.391251624E-2
1.874928521E1,-7.055285573E-2,8.979454637E-2,-7.391251624E-2
1.875843516E1,-7.864658535E-2,1.017060652E-1,-7.574506104E-2
1.876758506E1,-8.918370306E-2,1.023169160E-1,-7.895200700E-2
1.877673501E1,-1.020114943E-1,9.025268257E-2,-8.383878320E-2
1.878588495E1,-1.104106456E-1,7.223268598E-2,-9.055810422E-2
1.879503485E1,-1.143811494E-1,4.382828996E-2,-9.666658193E-2
1.880418480E1,-1.122431830E-1,1.191152167E-2,-9.605573118E-2
1.881333469E1,-9.727742523E-2,-1.634016447E-2,-8.933641016E-2
1.882248464E1,-8.903098851E-2,-4.581354558E-2,-8.124268800E-2
1.883163454E1,-9.193251282E-2,-6.337540597E-2,-7.330167294E-2
1.884078448E1,-9.391776472E-2,-6.459710002E-2,-6.658235192E-2
1.884993438E1,-8.903098851E-2,-4.764608666E-2,-5.741964281E-2
1.885908433E1,-8.811471611E-2,-2.168507688E-2,-4.764608666E-2
1.886823423E1,-8.414421231E-2,6.719320081E-3,-3.970507160E-2
1.887738417E1,-7.146912813E-2,2.718270384E-2,-3.176405653E-2
1.888653407E1,-5.558710173E-2,3.939964995E-2,-2.489202656E-2
1.889568402E1,-4.932591692E-2,3.878879920E-2,-2.305948362E-2
1.890483391E1,-5.482354015E-2,3.634541109E-2,-2.428117767E-2
1.891398386E1,-6.597150117E-2,3.390202299E-2,-2.977880463E-2
1.892313381E1,-6.704048812E-2,2.718270384E-2,-3.405473381E-2
1.893228370E1,-5.909947306E-2,2.473931387E-2,-3.649812192E-2
1.894143365E1,-5.604523420E-2,3.206948191E-2,-3.405473381E-2
1.895058355E1,-5.375456065E-2,4.718795046E-2,-2.977880463E-2
1.895973350E1,-5.008947477E-2,6.352811307E-2,-2.428117767E-2
1.896888339E1,-5.268557742E-2,7.131642103E-2,-2.000524849E-2
1.897803334E1,-5.573981255E-2,6.230641901E-2,-1.695101149E-2
1.898718324E1,-4.871506989E-2,4.550812021E-2,-1.450762246E-2
1.899633318E1,-3.497100621E-2,2.321219631E-2,-1.252236869E-2
1.900548313E1,-2.000524849E-2,-6.261184346E-3,-1.114796288E-2
1.901463303E1,-1.038440317E-2,-3.710897267E-2,-1.236965694E-2
1.902378298E1,-3.512371797E-3,-5.696150661E-2,-1.282779220E-2
1.903293287E1,-6.566607859E-3,-6.352811307E-2,-1.282779220E-2
1.904208282E1,-2.199050039E-2,-6.001574174E-2,-1.908897609E-2
1.905123271E1,-4.291202128E-2,-5.894676223E-2,-2.779355086E-2
1.906038266E1,-5.467082933E-2,-5.344913527E-2,-2.901524492E-2
1.906953256E1,-5.909947306E-2,-4.077405483E-2,-2.672456764E-2
1.907868251E1,-6.093201414E-2,-3.603998944E-2,-2.550287358E-2
1.908783245E1,-5.283828825E-2,-4.443913698E-2,-2.229592577E-2
1.909698235E1,-4.123219103E-2,-5.161659420E-2,-1.557660475E-2
1.910613230E1,-3.436015919E-2,-5.467082933E-2,-1.236965694E-2
1.911528219E1,-2.901524492E-2,-4.123219103E-2,-8.704573847E-3
1.912443214E1,-2.672456764E-2,-2.137965336E-2,-8.704573847E-3
1.913358204E1,-2.305948362E-2,-4.428642802E-3,-3.206948051E-3
1.914273198E1,-2.336490713E-2,1.908897609E-2,3.512371797E-3
1.915188188E1,-2.916795574E-2,4.672981426E-2,3.359660041E-3
1.916103183E1,-4.046862945E-2,7.207997888E-2,3.206948051E-3
1.917018178E1,-4.688252881E-2,9.193251282E-2,3.206948051E-3
1.917933167E1,-4.443913698E-2,9.910997003E-2,1.985253533E-3
1.918848162E1,-3.756710514E-2,9.666658193E-2,-2.748812549E-3
1.919763152E1,-2.825168520E-2,8.887827396E-2,-2.137965523E-3
1.920678146E1,-1.771457121E-2,7.818844914E-2,5.344913341E-3
1.921593136E1,-1.145338640E-2,6.001574174E-2,1.084253844E-2
1.922508131E1,-1.496575773E-2,3.894151375E-2,1.023169141E-2
1.923423120E1,-2.168507688E-2,2.260134928E-2,1.084253844E-2
1.924338115E1,-3.008422814E-2,1.114796288E-2,1.191152167E-2
1.925253110E1,-3.130592033E-2,2.137965523E-3,1.068982668E-2
1.926168100E1,-2.870982140E-2,-9.926267900E-3,1.252236869E-2
1.927083094E1,-2.183778957E-2,-2.137965336E-2,1.572931744E-2
1.927998084E1,-1.496575773E-2,-2.794626169E-2,1.695101149E-2
1.928913079E1,-9.315420873E-3,-4.001049697E-2,1.756185852E-2
1.929828074E1,-7.482878864E-3,-5.268557742E-2,1.771457121E-2
1.930743063E1,-1.298050396E-2,-5.619794875E-2,1.756185852E-2
1.931658058E1,-1.420219894E-2,-4.596625641E-2,1.389677543E-2
1.932573048E1,-7.024743594E-3,-2.611372061E-2,1.145338640E-2
1.933488042E1,5.192201585E-3,-3.817795310E-3,9.773556143E-3
1.934403032E1,8.704573847E-3,9.468132630E-3,1.221694518E-2
1.935318027E1,4.886778072E-3,2.993151546E-2,1.466033421E-2
1.936233021E1,-4.581354558E-3,5.650337040E-2,1.634016447E-2
1.937148011E1,-1.527118124E-2,7.696675509E-2,1.389677543E-2
1.938063006E1,-2.031067200E-2,9.315420687E-2,1.740914769E-2
1.938977995E1,-1.985253580E-2,1.009425074E-1,1.985253580E-2
1.939892990E1,-1.985253580E-2,9.147437662E-2,2.229592577E-2
1.940807985E1,-1.832541823E-2,7.162184268E-2,2.229592577E-2
1.941722974E1,-1.267508045E-2,5.054761097E-2,2.305948362E-2
1.942637969E1,-7.024743594E-3,3.603998944E-2,2.550287358E-2
1.943552959E1,-6.872031838E-3,2.275406010E-2,2.733541466E-2
1.944467954E1,-9.926267900E-3,1.313321572E-2,2.489202656E-2
1.945382948E1,-3.054236295E-3,1.130067464E-2,2.550287358E-2
1.946297938E1,1.221694518E-3,7.635590620E-3,2.626643144E-2
1.947212933E1,0.000000000E0,7.635590620E-3,2.321219631E-2
1.948127922E1,6.108472589E-4,1.130067464E-2,1.893626526E-2
1.949042917E1,-3.054236295E-3,1.603474095E-2,1.160609815E-2
1.949957912E1,-6.719320081E-3,1.175880991E-2,7.788302377E-3
1.950872902E1,-9.773556143E-3,3.970507067E-3,7.177455351E-3
1.951787896E1,-7.177455351E-3,-3.206948051E-3,1.206423342E-2
1.952702886E1,-6.413896102E-3,-1.588202827E-2,1.710372418E-2
1.953617881E1,-8.704573847E-3,-3.802524135E-2,2.137965336E-2
1.954532876E1,-9.773556143E-3,-5.680879578E-2,1.893626526E-2
1.955447865E1,-6.566607859E-3,-7.192726433E-2,1.893626526E-2
1.956362860E1,-2.901524538E-3,-7.849387079E-2,1.832541823E-2
1.957277850E1,-4.581354442E-4,-7.605048269E-2,1.466033421E-2
1.958192844E1,5.039489828E-3,-6.215370819E-2,1.221694518E-2
1.959107839E1,5.497625098E-3,-4.291202128E-2,1.221694518E-2
1.960022829E1,-1.527118147E-4,-3.161134571E-2,1.343864016E-2
1.960937824E1,-2.748812549E-3,-2.305948362E-2,1.221694518E-2
1.961852818E1,-3.970507067E-3,-2.367033064E-2,1.160609815E-2
1.962767808E1,-1.130067464E-2,-2.305948362E-2,1.267508045E-2
1.963682803E1,-1.328592747E-2,-2.015795931E-2,1.450762246E-2
1.964597792E1,-1.374406368E-2,-2.260134928E-2,1.206423342E-2
1.965512787E1,-1.313321572E-2,-3.100049868E-2,1.084253844E-2
1.966427782E1,-7.024743594E-3,-3.100049868E-2,1.160609815E-2
1.967342771E1,-3.206948051E-3,-3.100049868E-2,1.282779220E-2
1.968257766E1,3.512371797E-3,-3.634541109E-2,1.649287529E-2
1.969172756E1,1.038440317E-2,-4.413371533E-2,1.954711229E-2
1.970087751E1,1.481304597E-2,-5.680879578E-2,2.336490713E-2
1.971002745E1,1.420219894E-2,-6.642963737E-2,3.069507517E-2
1.971917735E1,1.298050396E-2,-7.543963939E-2,3.680354729E-2
1.972832730E1,1.252236869E-2,-8.200624585E-2,3.802524135E-2
1.973747719E1,1.557660475E-2,-8.872556686E-2,3.680354729E-2
1.974662714E1,1.634016447E-2,-9.055810422E-2,3.191677108E-2
1.975577709E1,1.634016447E-2,-8.994726092E-2,2.397575416E-2
1.976492699E1,1.557660475E-2,-7.727217674E-2,1.664558798E-2
1.977407693E1,1.786728203E-2,-5.375456065E-2,1.298050396E-2
1.978322688E1,1.832541823E-2,-2.183778957E-2,1.236965694E-2
1.979237678E1,1.557660475E-2,4.734066315E-3,1.466033421E-2
1.980152673E1,1.359135192E-2,2.153236605E-2,1.588202827E-2
1.981067662E1,1.282779220E-2,2.519745007E-2,1.771457121E-2
1.981982657E1,1.343864016E-2,1.969982497E-2,2.321219631E-2
1.982897652E1,1.053711493E-2,7.177455351E-3,2.565558441E-2
1.983812641E1,1.374406368E-2,4.581354442E-4,2.565558441E-2
1.984727636E1,2.290677279E-2,-1.527118147E-4,2.641914412E-2
1.985642631E1,3.206948191E-2,1.068982761E-3,2.702999115E-2
1.986557620E1,3.390202299E-2,6.566607859E-3,2.886253223E-2
1.987472615E1,2.702999115E-2,1.435491070E-2,2.825168520E-2
1.988387610E1,1.481304597E-2,7.788302377E-3,2.199050039E-2
1.989302600E1,7.482878864E-3,-3.206948051E-3,2.015795931E-2
1.990217594E1,2.137965523E-3,-1.343864016E-2,1.588202827E-2
1.991132584E1,-8.246437646E-3,-2.321219631E-2,3.512371797E-3
1.992047579E1,-2.092151903E-2,-4.001049697E-2,-9.926267900E-3
1.992962574E1,-2.443389036E-2,-6.230641901E-2,-1.420219894E-2
1.993877563E1,-2.809897438E-2,-7.269082218E-2,-1.603474095E-2
1.994792558E1,-3.771981969E-2,-9.071081877E-2,-2.458660305E-2
1.995707553E1,-3.756710514E-2,-1.101052165E-1,-2.702999115E-2
1.996622542E1,-2.519745007E-2,-1.166718230E-1,-1.969982497E-2
1.997537537E1,-1.236965694E-2,-1.075091213E-1,-1.282779220E-2
1.998452532E1,-3.817795310E-3,-9.605573118E-2,-1.221694518E-2
1.999367521E1,3.359660041E-3,-8.108997345E-2,-9.162709117E-3
2.000282516E1,1.496575773E-2,-7.009471953E-2,1.527118147E-4
2.001197511E1,3.023693897E-2,-5.131116882E-2,1.298050396E-2
2.002112501E1,4.367557913E-2,-3.924693540E-2,2.168507688E-2
2.003027495E1,5.283828825E-2,-3.924693540E-2,3.084778599E-2
2.003942490E1,5.650337040E-2,-4.520269856E-2,3.833066672E-2
2.004857480E1,6.276455522E-2,-4.825693369E-2,4.627167806E-2
2.005772474E1,7.009471953E-2,-4.398100078E-2,5.360184610E-2
2.006687469E1,7.666133344E-2,-3.237490356E-2,5.787777901E-2
2.007602459E1,8.276980370E-2,-1.435491070E-2,6.047387794E-2
2.008517454E1,8.444963396E-2,-4.581354442E-4,6.230641901E-2
2.009432448E1,8.735115826E-2,1.282779220E-2,6.352811307E-2
2.010347438E1,8.429691941E-2,2.244863659E-2,5.971032009E-2
2.011262433E1,7.192726433E-2,2.535016090E-2,4.932591692E-2
2.012177428E1,5.955760926E-2,2.351761982E-2,4.245388508E-2
2.013092417E1,4.978405312E-2,2.412846684E-2,3.512371704E-2
2.014007412E1,3.878879920E-2,1.801999472E-2,2.397575416E-2
2.014922407E1,2.611372061E-2,-3.206948051E-3,1.114796288E-2
2.015837396E1,1.893626526E-2,-2.076880634E-2,3.206948051E-3
2.016752391E1,9.773556143E-3,-3.100049868E-2,-3.665083554E-3
2.017667386E1,-6.108472589E-4,-4.611896724E-2,-8.551862091E-3
2.018582376E1,-5.955760833E-3,-6.108472496E-2,-9.162709117E-3
2.019497370E1,-1.007897966E-2,-7.681404054E-2,-1.404948719E-2
2.020412365E1,-6.872031838E-3,-8.948912472E-2,-1.221694518E-2
2.021336490E1,1.068982761E-3,-9.361234307E-2,-6.108472589E-3
2.022269771E1,1.145338640E-2,-9.361234307E-2,6.261184346E-3
2.023203058E1,1.893626526E-2,-9.422318637E-2,1.175880991E-2
2.024136344E1,2.199050039E-2,-9.300149232E-2,9.926267900E-3
2.025069626E1,2.550287358E-2,-8.276980370E-2,9.926267900E-3
2.026002912E1,3.038965166E-2,-5.925218388E-2,1.175880991E-2
2.026936198E1,2.993151546E-2,-2.244863659E-2,1.359135192E-2
2.027869480E1,2.596100792E-2,1.191152167E-2,1.725643501E-2
2.028802766E1,1.466033421E-2,3.542914242E-2,1.527118124E-2
2.029736053E1,5.955760833E-3,4.566083103E-2,1.099525020E-2
2.030669339E1,2.137965523E-3,6.001574174E-2,5.497625098E-3
2.031602620E1,2.137965523E-3,6.597150117E-2,6.108472589E-4
2.032535907E1,4.581354558E-3,6.352811307E-2,-5.497625098E-3
2.033469193E1,1.145338640E-2,6.184828654E-2,-9.162709117E-3
2.034402475E1,4.123218823E-3,5.757235363E-2,-1.038440317E-2
2.035335761E1,-1.496575773E-2,4.795150831E-2,-1.236965694E-2
2.036269048E1,-3.206948191E-2,2.916795574E-2,-1.191152167E-2
2.037202329E1,-3.787253052E-2,2.596100792E-3,-1.679829881E-2
2.038135615E1,-3.451287001E-2,-2.321219631E-2,-1.985253580E-2
2.039068902E1,-3.191677108E-2,-4.856235534E-2,-2.092151903E-2
2.040002183E1,-3.038965166E-2,-7.024743408E-2,-2.397575416E-2
2.040935469E1,-3.344388679E-2,-8.475505561E-2,-2.825168520E-2
2.041868756E1,-3.161134571E-2,-8.597674966E-2,-2.886253223E-2
2.042802037E1,-2.061609551E-2,-7.452336699E-2,-2.214321308E-2
2.043735324E1,-5.955760833E-3,-5.879404768E-2,-1.771457121E-2
2.044659683E1,4.428642802E-3,-4.306473210E-2,-1.343864016E-2
2.045574678E1,9.773556143E-3,-2.794626169E-2,-9.773556143E-3
2.046489667E1,1.145338640E-2,-1.343864016E-2,-4.275931045E-3
2.047404662E1,1.252236869E-2,3.359660041E-3,2.443389036E-3
2.048319657E1,1.053711493E-2,2.397575416E-2,7.330167107E-3
2.049234646E1,6.566607859E-3,4.443913698E-2,8.551862091E-3
2.050149641E1,2.137965523E-3,5.879404768E-2,8.551862091E-3
2.051064636E1,1.527118147E-3,6.123743951E-2,4.275931045E-3
2.051979631E1,-2.748812549E-3,5.512896553E-2,-7.635590737E-4
2.052894620E1,-7.024743594E-3,4.734066129E-2,-6.261184346E-3
2.053809615E1,-5.650337320E-3,4.123219103E-2,-1.236965694E-2
2.054724610E1,-2.443389036E-3,2.977880463E-2,-1.175880991E-2
2.055639600E1,1.832541777E-3,2.199050039E-2,-9.162709117E-3
2.056554594E1,7.635590737E-4,1.664558798E-2,-8.551862091E-3
2.057469589E1,-3.512371797E-3,1.175880991E-2,-7.330167107E-3
2.058384584E1,-5.344913341E-3,4.581354558E-3,-9.162709117E-3
2.059299574E1,-6.566607859E-3,-9.162708884E-4,-7.482878864E-3
2.060214568E1,-9.620844387E-3,-3.970507067E-3,-7.482878864E-3
2.061129563E1,-1.068982668E-2,-1.053711493E-2,-9.926267900E-3
2.062044553E1,-3.970507067E-3,-7.482878864E-3,-6.108472589E-3
2.062959548E1,3.970507067E-3,-1.527118147E-3,-6.108472589E-4
2.063874542E1,3.970507067E-3,-3.206948051E-3,3.665083554E-3
2.064789537E1,-3.054236295E-4,-1.588202827E-2,4.886778072E-3
2.065704527E1,-5.192201585E-3,-2.260134928E-2,5.497625098E-3
2.066619521E1,-4.581354558E-3,-1.649287529E-2,8.551862091E-3
2.067534516E1,7.024743594E-3,-6.872031838E-3,6.108472589E-3
2.068449506E1,1.252236869E-2,1.068982761E-3,4.275931045E-3
2.069364501E1,1.114796288E-2,1.236965694E-2,1.832541777E-3
2.070279495E1,3.054236295E-3,2.321219631E-2,-2.443389036E-3
2.071194490E1,-8.093725890E-3,3.038965166E-2,-5.650337320E-3
2.072109480E1,-1.664558798E-2,3.405473381E-2,-6.872031838E-3
2.073024474E1,-1.618745178E-2,3.771981969E-2,-6.261184346E-3
2.073939469E1,-6.872031838E-3,4.611896724E-2,-1.053711493E-2
2.074854464E1,-7.024743594E-3,5.451811850E-2,-1.847812906E-2
2.075769454E1,-8.857285604E-3,6.047387794E-2,-1.847812906E-2
2.076684448E1,-1.572931744E-2,7.131642103E-2,-1.664558798E-2
2.077599443E1,-2.748812735E-2,7.620319724E-2,-1.985253580E-2
2.078514433E1,-3.237490356E-2,6.887302548E-2,-2.107422985E-2
2.079429428E1,-2.412846684E-2,4.856235534E-2,-1.435491070E-2
2.080344422E1,-1.771457121E-2,2.137965336E-2,-9.315420873E-3
2.081259417E1,-1.756185852E-2,-6.872031838E-3,-1.053711493E-2
2.082174407E1,-1.725643501E-2,-3.588727489E-2,-1.114796288E-2
2.083089402E1,-1.710372418E-2,-5.222744122E-2,-1.298050396E-2
2.084004396E1,-1.527118124E-2,-4.978405312E-2,-1.542389300E-2
2.084919391E1,-1.175880991E-2,-3.894151375E-2,-1.725643501E-2
2.085834381E1,-9.315420873E-3,-1.771457121E-2,-1.542389300E-2
2.086749376E1,-1.145338640E-2,9.315420873E-3,-1.236965694E-2
2.087664370E1,-1.786728203E-2,2.687728032E-2,-1.236965694E-2
2.088579365E1,-2.107422985E-2,4.001049697E-2,-1.236965694E-2
2.089494355E1,-2.244863659E-2,5.207473040E-2,-1.236965694E-2
2.090409350E1,-2.244863659E-2,5.573981255E-2,-1.725643501E-2
2.091324344E1,-2.428117767E-2,5.451811850E-2,-2.046338283E-2
2.092239339E1,-2.977880463E-2,5.024218559E-2,-2.718270384E-2
2.093154329E1,-3.710897267E-2,4.535540938E-2,-3.023693897E-2
2.094069324E1,-3.771981969E-2,4.230117425E-2,-2.412846684E-2
2.094984318E1,-3.833066672E-2,4.413371533E-2,-2.046338283E-2
2.095899313E1,-3.833066672E-2,4.245388508E-2,-1.740914769E-2
2.096814303E1,-4.184303805E-2,3.283303976E-2,-1.801999472E-2
2.097729298E1,-4.123219103E-2,2.015795931E-2,-1.924168877E-2
2.098644292E1,-2.687728032E-2,1.053711493E-2,-1.985253580E-2
2.099559287E1,-1.267508045E-2,-9.162708884E-4,-1.969982497E-2
2.100474282E1,-2.137965523E-3,-1.114796288E-2,-1.282779220E-2
2.101389271E1,4.581354442E-4,-2.137965336E-2,-6.108472589E-3
2.102304266E1,1.679830020E-3,-2.611372061E-2,-1.832541777E-3
2.103219261E1,-5.039489828E-3,-3.161134571E-2,-3.054236295E-3
2.104134251E1,-1.557660475E-2,-2.550287358E-2,-1.985253533E-3
2.105049245E1,-2.000524849E-2,-1.298050396E-2,-3.817795310E-3
2.105964240E1,-1.893626526E-2,2.137965523E-3,-8.093725890E-3
2.106879235E1,-1.954711229E-2,1.481304597E-2,-1.298050396E-2
2.107794230E1,-2.641914412E-2,2.428117767E-2,-2.290677279E-2
2.108709219E1,-3.313846514E-2,2.550287358E-2,-3.084778599E-2
2.109624214E1,-3.436015919E-2,2.611372061E-2,-3.023693897E-2
2.110539209E1,-3.329117596E-2,3.206948191E-2,-2.535016090E-2
2.111454204E1,-3.390202299E-2,3.100049868E-2,-2.596100792E-2
2.112369193E1,-3.436015919E-2,2.367033064E-2,-2.779355086E-2
2.113284188E1,-3.741439432E-2,1.588202827E-2,-2.718270384E-2
2.114199183E1,-3.909422457E-2,6.872031838E-3,-2.718270384E-2
2.115114178E1,-3.161134571E-2,-4.581354558E-3,-2.596100792E-2
2.116029167E1,-2.412846684E-2,-1.847812906E-2,-1.908897609E-2
2.116944162E1,-2.107422985E-2,-3.161134571E-2,-1.481304597E-2
2.117859157E1,-2.153236605E-2,-4.184303805E-2,-1.359135192E-2
2.118774152E1,-2.336490713E-2,-4.550812021E-2,-1.359135192E-2
2.119689146E1,-2.901524492E-2,-4.016320780E-2,-1.542389300E-2
2.120604136E1,-3.084778599E-2,-2.993151546E-2,-1.908897609E-2
2.121519131E1,-2.916795574E-2,-1.359135192E-2,-2.092151903E-2
2.122434126E1,-2.870982140E-2,-9.162708884E-4,-2.397575416E-2
2.123349120E1,-2.870982140E-2,1.221694518E-2,-2.718270384E-2
2.124264110E1,-3.130592033E-2,2.367033064E-2,-2.718270384E-2
2.125179105E1,-3.634541109E-2,3.756710514E-2,-2.657185495E-2
2.126094100E1,-4.138490185E-2,4.352286831E-2,-2.473931387E-2
2.127009094E1,-4.321744293E-2,4.062134400E-2,-2.596100792E-2
2.127924089E1,-4.001049697E-2,2.916795574E-2,-2.840439789E-2
2.128839079E1,-3.497100621E-2,1.771457121E-2,-2.901524492E-2
2.129754074E1,-3.359659761E-2,5.650337320E-3,-2.901524492E-2
2.130669068E1,-3.909422457E-2,-5.192201585E-3,-2.779355086E-2
2.131584063E1,-4.153761268E-2,-1.068982668E-2,-2.412846684E-2
2.132499058E1,-4.092676565E-2,-1.435491070E-2,-2.229592577E-2
2.133414048E1,-4.520269856E-2,-1.786728203E-2,-2.412846684E-2
2.134329042E1,-4.703523964E-2,-1.908897609E-2,-2.535016090E-2
2.135244037E1,-4.337015375E-2,-1.725643501E-2,-2.229592577E-2
2.136159032E1,-3.894151375E-2,-2.275406010E-2,-1.924168877E-2
2.137074027E1,-3.161134571E-2,-2.153236605E-2,-1.374406368E-2
2.137989016E1,-1.817270555E-2,-1.664558798E-2,-8.093725890E-3
2.138904011E1,-1.068982668E-2,-1.359135192E-2,-3.206948051E-3
2.139819006E1,-1.328592747E-2,-1.175880991E-2,-3.206948051E-3
2.140734001E1,-1.450762246E-2,-5.039489828E-3,-1.985253533E-3
2.141648995E1,-1.588202827E-2,5.803049076E-3,4.581354442E-4
2.142563985E1,-1.969982497E-2,2.092151903E-2,-1.527118147E-4
2.143478980E1,-2.168507688E-2,3.405473381E-2,-1.985253533E-3
2.144393974E1,-1.863084175E-2,4.123219103E-2,-4.428642802E-3
2.145308969E1,-1.496575773E-2,4.550812021E-2,-6.872031838E-3
2.146223964E1,-1.863084175E-2,5.268557742E-2,-8.093725890E-3
2.147138954E1,-2.794626169E-2,5.818320066E-2,-7.024743594E-3
2.148053948E1,-2.993151546E-2,5.757235363E-2,-7.635590620E-3
2.148968943E1,-2.733541466E-2,5.329642445E-2,-7.635590620E-3
2.149883938E1,-2.611372061E-2,5.024218559E-2,-1.130067464E-2
2.150798933E1,-2.473931387E-2,4.062134400E-2,-1.191152167E-2
2.151713922E1,-2.458660305E-2,2.199050039E-2,-1.359135192E-2
2.152628917E1,-2.199050039E-2,9.926267900E-3,-1.114796288E-2
2.153543912E1,-2.183778957E-2,-3.970507067E-3,-1.114796288E-2
2.154458907E1,-2.107422985E-2,-2.443389036E-2,-1.114796288E-2
2.155373902E1,-1.740914769E-2,-3.527642787E-2,-6.261184346E-3
2.156288896E1,-1.557660475E-2,-3.161134571E-2,-1.527118147E-4
2.157203891E1,-1.801999472E-2,-2.321219631E-2,-7.635590737E-4
2.158118881E1,-2.061609551E-2,-1.603474095E-2,-6.261184346E-3
2.159033876E1,-1.817270555E-2,-8.704573847E-3,-7.482878864E-3
2.159948870E1,-1.710372418E-2,4.581354558E-3,-5.039489828E-3
2.160863865E1,-1.664558798E-2,1.786728203E-2,-1.985253533E-3
2.161778860E1,-1.114796288E-2,2.687728032E-2,1.679830020E-3
2.162693855E1,-1.985253533E-3,3.237490356E-2,6.566607859E-3
2.163608844E1,-4.428642802E-3,3.833066672E-2,8.399149403E-3
2.164523839E1,-9.315420873E-3,3.466558084E-2,8.399149403E-3
2.165438834E1,-9.926267900E-3,2.809897438E-2,7.788302377E-3
2.166353829E1,-1.114796288E-2,2.321219631E-2,7.177455351E-3
2.167268824E1,-8.704573847E-3,2.565558441E-2,9.620844387E-3
2.168183813E1,-4.886778072E-3,2.321219631E-2,7.788302377E-3
2.169098808E1,-3.054236295E-3,1.847812906E-2,4.275931045E-3
2.170013803E1,-4.275931045E-3,1.236965694E-2,1.679830020E-3
2.170928798E1,-1.221694518E-2,1.236965694E-2,-7.635590737E-4
2.171843792E1,-1.847812906E-2,1.603474095E-2,-1.374406274E-3
2.172758787E1,-1.969982497E-2,1.649287529E-2,-1.527118147E-4
2.173673777E1,-2.015795931E-2,1.053711493E-2,-2.596100792E-3
2.174588771E1,-1.832541823E-2,2.137965523E-3,-5.650337320E-3
2.175503766E1,-1.572931744E-2,-3.359660041E-3,-1.985253533E-3
2.176418761E1,-1.695101149E-2,-1.175880991E-2,-1.985253533E-3
2.177333756E1,-1.557660475E-2,-2.321219631E-2,-7.635590737E-4
2.178248751E1,-7.024743594E-3,-2.550287358E-2,2.443389036E-3
2.179163745E1,-2.137965523E-3,-2.199050039E-2,3.665083554E-3
2.180078735E1,-9.162708884E-4,-1.588202827E-2,6.108472589E-3
2.180993730E1,-2.137965523E-3,-9.926267900E-3,8.551862091E-3
2.181908725E1,-1.679830020E-3,-6.261184346E-3,8.551862091E-3
2.182823719E1,7.635590737E-4,-1.527118147E-3,5.497625098E-3
2.183738714E1,-1.679830020E-3,-6.261184346E-3,5.497625098E-3
2.184653709E1,-9.162708884E-4,-8.704573847E-3,6.108472589E-3
2.185568699E1,-1.679830020E-3,-2.596100792E-3,4.886778072E-3
2.186483693E1,1.374406274E-3,8.857285604E-3,4.275931045E-3
2.187398688E1,-1.832541777E-3,1.603474095E-2,6.108472589E-3
2.188313683E1,-1.099525020E-2,1.175880991E-2,4.734066315E-3
2.189228678E1,-1.160609815E-2,8.093725890E-3,4.734066315E-3
2.190143672E1,-6.566607859E-3,4.581354558E-3,2.901524538E-3
2.191058667E1,-2.137965523E-3,-9.315420873E-3,-2.443389036E-3
2.191973657E1,3.665083554E-3,-3.100049868E-2,-6.719320081E-3
2.192888652E1,1.175880991E-2,-4.902049154E-2,-2.443389036E-3
2.193803646E1,1.420219894E-2,-5.024218559E-2,4.428642802E-3
2.194718641E1,9.162709117E-3,-4.413371533E-2,7.330167107E-3
2.195633636E1,7.330167107E-3,-3.878879920E-2,1.527118124E-2
2.196548631E1,6.566607859E-3,-2.596100792E-2,2.260134928E-2
2.197463626E1,1.527118147E-3,-9.773556143E-3,2.137965336E-2
2.198378615E1,1.985253533E-3,5.344913341E-3,2.321219631E-2
2.199293610E1,1.114796288E-2,1.435491070E-2,2.382304333E-2
2.200208605E1,1.603474095E-2,1.068982668E-2,2.199050039E-2
2.201123600E1,2.168507688E-2,7.024743594E-3,1.786728203E-2
2.202038594E1,2.351761982E-2,5.192201585E-3,1.298050396E-2
2.202953589E1,1.740914769E-2,1.374406368E-2,8.551862091E-3
2.203868584E1,6.719320081E-3,3.115320951E-2,5.497625098E-3
2.204783579E1,-2.748812549E-3,5.940489471E-2,4.581354442E-4
2.205698574E1,-8.551862091E-3,8.170082420E-2,-2.596100792E-3
2.206613563E1,-1.221694518E-2,8.948912472E-2,-7.635590737E-4
2.207528558E1,-1.847812906E-2,8.475505561E-2,2.137965523E-3
2.208443553E1,-2.015795931E-2,7.742489129E-2,2.748812549E-3
2.209358548E1,-1.328592747E-2,6.001574174E-2,7.177455351E-3
2.210273542E1,-3.206948051E-3,3.833066672E-2,1.084253844E-2
2.211188537E1,3.817795310E-3,1.252236869E-2,9.773556143E-3
2.212103532E1,1.511846948E-2,-4.428642802E-3,9.162709117E-3
2.213018521E1,1.939439960E-2,-1.221694518E-2,1.420219894E-2
2.213933516E1,1.374406368E-2,-6.719320081E-3,1.099525020E-2
2.214848511E1,7.024743594E-3,1.679830020E-3,8.551862091E-3
2.215763506E1,-1.068982761E-3,1.313321572E-2,7.941014133E-3
2.216678501E1,-9.315420873E-3,2.748812735E-2,5.955760833E-3
2.217593495E1,-1.496575773E-2,3.771981969E-2,5.955760833E-3
2.218508490E1,-1.313321572E-2,3.955236077E-2,5.955760833E-3
2.219423485E1,-1.175880991E-2,3.405473381E-2,6.566607859E-3
2.220338480E1,-5.497625098E-3,2.565558441E-2,5.955760833E-3
2.221253475E1,6.108472589E-3,1.908897609E-2,9.773556143E-3
2.222168464E1,1.420219894E-2,1.786728203E-2,9.773556143E-3
2.223083459E1,2.031067200E-2,1.603474095E-2,7.482878864E-3
2.223998454E1,2.046338283E-2,1.542389300E-2,8.093725890E-3
2.224913449E1,1.542389300E-2,1.725643501E-2,9.162709117E-3
2.225828443E1,1.359135192E-2,2.092151903E-2,7.941014133E-3
2.226743438E1,1.236965694E-2,2.382304333E-2,6.719320081E-3
2.227658433E1,4.886778072E-3,2.870982140E-2,3.665083554E-3
2.228573428E1,-2.596100792E-3,3.161134571E-2,2.901524538E-3
2.229488422E1,-7.482878864E-3,3.527642787E-2,1.679830020E-3
2.230403412E1,-7.482878864E-3,3.161134571E-2,1.068982761E-3
2.231318407E1,-3.054236295E-3,2.687728032E-2,2.290677279E-3
2.232233402E1,6.261184346E-3,1.786728203E-2,3.054236295E-3
2.233148396E1,9.926267900E-3,8.246437646E-3,1.832541777E-3
2.234063391E1,1.068982668E-2,-1.527118147E-4,1.832541777E-3
2.234978386E1,1.374406368E-2,-6.872031838E-3,3.054236295E-3
2.235893381E1,1.007897966E-2,-3.206948051E-3,4.275931045E-3
2.236808376E1,-2.901524538E-3,3.054236295E-4,-1.985253533E-3
2.237723370E1,-1.328592747E-2,-1.527118147E-3,-8.704573847E-3
2.238638365E1,-1.511846948E-2,-3.970507067E-3,-9.926267900E-3
2.239553360E1,-1.328592747E-2,-4.581354558E-3,-1.114796288E-2
2.240468350E1,-1.695101149E-2,-5.803049076E-3,-1.786728203E-2
2.241383344E1,-2.229592577E-2,-1.969982497E-2,-2.092151903E-2
2.242298339E1,-1.924168877E-2,-2.504473738E-2,-1.908897609E-2
2.243213334E1,-1.114796288E-2,-2.443389036E-2,-1.542389300E-2
2.244128329E1,-1.985253533E-3,-2.015795931E-2,-1.099525020E-2
2.245043324E1,3.512371797E-3,-2.137965336E-2,-6.108472589E-3
2.245958318E1,3.512371797E-3,-2.076880634E-2,-1.832541777E-3
2.246873313E1,-7.635590737E-4,-2.015795931E-2,-2.443389036E-3
2.247788308E1,-2.748812549E-3,-1.893626526E-2,-1.832541777E-3
2.248703303E1,-2.748812549E-3,-1.588202827E-2,-1.221694518E-3
2.249618298E1,-3.359660041E-3,-1.053711493E-2,-6.108472589E-4
2.250533292E1,-3.970507067E-3,-8.704573847E-3,-4.886778072E-3
2.251448282E1,-6.413896102E-3,-1.298050396E-2,-7.941014133E-3
2.252363277E1,-3.970507067E-3,-1.542389300E-2,-1.038440317E-2
2.253278271E1,-3.359660041E-3,-1.603474095E-2,-1.466033421E-2
2.254193266E1,-6.413896102E-3,-1.481304597E-2,-1.710372418E-2
2.255108261E1,-1.252236869E-2,-1.420219894E-2,-1.542389300E-2
2.256023256E1,-1.496575773E-2,-1.481304597E-2,-1.786728203E-2
2.256938251E1,-1.130067464E-2,-8.246437646E-3,-2.275406010E-2
2.257853245E1,-7.024743594E-3,-2.748812549E-3,-1.908897609E-2
2.258768240E1,-5.344913341E-3,-1.527118147E-3,-1.404948719E-2
2.259683235E1,-7.635590620E-3,-5.192201585E-3,-1.236965694E-2
2.260598230E1,-7.635590620E-3,-9.926267900E-3,-1.053711493E-2
2.261513224E1,-2.748812549E-3,-1.053711493E-2,-4.886778072E-3
2.262428219E1,-3.359660041E-3,-3.817795310E-3,-5.497625098E-3
2.263343214E1,-4.123218823E-3,5.039489828E-3,-1.099525020E-2
2.264258209E1,-2.290677279E-3,1.175880991E-2,-1.282779220E-2
2.265173198E1,-1.068982761E-3,1.832541823E-2,-1.649287529E-2
2.266088193E1,-3.665083554E-3,2.076880634E-2,-1.832541823E-2
2.267003188E1,-4.275931045E-3,2.382304333E-2,-1.725643501E-2
2.267918183E1,-9.773556143E-3,2.611372061E-2,-1.481304597E-2
2.268833178E1,-8.704573847E-3,3.710897267E-2,-9.315420873E-3
2.269748173E1,-3.970507067E-3,4.795150831E-2,-7.635590737E-4
2.270663167E1,-1.527118147E-4,4.611896724E-2,3.054236295E-3
2.271578162E1,-1.527118147E-4,3.466558084E-2,-0.000000000E0
2.272493157E1,1.221694518E-3,2.993151546E-2,-6.108472589E-4
2.273408152E1,2.443389036E-3,2.504473738E-2,-3.054236295E-3
2.274323146E1,7.024743594E-3,9.926267900E-3,-1.343864016E-2
2.275238141E1,1.343864016E-2,-7.482878864E-3,-2.443389036E-2
2.276153136E1,1.832541823E-2,-1.359135192E-2,-2.672456764E-2
2.277068131E1,5.955760833E-3,-3.970507067E-3,-2.870982140E-2
2.277983126E1,-1.145338640E-2,8.704573847E-3,-3.497100621E-2
2.278898120E1,-2.565558441E-2,1.695101149E-2,-4.230117425E-2
2.279813115E1,-3.313846514E-2,2.489202656E-2,-4.611896724E-2
2.280728110E1,-3.558185324E-2,2.779355086E-2,-4.734066129E-2
2.281643105E1,-3.374931216E-2,2.244863659E-2,-4.367557913E-2
2.282558100E1,-2.932066843E-2,1.817270555E-2,-3.878879920E-2
2.283473094E1,-2.260134928E-2,1.466033421E-2,-3.313846514E-2
2.284388089E1,-1.695101149E-2,-3.054236295E-4,-3.191677108E-2
2.285303079E1,-1.236965694E-2,-1.725643501E-2,-2.947338112E-2
2.286218074E1,-8.704573847E-3,-2.932066843E-2,-2.687728032E-2
2.287133068E1,-3.817795310E-3,-2.932066843E-2,-2.260134928E-2
2.288048063E1,-7.635590737E-4,-2.199050039E-2,-1.832541823E-2
2.288963058E1,-9.162708884E-4,-8.093725890E-3,-1.466033421E-2
2.289878053E1,-9.009997360E-3,5.803049076E-3,-1.053711493E-2
2.290793048E1,-1.710372418E-2,1.359135192E-2,-7.482878864E-3
2.291708042E1,-2.580829710E-2,2.076880634E-2,-7.635590620E-3
2.292623037E1,-3.268032894E-2,3.100049868E-2,-1.252236869E-2
2.293538032E1,-3.268032894E-2,3.573456407E-2,-1.863084175E-2
2.294453027E1,-2.535016090E-2,3.695625812E-2,-2.412846684E-2
2.295368021E1,-1.908897609E-2,3.695625812E-2,-2.641914412E-2
2.296283016E1,-1.420219894E-2,3.817795217E-2,-2.702999115E-2
2.297198011E1,-1.420219894E-2,4.245388508E-2,-2.702999115E-2
2.298113006E1,-2.046338283E-2,5.207473040E-2,-2.657185495E-2
2.299028001E1,-3.359659761E-2,7.498150319E-2,-2.412846684E-2
2.299942995E1,-4.184303805E-2,9.422318637E-2,-2.061609551E-2
2.300857990E1,-4.245388508E-2,9.849911928E-2,-1.695101149E-2
2.301772985E1,-3.695625812E-2,9.956810623E-2,-1.557660475E-2
2.302687980E1,-3.023693897E-2,1.014006436E-1,-1.374406368E-2
2.303602974E1,-2.336490713E-2,1.014006436E-1,-1.679829881E-2
2.304517969E1,-2.031067200E-2,9.727742523E-2,-1.679829881E-2
2.305432964E1,-1.603474095E-2,9.422318637E-2,-1.542389300E-2
2.306347959E1,-1.160609815E-2,9.361234307E-2,-1.236965694E-2
2.307262954E1,-1.038440317E-2,9.193251282E-2,-1.175880991E-2
2.308177949E1,-1.099525020E-2,8.521319181E-2,-1.053711493E-2
2.309092943E1,-1.450762246E-2,7.330167294E-2,-9.926267900E-3
2.310007938E1,-2.183778957E-2,5.573981255E-2,-8.857285604E-3
2.310922933E1,-2.290677279E-2,4.489727318E-2,-6.413896102E-3
2.311837928E1,-1.740914769E-2,4.367557913E-2,-2.596100792E-3
2.312752922E1,-1.068982668E-2,4.077405483E-2,-7.635590737E-4
2.313667917E1,-5.039489828E-3,3.527642787E-2,4.581354442E-4
2.314582912E1,-5.497625098E-3,2.382304333E-2,2.290677279E-3
2.315497907E1,-9.162709117E-3,1.481304597E-2,2.290677279E-3
2.316412902E1,-1.466033421E-2,2.137965523E-3,4.581354442E-4
2.317327896E1,-2.260134928E-2,-6.872031838E-3,-1.527118147E-4
2.318242891E1,-2.916795574E-2,-1.359135192E-2,-3.970507067E-3
2.319157886E1,-2.672456764E-2,-1.359135192E-2,-8.704573847E-3
2.320072881E1,-2.550287358E-2,-8.246437646E-3,-1.420219894E-2
2.320987876E1,-3.038965166E-2,-1.068982668E-2,-2.107422985E-2
2.321902870E1,-3.833066672E-2,-2.214321308E-2,-2.535016090E-2
2.322817865E1,-4.504998401E-2,-3.054236248E-2,-2.596100792E-2
2.323732860E1,-4.810422286E-2,-3.726168349E-2,-2.718270384E-2
2.324647855E1,-4.993676394E-2,-3.894151375E-2,-2.657185495E-2
2.325562850E1,-4.856235534E-2,-4.504998401E-2,-2.596100792E-2
2.326477844E1,-4.474456236E-2,-5.589252338E-2,-2.412846684E-2
2.327392839E1,-3.970507160E-2,-7.024743408E-2,-2.473931387E-2
2.328307834E1,-3.222219273E-2,-7.986827940E-2,-2.214321308E-2
2.329222829E1,-2.672456764E-2,-8.108997345E-2,-1.786728203E-2
2.330137824E1,-2.489202656E-2,-7.681404054E-2,-1.236965694E-2
2.331052818E1,-2.428117767E-2,-7.925742865E-2,-8.093725890E-3
2.331967813E1,-2.122694254E-2,-8.047912270E-2,-5.039489828E-3
2.332882808E1,-1.939439960E-2,-7.620319724E-2,-2.596100792E-3
2.333797803E1,-1.939439960E-2,-7.498150319E-2,-5.039489828E-3
2.334712798E1,-2.122694254E-2,-7.620319724E-2,-8.704573847E-3
2.335627792E1,-2.061609551E-2,-7.864658535E-2,-9.315420873E-3
2.336542787E1,-1.817270555E-2,-7.253811508E-2,-9.315420873E-3
2.337457782E1,-1.466033421E-2,-5.940489471E-2,-6.872031838E-3
2.338372777E1,-1.527118124E-2,-4.795150831E-2,-8.093725890E-3
2.339287771E1,-1.908897609E-2,-3.588727489E-2,-1.114796288E-2
2.340202766E1,-2.779355086E-2,-2.199050039E-2,-1.130067464E-2
2.341117761E1,-3.542914242E-2,-9.315420873E-3,-1.191152167E-2
2.342032756E1,-3.863608837E-2,3.817795310E-3,-7.024743594E-3
2.342947751E1,-3.497100621E-2,1.542389300E-2,-1.527118147E-3
2.343862745E1,-3.145863488E-2,2.137965336E-2,3.054236295E-4
2.344777740E1,-2.764083818E-2,1.771457121E-2,3.054236295E-4
2.345692735E1,-2.275406010E-2,1.298050396E-2,1.679830020E-3
2.346607730E1,-2.626643144E-2,3.054236295E-4,1.527118147E-3
2.347522725E1,-3.100049868E-2,-1.527118124E-2,-2.137965523E-3
2.348437719E1,-2.657185495E-2,-3.161134571E-2,-1.527118147E-3
2.349352714E1,-1.725643501E-2,-4.062134400E-2,1.679830020E-3
2.350267709E1,-1.236965694E-2,-4.062134400E-2,4.734066315E-3
2.351182704E1,-1.420219894E-2,-4.123219103E-2,1.206423342E-2
2.352097698E1,-1.618745178E-2,-2.855710872E-2,1.511846948E-2
2.353012693E1,-1.878355257E-2,-1.160609815E-2,1.145338640E-2
2.353927688E1,-1.221694518E-2,1.068982761E-3,1.206423342E-2
2.354842688E1,-5.497625098E-3,1.969982497E-2,1.695101149E-2
2.355757683E1,-5.650337320E-3,2.809897438E-2,1.450762246E-2
2.356672678E1,-2.443389036E-3,2.336490713E-2,1.023169141E-2
2.357587672E1,2.443389036E-3,1.664558798E-2,9.773556143E-3
2.358502667E1,-6.108472589E-4,1.542389300E-2,9.162709117E-3
2.359417662E1,-9.009997360E-3,1.068982761E-3,5.955760833E-3
2.360332657E1,-1.695101149E-2,-1.466033421E-2,4.734066315E-3
2.361247652E1,-2.367033064E-2,-2.687728032E-2,1.068982761E-3
2.362162646E1,-2.473931387E-2,-3.588727489E-2,-2.596100792E-3
2.363077641E1,-1.969982497E-2,-4.550812021E-2,-5.650337320E-3
2.363992636E1,-1.221694518E-2,-4.856235534E-2,-5.039489828E-3
2.364907631E1,-4.886778072E-3,-5.024218559E-2,-5.497625098E-3
2.365822626E1,-6.108472589E-4,-4.856235534E-2,-4.275931045E-3
2.366737620E1,0.000000000E0,-5.146388337E-2,-3.665083554E-3
2.367652615E1,7.635590737E-4,-5.925218388E-2,-1.832541777E-3
2.368567610E1,-3.512371797E-3,-6.719319522E-2,-4.275931045E-3
2.369482605E1,-2.901524538E-3,-6.658235192E-2,-4.886778072E-3
2.370397600E1,-4.581354442E-4,-5.635065958E-2,-3.054236295E-3
2.371312594E1,-2.443389036E-3,-5.024218559E-2,1.221694518E-3
2.372227589E1,-2.443389036E-3,-4.779879749E-2,5.497625098E-3
2.373142589E1,-6.108472589E-4,-4.489727318E-2,3.665083554E-3
2.374057584E1,-1.832541777E-3,-4.489727318E-2,2.443389036E-3
2.374972579E1,-1.221694518E-3,-4.428642616E-2,-0.000000000E0
2.375887574E1,6.108472589E-4,-3.695625812E-2,-1.221694518E-3
2.376802568E1,-2.596100792E-3,-2.367033064E-2,-2.443389036E-3
2.377717563E1,-6.413896102E-3,-1.420219894E-2,-5.039489828E-3
2.378632558E1,-1.007897966E-2,-9.926267900E-3,-6.872031838E-3
2.379547553E1,-9.620844387E-3,-6.872031838E-3,-8.093725890E-3
2.380462548E1,-7.635590620E-3,-1.175880991E-2,-9.315420873E-3
2.381377542E1,-7.635590620E-3,-1.771457121E-2,-7.330167107E-3
2.382292537E1,-8.857285604E-3,-1.710372418E-2,-1.985253533E-3
2.383207532E1,-7.024743594E-3,-1.053711493E-2,4.581354442E-4
2.384122527E1,-5.344913341E-3,-3.817795310E-3,-1.221694518E-3
2.385037521E1,9.162708884E-4,-3.206948051E-3,-1.832541777E-3
2.385952516E1,3.359660041E-3,-7.482878864E-3,-1.221694518E-3
2.386867511E1,6.566607859E-3,-2.244863659E-2,-3.665083554E-3
2.387782511E1,6.719320081E-3,-3.466558084E-2,-3.665083554E-3
2.388697506E1,8.551862091E-3,-4.062134400E-2,-4.275931045E-3
2.389612501E1,1.038440317E-2,-4.245388508E-2,-3.665083554E-3
2.390527495E1,9.926267900E-3,-4.672981426E-2,-5.497625098E-3
2.391442490E1,5.039489828E-3,-5.512896553E-2,-7.941014133E-3
2.392357485E1,6.413896102E-3,-6.352811307E-2,-9.162709117E-3
2.393272480E1,1.068982668E-2,-6.230641901E-2,-1.206423342E-2
2.394187474E1,9.468132630E-3,-5.940489471E-2,-1.343864016E-2
2.395102469E1,7.482878864E-3,-5.329642445E-2,-1.160609815E-2
2.396017464E1,8.704573847E-3,-4.428642616E-2,-1.221694518E-2
2.396932459E1,4.886778072E-3,-3.161134571E-2,-9.773556143E-3
2.397847459E1,-9.162708884E-4,-1.282779220E-2,-6.719320081E-3
2.398762454E1,-2.290677279E-3,9.162708884E-4,-6.719320081E-3
2.399677449E1,1.527118147E-4,5.192201585E-3,-7.330167107E-3
2.400592443E1,3.970507067E-3,-2.137965523E-3,-9.162709117E-3
2.401507438E1,1.084253844E-2,-1.649287529E-2,-1.160609815E-2
2.402422433E1,1.527118124E-2,-2.611372061E-2,-1.023169141E-2
2.403337428E1,1.404948719E-2,-3.161134571E-2,-1.328592747E-2
2.404252422E1,9.162709117E-3,-3.466558084E-2,-1.588202827E-2
2.405167417E1,6.719320081E-3,-3.344388679E-2,-1.343864016E-2
2.406082412E1,1.832541777E-3,-2.565558441E-2,-1.404948719E-2
2.406997412E1,-1.114796288E-2,-2.321219631E-2,-1.542389300E-2
2.407912407E1,-1.924168877E-2,-2.092151903E-2,-1.786728203E-2
2.408827402E1,-2.046338283E-2,-2.504473738E-2,-2.153236605E-2
2.409742396E1,-1.924168877E-2,-2.443389036E-2,-2.519745007E-2
2.410657391E1,-1.985253580E-2,-2.458660305E-2,-2.947338112E-2
2.411572386E1,-1.924168877E-2,-2.336490713E-2,-3.191677108E-2
2.412487381E1,-1.557660475E-2,-1.908897609E-2,-3.252761811E-2
2.413402376E1,-1.236965694E-2,-1.908897609E-2,-3.191677108E-2
2.414317370E1,-1.191152167E-2,-1.908897609E-2,-2.825168520E-2
2.415232365E1,-1.068982668E-2,-1.175880991E-2,-2.519745007E-2
2.416147360E1,-9.468132630E-3,-1.175880991E-2,-2.031067200E-2
2.417062360E1,-8.857285604E-3,-1.603474095E-2,-1.786728203E-2
2.417977355E1,-5.039489828E-3,-1.786728203E-2,-1.710372418E-2
2.418892350E1,-1.985253533E-3,-1.725643501E-2,-1.832541823E-2
2.419807344E1,-7.635590737E-4,-1.664558798E-2,-2.076880634E-2
2.420722339E1,-1.527118147E-4,-2.015795931E-2,-1.954711229E-2
2.421637334E1,-6.261184346E-3,-2.260134928E-2,-2.015795931E-2
2.422552329E1,-8.704573847E-3,-2.626643144E-2,-2.076880634E-2
2.423467324E1,-5.039489828E-3,-2.382304333E-2,-1.771457121E-2
2.424382324E1,-1.374406274E-3,-1.771457121E-2,-1.466033421E-2
2.425297318E1,3.970507067E-3,-8.093725890E-3,-9.162709117E-3
2.426212313E1,4.581354558E-3,-5.650337320E-3,-3.054236295E-3
2.427127308E1,1.527118147E-3,-1.053711493E-2,6.108472589E-4
2.428042303E1,9.009997360E-3,-1.175880991E-2,1.221694518E-3
2.428957298E1,1.572931744E-2,-5.650337320E-3,-0.000000000E0
2.429872292E1,1.313321572E-2,-2.596100792E-3,-2.443389036E-3
2.430787287E1,8.246437646E-3,-5.039489828E-3,-7.941014133E-3
2.431702287E1,8.399149403E-3,-9.315420873E-3,-1.404948719E-2
2.432617282E1,5.955760833E-3,-1.053711493E-2,-2.199050039E-2
2.433532277E1,5.955760833E-3,-9.315420873E-3,-1.893626526E-2
2.434447271E1,4.123218823E-3,-1.236965694E-2,-1.160609815E-2
2.435362266E1,-3.206948051E-3,-2.260134928E-2,-1.282779220E-2
2.436277261E1,-3.817795310E-3,-2.687728032E-2,-1.466033421E-2
2.437192256E1,7.177455351E-3,-2.199050039E-2,-7.330167107E-3
2.438107251E1,9.009997360E-3,-1.710372418E-2,6.108472589E-4
2.439022251E1,2.748812549E-3,-1.588202827E-2,-1.832541777E-3
2.439937245E1,5.803049076E-3,-1.175880991E-2,-4.886778072E-3
2.440852240E1,1.191152167E-2,-2.596100792E-3,-3.054236295E-3
2.441767235E1,8.857285604E-3,6.413896102E-3,-4.275931045E-3
2.442682230E1,3.817795310E-3,1.298050396E-2,-6.108472589E-3
2.443597225E1,6.872031838E-3,1.832541823E-2,-7.330167107E-3
2.444512219E1,1.114796288E-2,1.420219894E-2,-1.038440317E-2
2.445427219E1,1.313321572E-2,9.926267900E-3,-1.221694518E-2
2.446342214E1,1.130067464E-2,6.261184346E-3,-1.343864016E-2
2.447257209E1,7.635590620E-3,4.581354558E-3,-1.343864016E-2
2.448172204E1,6.413896102E-3,-2.748812549E-3,-1.221694518E-2
2.449087199E1,9.009997360E-3,-1.359135192E-2,-1.466033421E-2
2.450002193E1,1.099525020E-2,-2.977880463E-2,-1.832541823E-2
2.450917188E1,1.359135192E-2,-3.833066672E-2,-1.756185852E-2
2.451832188E1,1.114796288E-2,-4.123219103E-2,-1.710372418E-2
2.452747183E1,5.650337320E-3,-4.734066129E-2,-1.710372418E-2
2.453662178E1,1.985253533E-3,-5.390727147E-2,-1.527118124E-2
2.454577172E1,7.635590737E-4,-5.024218559E-2,-1.221694518E-2
2.455492167E1,-1.221694518E-3,-4.184303805E-2,-9.773556143E-3
2.456407162E1,-3.206948051E-3,-3.344388679E-2,-6.108472589E-3
2.457322162E1,-7.635590737E-4,-2.260134928E-2,-2.443389036E-3
2.458237157E1,3.054236295E-4,-1.053711493E-2,-0.000000000E0
2.459152152E1,2.748812549E-3,-6.261184346E-3,-0.000000000E0
2.460067146E1,5.803049076E-3,-6.261184346E-3,-2.443389036E-3
2.460982141E1,5.803049076E-3,-1.053711493E-2,-6.108472589E-3
2.461897136E1,7.177455351E-3,-1.236965694E-2,-8.551862091E-3
2.462812131E1,5.955760833E-3,-8.704573847E-3,-9.773556143E-3
2.463727131E1,-3.054236295E-4,9.162708884E-4,-6.108472589E-3
2.464642126E1,-8.399149403E-3,1.114796288E-2,-4.428642802E-3
2.465557120E1,-1.588202827E-2,1.603474095E-2,-2.596100792E-3
2.466472115E1,-2.397575416E-2,1.710372418E-2,-3.054236295E-4
2.467387110E1,-2.702999115E-2,1.954711229E-2,3.054236295E-4
2.468302110E1,-2.641914412E-2,1.481304597E-2,9.162708884E-4
2.469217105E1,-1.893626526E-2,1.236965694E-2,-7.635590737E-4
2.470132100E1,-4.275931045E-3,1.236965694E-2,1.068982761E-3
2.471047094E1,4.428642802E-3,5.192201585E-3,2.443389036E-3
2.471962089E1,9.468132630E-3,-3.206948051E-3,6.108472589E-4
2.472877084E1,4.123218823E-3,-1.527118124E-2,-2.443389036E-3
2.473792084E1,-7.482878864E-3,-3.405473381E-2,-5.039489828E-3
2.474707079E1,-1.725643501E-2,-5.024218559E-2,-6.261184346E-3
2.475622074E1,-1.954711229E-2,-5.512896553E-2,-9.926267900E-3
2.476537068E1,-1.908897609E-2,-5.039490014E-2,-1.236965694E-2
2.477452063E1,-2.153236605E-2,-4.550812021E-2,-1.114796288E-2
2.478367058E1,-2.214321308E-2,-4.184303805E-2,-9.926267900E-3
2.479282053E1,-2.046338283E-2,-3.283303976E-2,-8.093725890E-3
2.480197053E1,-1.618745178E-2,-2.687728032E-2,-8.704573847E-3
2.481112048E1,-1.679829881E-2,-2.687728032E-2,-8.093725890E-3
2.482027042E1,-1.557660475E-2,-2.626643144E-2,-8.704573847E-3
2.482942037E1,-7.024743594E-3,-2.382304333E-2,-7.482878864E-3
2.483857032E1,4.734066315E-3,-2.137965336E-2,-1.221694518E-3
2.484772032E1,1.450762246E-2,-1.771457121E-2,1.832541777E-3
2.485687027E1,1.756185852E-2,-8.093725890E-3,5.039489828E-3
2.486602021E1,1.252236869E-2,2.137965523E-3,4.275931045E-3
2.487517016E1,4.428642802E-3,8.857285604E-3,6.108472589E-3
2.488432011E1,-3.665083554E-3,1.175880991E-2,9.009997360E-3
2.489347011E1,-8.551862091E-3,7.635590620E-3,1.084253844E-2
2.490262006E1,-7.788302377E-3,2.137965523E-3,6.566607859E-3
2.491177001E1,-1.130067464E-2,-1.527118124E-2,4.581354442E-4
2.492091995E1,-1.298050396E-2,-3.756710514E-2,-5.039489828E-3
2.493006990E1,-1.282779220E-2,-5.451811850E-2,-8.093725890E-3
2.493921985E1,-9.620844387E-3,-6.352811307E-2,-7.330167107E-3
2.494836985E1,-9.620844387E-3,-6.230641901E-2,-7.330167107E-3
2.495751980E1,-1.038440317E-2,-5.818320066E-2,-2.596100792E-3
2.496666974E1,-1.588202827E-2,-5.329642445E-2,1.068982761E-3
2.497581969E1,-2.031067200E-2,-4.306473210E-2,1.068982761E-3
2.498496964E1,-2.916795574E-2,-2.504473738E-2,-2.137965523E-3
2.499411964E1,-3.054236248E-2,-1.236965694E-2,-3.359660041E-3
2.500326959E1,-3.298575059E-2,-4.581354558E-3,-2.137965523E-3
2.501241954E1,-3.130592033E-2,4.581354558E-3,-1.527118147E-3
2.502157751E1,-2.641914412E-2,9.315420873E-3,1.527118147E-3
2.503071943E1,-2.519745007E-2,8.704573847E-3,2.901524538E-3
2.503986943E1,-2.015795931E-2,2.748812549E-3,5.955760833E-3
2.504901938E1,-1.710372418E-2,-4.428642802E-3,8.399149403E-3
2.505816933E1,-1.145338640E-2,-1.114796288E-2,8.399149403E-3
2.506731928E1,-4.123218823E-3,-7.482878864E-3,1.099525020E-2
2.507646922E1,5.039489828E-3,5.955760833E-3,1.649287529E-2
2.508561923E1,1.343864016E-2,3.787253052E-2,2.137965336E-2
2.509476917E1,1.313321572E-2,6.917845458E-2,2.687728032E-2
2.510391912E1,6.108472589E-3,8.903098851E-2,3.405473381E-2
2.511306907E1,-3.359660041E-3,1.017060652E-1,3.771981969E-2
2.512221902E1,-7.482878864E-3,9.391776472E-2,3.710897267E-2
2.513136902E1,-8.551862091E-3,7.757759839E-2,3.222219273E-2
2.514051896E1,-6.566607859E-3,5.894676223E-2,2.916795574E-2
2.514966891E1,-7.024743594E-3,3.848337755E-2,2.244863659E-2
2.515881886E1,-3.054236295E-3,2.275406010E-2,1.695101149E-2
2.516796886E1,-4.581354442E-4,6.413896102E-3,1.466033421E-2
2.517711881E1,-6.566607859E-3,-1.985253533E-3,1.389677543E-2
2.518626876E1,-1.572931744E-2,-8.093725890E-3,1.267508045E-2
2.519541870E1,-2.305948362E-2,-1.588202827E-2,1.206423342E-2
2.520456865E1,-2.183778957E-2,-2.015795931E-2,1.145338640E-2
2.521371860E1,-1.695101149E-2,-1.771457121E-2,1.389677543E-2
2.522286860E1,-1.267508045E-2,-1.221694518E-2,1.328592747E-2
2.523201855E1,-7.788302377E-3,-1.221694518E-2,1.206423342E-2
2.524116850E1,-6.413896102E-3,-1.588202827E-2,9.009997360E-3
2.525031844E1,-5.192201585E-3,-1.954711229E-2,9.773556143E-3
2.525946844E1,-8.399149403E-3,-1.527118124E-2,1.634016447E-2
2.526861839E1,-1.389677543E-2,-8.551862091E-3,2.244863659E-2
2.527776834E1,-1.588202827E-2,1.068982761E-3,2.611372061E-2
2.528691829E1,-9.315420873E-3,1.863084175E-2,3.038965166E-2
2.529606829E1,1.527118147E-3,4.092676565E-2,3.115320951E-2
2.530521824E1,3.970507067E-3,5.176930502E-2,3.115320951E-2
2.531436818E1,1.985253533E-3,5.894676223E-2,2.916795574E-2
2.532351813E1,7.482878864E-3,6.673506647E-2,2.748812735E-2
2.533266808E1,1.053711493E-2,7.162184268E-2,2.565558441E-2
2.534181808E1,1.007897966E-2,6.612421572E-2,2.076880634E-2
2.535096803E1,4.581354558E-3,5.833591148E-2,1.649287529E-2
2.536011798E1,-7.635590620E-3,4.856235534E-2,1.450762246E-2
2.536926792E1,-1.740914769E-2,3.420744836E-2,1.572931744E-2
2.537841792E1,-2.519745007E-2,1.420219894E-2,1.435491070E-2
2.538756787E1,-2.321219631E-2,-7.941014133E-3,1.450762246E-2
2.539671782E1,-1.435491070E-2,-3.268032894E-2,1.634016447E-2
2.540586777E1,-7.330167107E-3,-5.864133686E-2,1.771457121E-2
2.541501771E1,-1.679830020E-3,-7.727217674E-2,2.015795931E-2
2.542416771E1,-9.162708884E-4,-8.872556686E-2,2.137965336E-2
2.543331766E1,-2.137965523E-3,-8.811471611E-2,1.771457121E-2
2.544246761E1,-5.955760833E-3,-7.849387079E-2,1.710372418E-2
2.545161756E1,-9.162709117E-3,-6.352811307E-2,1.466033421E-2
2.546076756E1,-1.236965694E-2,-4.779879749E-2,1.328592747E-2
2.546991751E1,-1.679829881E-2,-3.634541109E-2,9.620844387E-3
2.547906745E1,-2.168507688E-2,-3.527642787E-2,4.734066315E-3
2.548821745E1,-3.084778599E-2,-4.184303805E-2,3.359660041E-3
2.549736740E1,-3.634541109E-2,-4.978405312E-2,3.054236295E-4
2.550651735E1,-3.802524135E-2,-6.169557199E-2,-1.527118147E-3
2.551566730E1,-3.176405653E-2,-7.253811508E-2,-2.748812549E-3
2.552481724E1,-1.695101149E-2,-7.986827940E-2,-1.527118147E-4
2.553396725E1,-4.581354558E-3,-8.032641560E-2,5.497625098E-3
2.554311719E1,-1.679830020E-3,-6.398624927E-2,8.551862091E-3
2.555226714E1,-1.832541777E-3,-4.535540938E-2,1.160609815E-2
2.556141709E1,-3.206948051E-3,-3.145863488E-2,1.404948719E-2
2.557056709E1,-2.137965523E-3,-1.878355257E-2,1.649287529E-2
2.557971704E1,-1.679830020E-3,-1.985253533E-3,1.771457121E-2
2.558886699E1,-7.330167107E-3,1.374406368E-2,1.328592747E-2
2.559801693E1,-1.236965694E-2,2.260134928E-2,1.084253844E-2
2.560716693E1,-1.420219894E-2,2.199050039E-2,7.788302377E-3
2.561631688E1,-1.603474095E-2,1.725643501E-2,3.512371797E-3
2.562546683E1,-1.343864016E-2,1.053711493E-2,1.068982761E-3
2.563461678E1,-1.145338640E-2,9.162708884E-4,-1.527118147E-4
2.564376678E1,-7.024743594E-3,-9.926267900E-3,-1.527118147E-4
2.565291672E1,-7.024743594E-3,-2.015795931E-2,1.068982761E-3
2.566206667E1,-5.039489828E-3,-2.916795574E-2,1.832541777E-3
2.567121662E1,4.581354442E-4,-3.161134571E-2,3.054236295E-3
2.568036662E1,5.344913341E-3,-2.611372061E-2,6.719320081E-3
2.568951657E1,2.290677279E-3,-2.672456764E-2,1.038440317E-2
2.569866652E1,4.581354442E-4,-3.268032894E-2,1.343864016E-2
2.570781652E1,-7.635590737E-4,-3.329117596E-2,1.343864016E-2
2.571696646E1,1.679830020E-3,-2.611372061E-2,1.588202827E-2
2.572611641E1,-5.192201585E-3,-2.367033064E-2,1.389677543E-2
2.573526636E1,-1.374406368E-2,-2.199050039E-2,7.177455351E-3
2.574441636E1,-1.557660475E-2,-2.199050039E-2,1.068982761E-3
2.575356631E1,-1.007897966E-2,-2.015795931E-2,1.679830020E-3
2.576271626E1,-3.359660041E-3,-1.298050396E-2,1.832541777E-3
2.577186626E1,-2.137965523E-3,-9.315420873E-3,6.108472589E-4
2.578101620E1,-9.162708884E-4,-6.261184346E-3,-0.000000000E0
2.579016615E1,1.527118147E-3,-4.428642802E-3,2.443389036E-3
2.579931610E1,2.596100792E-3,6.413896102E-3,6.108472589E-3
2.580846605E1,4.275931045E-3,1.542389300E-2,8.551862091E-3
2.581761605E1,3.054236295E-3,1.969982497E-2,1.160609815E-2
2.582676600E1,6.108472589E-4,2.336490713E-2,1.343864016E-2
2.583591594E1,4.581354442E-4,2.932066843E-2,1.343864016E-2
2.584506594E1,1.679830020E-3,3.649812192E-2,1.466033421E-2
2.585421589E1,3.512371797E-3,4.382828996E-2,1.221694518E-2
2.586336584E1,-3.054236295E-4,5.222744122E-2,1.206423342E-2
2.587251584E1,-8.399149403E-3,6.245913357E-2,1.023169141E-2
2.588166579E1,-1.343864016E-2,7.146912813E-2,5.955760833E-3
2.589081574E1,-1.404948719E-2,7.620319724E-2,1.068982761E-3
2.589996568E1,-1.038440317E-2,8.047912270E-2,1.679830020E-3
2.590911568E1,-9.773556143E-3,8.353336155E-2,4.581354442E-4
2.591826563E1,-9.009997360E-3,7.681404054E-2,-1.527118147E-4
2.592741558E1,-4.123218823E-3,6.780404598E-2,2.901524538E-3
2.593656558E1,3.359660041E-3,5.650337040E-2,5.344913341E-3
2.594571553E1,4.123218823E-3,4.382828996E-2,7.330167107E-3
2.595486548E1,-0.000000000E0,3.054236248E-2,5.344913341E-3
2.596401542E1,-3.054236295E-3,1.725643501E-2,5.344913341E-3
2.597316542E1,-2.290677279E-3,7.024743594E-3,7.330167107E-3
2.598231537E1,-5.344913341E-3,2.748812549E-3,7.788302377E-3
2.599146532E1,-6.566607859E-3,-3.206948051E-3,5.955760833E-3
2.600061527E1,-3.359660041E-3,-1.527118124E-2,7.941014133E-3
2.600976527E1,-3.359660041E-3,-2.489202656E-2,5.497625098E-3
2.601891521E1,-3.817795310E-3,-3.100049868E-2,6.108472589E-3
2.602806516E1,-1.985253533E-3,-3.038965166E-2,1.099525020E-2
2.603721516E1,-9.162708884E-4,-2.611372061E-2,1.343864016E-2
2.604636511E1,5.344913341E-3,-2.183778957E-2,1.343864016E-2
2.605551506E1,1.130067464E-2,-1.282779220E-2,1.588202827E-2
2.606466506E1,1.252236869E-2,-1.160609815E-2,1.282779220E-2
2.607381501E1,1.206423342E-2,-1.771457121E-2,7.941014133E-3
2.608296495E1,8.399149403E-3,-2.015795931E-2,3.054236295E-3
2.609211490E1,1.679830020E-3,-2.733541466E-2,-1.221694518E-3
2.610126490E1,-4.428642802E-3,-2.489202656E-2,1.832541777E-3
2.611041485E1,-8.246437646E-3,-2.382304333E-2,4.581354442E-4
2.611956480E1,-1.068982668E-2,-2.733541466E-2,-7.635590737E-4
2.612871480E1,-7.482878864E-3,-3.100049868E-2,4.581354442E-4
2.613786474E1,-1.374406274E-3,-2.977880463E-2,-6.108472589E-4
2.614701469E1,5.497625098E-3,-3.283303976E-2,-1.221694518E-3
2.615616469E1,1.099525020E-2,-3.634541109E-2,-3.054236295E-3
2.616531464E1,1.847812906E-2,-3.878879920E-2,-5.344913341E-3
2.617446459E1,2.092151903E-2,-3.878879920E-2,-5.955760833E-3
2.618361454E1,2.153236605E-2,-3.695625812E-2,-2.901524538E-3
2.619276454E1,1.832541823E-2,-2.611372061E-2,1.985253533E-3
2.620191449E1,1.023169141E-2,-1.588202827E-2,3.054236295E-3
2.621106443E1,9.162708884E-4,-1.221694518E-2,4.275931045E-3
2.622021443E1,-2.137965523E-3,-6.872031838E-3,3.054236295E-3
2.622936438E1,-4.123218823E-3,3.054236295E-4,-0.000000000E0
2.623851433E1,1.985253533E-3,4.581354558E-3,-1.221694518E-3
2.624766433E1,8.857285604E-3,5.192201585E-3,-6.108472589E-4
2.625681428E1,1.557660475E-2,7.024743594E-3,-0.000000000E0
2.626596422E1,1.985253580E-2,6.413896102E-3,1.527118147E-4
2.627511423E1,1.817270555E-2,-1.985253533E-3,1.527118147E-4
2.628426417E1,1.572931744E-2,-8.093725890E-3,1.832541777E-3
2.629341412E1,1.511846948E-2,-1.175880991E-2,1.221694518E-3
2.630256412E1,1.450762246E-2,-1.053711493E-2,-0.000000000E0
2.631171407E1,1.756185852E-2,-9.315420873E-3,2.443389036E-3
2.632086402E1,2.061609551E-2,-8.093725890E-3,5.650337320E-3
2.633001402E1,2.122694254E-2,-8.093725890E-3,6.261184346E-3
2.633916396E1,2.122694254E-2,-8.093725890E-3,6.261184346E-3
2.634831391E1,1.939439960E-2,-9.315420873E-3,4.428642802E-3
2.635746386E1,2.122694254E-2,-6.261184346E-3,1.374406274E-3
2.636661386E1,2.428117767E-2,-5.650337320E-3,-4.581354442E-4
2.637576381E1,2.305948362E-2,-5.650337320E-3,-2.901524538E-3
2.638491376E1,2.061609551E-2,-5.650337320E-3,-6.566607859E-3
2.639406376E1,2.122694254E-2,-6.261184346E-3,-1.023169141E-2
2.640321370E1,1.756185852E-2,-6.261184346E-3,-1.038440317E-2
2.641236365E1,1.328592747E-2,-1.175880991E-2,-1.343864016E-2
2.642151365E1,9.620844387E-3,-1.420219894E-2,-1.588202827E-2
2.643066360E1,3.512371797E-3,-8.093725890E-3,-1.466033421E-2
2.643981355E1,-3.359660041E-3,-3.054236295E-4,-1.588202827E-2
2.644896355E1,-4.123218823E-3,5.039489828E-3,-1.466033421E-2
2.645811350E1,-4.581354442E-4,8.704573847E-3,-1.404948719E-2
2.646726344E1,6.872031838E-3,1.236965694E-2,-1.160609815E-2
2.647641344E1,1.557660475E-2,1.420219894E-2,-7.330167107E-3
2.648556339E1,2.535016090E-2,1.420219894E-2,-4.123218823E-3
2.649471334E1,2.855710872E-2,1.007897966E-2,-4.123218823E-3
2.650386334E1,2.473931387E-2,8.857285604E-3,-4.123218823E-3
2.651301329E1,1.740914769E-2,9.315420873E-3,-8.551862091E-3
2.652216324E1,1.007897966E-2,8.704573847E-3,-1.343864016E-2
2.653131324E1,8.246437646E-3,1.114796288E-2,-1.893626526E-2
2.654046318E1,8.857285604E-3,1.481304597E-2,-2.015795931E-2
2.654961313E1,3.817795310E-3,1.298050396E-2,-2.076880634E-2
2.655876313E1,-7.177455351E-3,7.482878864E-3,-2.275406010E-2
2.656791308E1,-1.634016447E-2,-2.748812549E-3,-2.947338112E-2
2.657706308E1,-2.046338283E-2,-1.908897609E-2,-3.436015919E-2
2.658621303E1,-2.397575416E-2,-3.115320951E-2,-3.619270027E-2
2.659536298E1,-2.397575416E-2,-4.016320780E-2,-3.558185324E-2
2.660451298E1,-1.710372418E-2,-5.039490014E-2,-3.619270027E-2
2.661366292E1,-2.137965523E-3,-6.841489673E-2,-3.298575059E-2
2.662281287E1,1.710372418E-2,-7.681404054E-2,-2.550287358E-2
2.663196287E1,2.809897438E-2,-7.620319724E-2,-1.817270555E-2
2.664111282E1,2.809897438E-2,-7.009471953E-2,-1.389677543E-2
2.665026277E1,2.794626169E-2,-5.619794875E-2,-8.399149403E-3
2.665941277E1,2.336490713E-2,-4.123219103E-2,-5.344913341E-3
2.666856271E1,2.092151903E-2,-3.390202299E-2,-4.734066315E-3
2.667771266E1,2.275406010E-2,-2.977880463E-2,-7.177455351E-3
2.668686266E1,2.641914412E-2,-2.794626169E-2,-9.620844387E-3
2.669601261E1,2.641914412E-2,-2.504473738E-2,-1.084253844E-2
2.670516256E1,2.397575416E-2,-2.672456764E-2,-1.511846948E-2
2.671431256E1,1.603474095E-2,-2.916795574E-2,-1.878355257E-2
2.672346251E1,7.941014133E-3,-2.260134928E-2,-1.893626526E-2
2.673261245E1,5.955760833E-3,-1.771457121E-2,-1.832541823E-2
2.674176245E1,1.023169141E-2,-1.114796288E-2,-1.771457121E-2
2.675091240E1,1.450762246E-2,-4.581354558E-3,-1.771457121E-2
2.676006240E1,1.450762246E-2,3.359660041E-3,-1.771457121E-2
2.676921235E1,1.068982668E-2,2.748812549E-3,-1.404948719E-2
2.677836230E1,7.024743594E-3,-3.054236295E-4,-1.160609815E-2
2.678751230E1,1.084253844E-2,-3.970507067E-3,-1.160609815E-2
2.679666224E1,1.695101149E-2,-7.482878864E-3,-1.023169141E-2
2.680581219E1,2.076880634E-2,-1.175880991E-2,-1.206423342E-2
2.681496219E1,1.282779220E-2,-1.954711229E-2,-1.954711229E-2
2.682411214E1,3.665083554E-3,-2.687728032E-2,-2.626643144E-2
2.683326209E1,-3.665083554E-3,-3.481829539E-2,-3.115320951E-2
2.684241209E1,-1.160609815E-2,-2.993151546E-2,-3.619270027E-2
2.685156204E1,-1.924168877E-2,-1.053711493E-2,-3.619270027E-2
2.686071204E1,-2.367033064E-2,7.482878864E-3,-3.436015919E-2
2.686986198E1,-2.260134928E-2,2.305948362E-2,-3.252761811E-2
2.687901193E1,-1.175880991E-2,3.878879920E-2,-2.580829710E-2
2.688816193E1,1.679830020E-3,4.428642616E-2,-1.725643501E-2
2.689731188E1,1.404948719E-2,4.077405483E-2,-8.551862091E-3
2.690646188E1,1.832541823E-2,3.649812192E-2,-2.443389036E-3
2.691561183E1,1.343864016E-2,4.856235534E-2,1.221694518E-3
2.692476178E1,7.024743594E-3,5.757235363E-2,3.665083554E-3
2.693391178E1,1.496575773E-2,6.856760383E-2,6.719320081E-3
2.694306173E1,1.985253580E-2,8.597674966E-2,5.497625098E-3
2.695221167E1,9.926267900E-3,9.376505762E-2,1.221694518E-3
2.696136167E1,-1.832541777E-3,8.887827396E-2,-1.985253533E-3
2.697051162E1,-3.512371797E-3,8.353336155E-2,-5.039489828E-3
2.697966162E1,-1.068982761E-3,7.681404054E-2,-3.817795310E-3
2.698881157E1,-3.054236295E-4,6.429167092E-2,-1.374406274E-3
2.699796152E1,2.443389036E-3,3.405473381E-2,-1.221694518E-3
2.700711152E1,7.024743594E-3,-1.374406274E-3,6.108472589E-4
2.701626146E1,1.099525020E-2,-3.451287001E-2,4.275931045E-3
2.702541141E1,8.093725890E-3,-5.619794875E-2,5.497625098E-3
2.703456141E1,6.261184346E-3,-6.352811307E-2,7.941014133E-3
2.704371136E1,6.261184346E-3,-6.536065787E-2,1.038440317E-2
2.705286131E1,5.039489828E-3,-5.986303091E-2,1.038440317E-2
2.706201131E1,3.054236295E-3,-4.963133857E-2,1.343864016E-2
2.707116126E1,-4.428642802E-3,-3.695625812E-2,1.466033421E-2
2.708031126E1,-1.130067464E-2,-2.611372061E-2,1.389677543E-2
2.708946120E1,-1.511846948E-2,-1.771457121E-2,9.009997360E-3
2.709861115E1,-1.145338640E-2,-9.926267900E-3,2.290677279E-3
2.710776115E1,-6.566607859E-3,-7.482878864E-3,-7.635590737E-4
2.711691110E1,-4.734066315E-3,-5.039489828E-3,-3.206948051E-3
2.712606110E1,-8.399149403E-3,1.527118147E-3,-3.206948051E-3
2.713521105E1,-1.282779220E-2,1.298050396E-2,-3.206948051E-3
2.714436100E1,-1.221694518E-2,1.664558798E-2,-2.596100792E-3
2.715351100E1,-8.551862091E-3,1.832541823E-2,-7.635590737E-4
2.716266094E1,-8.551862091E-3,1.664558798E-2,2.290677279E-3
2.717181089E1,-5.497625098E-3,1.298050396E-2,7.788302377E-3
2.718096089E1,-3.665083554E-3,9.468132630E-3,1.145338640E-2
2.719011084E1,1.527118147E-4,6.413896102E-3,1.404948719E-2
2.719926084E1,6.261184346E-3,1.007897966E-2,1.771457121E-2
2.720841079E1,5.039489828E-3,1.007897966E-2,1.710372418E-2
2.721756079E1,1.985253533E-3,7.635590620E-3,1.466033421E-2
2.722671074E1,-6.108472589E-4,1.252236869E-2,1.160609815E-2
2.723586068E1,-6.108472589E-4,1.725643501E-2,1.099525020E-2
2.724501068E1,-1.221694518E-3,2.031067200E-2,5.497625098E-3
2.725416063E1,-4.886778072E-3,2.504473738E-2,1.679830020E-3
2.726331063E1,-1.053711493E-2,2.076880634E-2,1.679830020E-3
2.727246058E1,-1.527118124E-2,1.603474095E-2,-1.374406274E-3
2.728161053E1,-1.771457121E-2,6.261184346E-3,-4.428642802E-3
2.729076053E1,-1.649287529E-2,-3.054236295E-4,-1.374406274E-3
2.729991048E1,-1.206423342E-2,-9.162708884E-4,5.955760833E-3
2.730906048E1,-5.497625098E-3,5.192201585E-3,1.084253844E-2
2.731821042E1,-5.497625098E-3,7.635590620E-3,1.511846948E-2
2.732736042E1,-5.497625098E-3,2.748812549E-3,1.572931744E-2
2.733651037E1,1.374406274E-3,3.359660041E-3,1.527118124E-2
2.734566032E1,1.236965694E-2,1.068982668E-2,1.466033421E-2
2.735481032E1,1.359135192E-2,1.542389300E-2,1.404948719E-2
2.736396027E1,6.872031838E-3,1.298050396E-2,1.527118124E-2
2.737311027E1,3.206948051E-3,1.068982668E-2,1.343864016E-2
2.738226021E1,-4.581354442E-4,7.635590620E-3,1.221694518E-2
2.739141016E1,-4.734066315E-3,-7.635590737E-4,1.389677543E-2
2.740056016E1,-9.009997360E-3,-2.596100792E-3,1.023169141E-2
2.740971011E1,-8.399149403E-3,-7.635590737E-4,7.177455351E-3
2.741886011E1,-9.773556143E-3,1.007897966E-2,3.512371797E-3
2.742801006E1,-1.359135192E-2,2.137965336E-2,-1.527118147E-4
2.743716001E1,-1.969982497E-2,3.222219273E-2,-3.817795310E-3
2.744631001E1,-2.535016090E-2,4.367557913E-2,-5.803049076E-3
2.745545995E1,-2.794626169E-2,4.611896724E-2,-3.359660041E-3
2.746460995E1,-2.611372061E-2,4.734066129E-2,3.054236295E-4
2.747375990E1,-2.473931387E-2,3.955236077E-2,5.192201585E-3
2.748290990E1,-2.214321308E-2,2.092151903E-2,8.246437646E-3
2.749205985E1,-1.710372418E-2,2.137965523E-3,1.084253844E-2
2.750120985E1,-1.267508045E-2,-1.343864016E-2,9.620844387E-3
2.751035980E1,-8.246437646E-3,-2.733541466E-2,1.023169141E-2
2.751950974E1,-5.650337320E-3,-3.222219273E-2,9.620844387E-3
2.752865975E1,-1.527118147E-4,-3.405473381E-2,7.330167107E-3
2.753780969E1,3.512371797E-3,-3.038965166E-2,7.941014133E-3
2.754695969E1,3.054236295E-4,-1.710372418E-2,1.282779220E-2
2.755610964E1,-1.145338640E-2,-1.114796288E-2,1.206423342E-2
2.756525964E1,-1.939439960E-2,-8.704573847E-3,7.177455351E-3
2.757440959E1,-2.137965336E-2,-3.817795310E-3,4.734066315E-3
2.758355954E1,-2.199050039E-2,-5.039489828E-3,1.679830020E-3
2.759270954E1,-2.000524849E-2,-1.175880991E-2,-1.374406274E-3
2.760185949E1,-1.496575773E-2,-1.954711229E-2,-3.817795310E-3
2.761100948E1,-8.857285604E-3,-2.199050039E-2,-1.985253533E-3
2.762015943E1,-5.803049076E-3,-1.954711229E-2,4.123218823E-3
2.762930943E1,-1.252236869E-2,-2.672456764E-2,1.068982761E-3
2.763845938E1,-2.153236605E-2,-4.184303805E-2,-3.817795310E-3
2.764760938E1,-2.260134928E-2,-5.986303091E-2,-6.872031838E-3
2.765675933E1,-2.122694254E-2,-7.681404054E-2,-8.093725890E-3
2.766590933E1,-2.305948362E-2,-8.948912472E-2,-9.315420873E-3
2.767505928E1,-2.550287358E-2,-9.254335612E-2,-8.093725890E-3
2.768420922E1,-3.344388679E-2,-9.132166207E-2,-6.413896102E-3
2.769335923E1,-4.337015375E-2,-8.842013776E-2,-8.246437646E-3
2.770250917E1,-3.848337755E-2,-7.925742865E-2,-7.635590620E-3
2.771165917E1,-2.809897438E-2,-6.230641901E-2,-5.650337320E-3
2.772080912E1,-2.397575416E-2,-4.428642616E-2,-1.053711493E-2
2.772995912E1,-1.603474095E-2,-3.038965166E-2,-1.236965694E-2
2.773910907E1,-5.192201585E-3,-1.893626526E-2,-4.428642802E-3
2.774825907E1,3.054236295E-4,-9.926267900E-3,6.108472589E-4
2.775740902E1,1.374406274E-3,2.137965523E-3,1.832541777E-3
2.776655902E1,-2.901524538E-3,-3.054236295E-4,5.344913341E-3
2.777570896E1,-5.192201585E-3,-1.038440317E-2,9.009997360E-3
2.778485891E1,-5.803049076E-3,-2.015795931E-2,9.620844387E-3
2.779400891E1,-4.428642802E-3,-2.916795574E-2,7.330167107E-3
2.780315886E1,-4.428642802E-3,-3.222219273E-2,5.497625098E-3
2.781230886E1,-6.261184346E-3,-2.794626169E-2,2.443389036E-3
2.782145881E1,-9.162708884E-4,-2.199050039E-2,4.886778072E-3
2.783060881E1,7.635590620E-3,-1.221694518E-2,9.162709117E-3
2.783975876E1,7.635590620E-3,-3.817795310E-3,1.282779220E-2
2.784890876E1,2.596100792E-3,-3.206948051E-3,1.343864016E-2
2.785805870E1,-2.901524538E-3,-6.261184346E-3,1.450762246E-2
2.786720870E1,-2.901524538E-3,-7.482878864E-3,1.206423342E-2
2.787635865E1,1.527118147E-4,-1.527118147E-4,1.160609815E-2
2.788550865E1,3.206948051E-3,5.192201585E-3,1.221694518E-2
2.789465860E1,5.039489828E-3,1.007897966E-2,1.099525020E-2
2.790380855E1,3.817795310E-3,1.007897966E-2,8.551862091E-3
2.791295855E1,1.374406274E-3,6.413896102E-3,8.551862091E-3
2.792210850E1,-4.581354442E-4,2.748812549E-3,9.773556143E-3
2.793125850E1,-3.054236295E-4,-5.650337320E-3,8.551862091E-3
2.794040844E1,-3.359660041E-3,-2.183778957E-2,8.551862091E-3
2.794955844E1,-4.428642802E-3,-2.855710872E-2,5.497625098E-3
2.795870839E1,4.581354442E-4,-2.977880463E-2,4.275931045E-3
2.796785839E1,4.123218823E-3,-3.451287001E-2,3.665083554E-3
2.797700834E1,2.290677279E-3,-3.344388679E-2,6.108472589E-3
2.798615834E1,-1.527118147E-4,-2.916795574E-2,6.108472589E-3
2.799530829E1,-3.206948051E-3,-2.244863659E-2,4.275931045E-3
2.800445829E1,-5.803049076E-3,-8.704573847E-3,5.955760833E-3
2.801360824E1,-8.399149403E-3,3.970507067E-3,6.566607859E-3
2.802275824E1,-5.497625098E-3,1.298050396E-2,1.206423342E-2
2.803190818E1,1.221694518E-3,2.031067200E-2,1.588202827E-2
2.804105818E1,2.443389036E-3,2.153236605E-2,1.343864016E-2
2.805020813E1,5.650337320E-3,1.313321572E-2,1.466033421E-2
2.805935813E1,6.872031838E-3,5.192201585E-3,1.466033421E-2
2.806850808E1,7.024743594E-3,-3.817795310E-3,8.551862091E-3
2.807765808E1,1.313321572E-2,-1.985253533E-3,6.719320081E-3
2.808680803E1,1.801999472E-2,1.191152167E-2,1.038440317E-2
2.809595803E1,1.603474095E-2,2.947338112E-2,1.466033421E-2
2.810510798E1,1.695101149E-2,5.054761097E-2,1.771457121E-2
2.811425798E1,1.496575773E-2,5.894676223E-2,1.771457121E-2
2.812340792E1,1.496575773E-2,6.184828654E-2,2.076880634E-2
2.813255792E1,1.801999472E-2,6.245913357E-2,2.382304333E-2
2.814170787E1,1.740914769E-2,5.955760926E-2,2.687728032E-2
2.815085787E1,1.328592747E-2,4.566083103E-2,2.565558441E-2
2.816000782E1,1.420219894E-2,2.458660305E-2,1.954711229E-2
2.816915782E1,1.679829881E-2,7.635590620E-3,1.588202827E-2
2.817830777E1,1.557660475E-2,-1.985253533E-3,1.404948719E-2
2.818745777E1,1.618745178E-2,-3.817795310E-3,1.099525020E-2
2.819660771E1,1.435491070E-2,-4.428642802E-3,9.162709117E-3
2.820575771E1,1.191152167E-2,5.803049076E-3,7.941014133E-3
2.821490766E1,8.704573847E-3,2.336490713E-2,9.773556143E-3
2.822405766E1,5.344913341E-3,3.955236077E-2,1.221694518E-2
2.823320761E1,6.566607859E-3,5.039490014E-2,1.221694518E-2
2.824235761E1,1.007897966E-2,5.589252338E-2,1.099525020E-2
2.825150756E1,1.328592747E-2,5.589252338E-2,1.221694518E-2
2.826065756E1,1.572931744E-2,4.871506989E-2,1.343864016E-2
2.826980751E1,1.710372418E-2,4.077405483E-2,1.527118124E-2
2.827895751E1,1.893626526E-2,3.481829539E-2,1.832541823E-2
2.828810745E1,2.443389036E-2,3.787253052E-2,2.153236605E-2
2.829725745E1,2.565558441E-2,4.443913698E-2,2.336490713E-2
2.830640740E1,2.565558441E-2,4.566083103E-2,2.275406010E-2
2.831555740E1,2.565558441E-2,4.077405483E-2,2.580829710E-2
2.832470735E1,2.260134928E-2,3.787253052E-2,2.809897438E-2
2.833385735E1,2.137965336E-2,3.054236248E-2,2.565558441E-2
2.834300730E1,2.214321308E-2,2.580829710E-2,2.397575416E-2
2.835215730E1,2.153236605E-2,2.031067200E-2,2.031067200E-2
2.836130725E1,2.351761982E-2,1.374406368E-2,1.542389300E-2
2.837045724E1,2.779355086E-2,9.468132630E-3,1.725643501E-2
2.837960719E1,2.718270384E-2,2.901524538E-3,1.664558798E-2
2.838875719E1,1.740914769E-2,-3.206948051E-3,1.404948719E-2
2.839790719E1,1.007897966E-2,-8.704573847E-3,6.719320081E-3
2.840705714E1,9.468132630E-3,-8.704573847E-3,1.832541777E-3
2.841620709E1,9.468132630E-3,-8.704573847E-3,4.275931045E-3
2.842535709E1,7.177455351E-3,-1.466033421E-2,4.275931045E-3
2.843450709E1,6.566607859E-3,-2.672456764E-2,-1.221694518E-3
2.844365704E1,1.343864016E-2,-3.100049868E-2,4.886778072E-3
2.845280704E1,1.649287529E-2,-3.100049868E-2,3.817795310E-3
2.846195698E1,1.160609815E-2,-3.634541109E-2,-1.221694518E-3
2.847110699E1,6.108472589E-3,-3.527642787E-2,-4.886778072E-3
2.848025693E1,5.344913341E-3,-2.321219631E-2,-7.330167107E-3
2.848940693E1,5.344913341E-3,-1.114796288E-2,-6.719320081E-3
2.849855688E1,2.748812549E-3,1.527118147E-3,-4.275931045E-3
2.850770688E1,1.374406274E-3,9.926267900E-3,-3.665083554E-3
2.851685683E1,5.039489828E-3,1.175880991E-2,-6.719320081E-3
2.852600683E1,1.130067464E-2,-3.054236295E-4,-7.330167107E-3
2.853515678E1,1.954711229E-2,-1.832541823E-2,-4.123218823E-3
2.854430678E1,2.397575416E-2,-3.695625812E-2,-2.290677279E-3
2.855345678E1,2.229592577E-2,-5.558710173E-2,-7.788302377E-3
2.856260673E1,2.367033064E-2,-6.352811307E-2,-1.145338640E-2
2.857175672E1,2.779355086E-2,-5.635065958E-2,-8.399149403E-3
2.858090667E1,2.535016090E-2,-4.245388508E-2,-9.620844387E-3
2.859005667E1,1.908897609E-2,-2.550287358E-2,-1.206423342E-2
2.859920662E1,1.023169141E-2,-9.926267900E-3,-1.038440317E-2
2.860835662E1,5.192201585E-3,9.162708884E-4,-8.551862091E-3
2.861750657E1,2.596100792E-3,5.650337320E-3,-9.773556143E-3
2.862665657E1,2.748812549E-3,-3.817795310E-3,-1.038440317E-2
2.863580652E1,3.512371797E-3,-1.893626526E-2,-1.221694518E-2
2.864495652E1,8.551862091E-3,-3.100049868E-2,-1.221694518E-2
2.865410652E1,1.664558798E-2,-4.001049697E-2,-1.084253844E-2
2.866325646E1,2.412846684E-2,-4.902049154E-2,-9.620844387E-3
2.867240646E1,2.535016090E-2,-5.207473040E-2,-3.512371797E-3
2.868155641E1,2.519745007E-2,-3.817795217E-2,3.206948051E-3
2.869070641E1,2.809897438E-2,-2.061609551E-2,7.482878864E-3
2.869985636E1,3.100049868E-2,1.068982761E-3,1.359135192E-2
2.870900636E1,3.145863488E-2,1.969982497E-2,1.664558798E-2
2.871815631E1,2.702999115E-2,3.481829539E-2,1.786728203E-2
2.872730631E1,2.076880634E-2,4.627167806E-2,1.588202827E-2
2.873645626E1,2.183778957E-2,5.405998230E-2,1.038440317E-2
2.874560626E1,2.244863659E-2,5.818320066E-2,5.497625098E-3
2.875475626E1,2.321219631E-2,5.344913527E-2,-6.108472589E-4
2.876390620E1,2.076880634E-2,4.199574888E-2,-7.330167107E-3
2.877305620E1,1.542389300E-2,2.626643144E-2,-9.773556143E-3
2.878220615E1,1.130067464E-2,1.359135192E-2,-9.773556143E-3
2.879135615E1,1.191152167E-2,3.970507067E-3,-6.719320081E-3
2.880050610E1,1.068982668E-2,-2.596100792E-3,-6.108472589E-3
2.880965610E1,1.023169141E-2,-1.588202827E-2,-4.886778072E-3
2.881880605E1,6.108472589E-3,-3.161134571E-2,-7.330167107E-3
2.882795605E1,1.832541777E-3,-4.123219103E-2,-5.497625098E-3
2.883710605E1,2.443389036E-3,-4.428642616E-2,-3.054236295E-3
2.884625600E1,6.719320081E-3,-4.672981426E-2,1.221694518E-3
2.885540600E1,1.404948719E-2,-3.695625812E-2,6.108472589E-3
2.886455594E1,1.466033421E-2,-2.794626169E-2,4.886778072E-3
2.887370594E1,1.450762246E-2,-1.404948719E-2,4.886778072E-3
2.888285589E1,1.695101149E-2,-5.039489828E-3,7.330167107E-3
2.889200589E1,1.496575773E-2,3.970507067E-3,9.773556143E-3
2.890115589E1,1.313321572E-2,5.803049076E-3,3.054236295E-3
2.891030584E1,1.496575773E-2,8.246437646E-3,-6.108472589E-4
2.891945584E1,1.298050396E-2,1.068982668E-2,3.665083554E-3
2.892860579E1,1.236965694E-2,2.031067200E-2,3.054236295E-3
2.893775579E1,5.497625098E-3,2.382304333E-2,2.443389036E-3
2.894690574E1,-6.108472589E-4,2.260134928E-2,2.901524538E-3
2.895605574E1,6.108472589E-4,2.031067200E-2,6.108472589E-3
2.896520574E1,7.941014133E-3,2.382304333E-2,7.330167107E-3
2.897435568E1,9.162709117E-3,2.153236605E-2,1.160609815E-2
2.898350568E1,8.093725890E-3,1.435491070E-2,1.343864016E-2
2.899265563E1,1.068982668E-2,5.192201585E-3,4.886778072E-3
2.900180563E1,1.679829881E-2,-1.374406274E-3,3.665083554E-3
2.901095563E1,1.374406368E-2,-6.872031838E-3,6.719320081E-3
2.902010558E1,2.748812549E-3,-1.359135192E-2,-0.000000000E0
2.902925558E1,-3.206948051E-3,-2.855710872E-2,-7.330167107E-3
2.903840553E1,3.665083554E-3,-3.527642787E-2,-3.665083554E-3
2.904755553E1,8.551862091E-3,-3.038965166E-2,4.886778072E-3
2.905670548E1,-2.137965523E-3,-2.076880634E-2,7.941014133E-3
2.906585548E1,-1.145338640E-2,-8.093725890E-3,4.123218823E-3
2.907500548E1,-1.282779220E-2,9.162708884E-4,7.788302377E-3
2.908415542E1,-6.108472589E-3,5.803049076E-3,1.450762246E-2
2.909330542E1,6.108472589E-4,1.191152167E-2,1.527118124E-2
2.910245537E1,1.252236869E-2,4.734066315E-3,1.649287529E-2
2.911160537E1,2.550287358E-2,-1.985253533E-3,1.786728203E-2
2.912075537E1,3.161134571E-2,1.679830020E-3,1.725643501E-2
2.912990532E1,2.901524492E-2,4.123218823E-3,1.420219894E-2
2.913905532E1,2.290677279E-2,1.130067464E-2,1.053711493E-2
2.914820527E1,1.664558798E-2,2.809897438E-2,6.719320081E-3
2.915735527E1,7.788302377E-3,4.504998401E-2,1.832541777E-3
2.916650521E1,-2.137965523E-3,5.100574717E-2,4.581354442E-4
2.917565521E1,-6.413896102E-3,4.917320609E-2,-4.428642802E-3
2.918480521E1,-8.704573847E-3,4.184303805E-2,-1.114796288E-2
2.919395516E1,-1.282779220E-2,2.382304333E-2,-1.481304597E-2
2.920310516E1,-1.511846948E-2,2.748812549E-3,-1.298050396E-2
2.921225511E1,-1.206423342E-2,-5.192201585E-3,-1.053711493E-2
2.922140511E1,-8.246437646E-3,-9.315420873E-3,-6.872031838E-3
2.923055511E1,-3.970507067E-3,-1.236965694E-2,-6.719320081E-3
2.923970506E1,1.527118147E-3,-1.053711493E-2,-5.497625098E-3
2.924885506E1,7.024743594E-3,-4.428642802E-3,6.108472589E-4
2.925800501E1,2.137965523E-3,-8.093725890E-3,4.275931045E-3
2.926715501E1,3.054236295E-4,-1.282779220E-2,6.719320081E-3
2.927630501E1,3.054236295E-4,-1.236965694E-2,7.330167107E-3
2.928545495E1,2.748812549E-3,-8.704573847E-3,6.719320081E-3
2.929460495E1,3.970507067E-3,-2.596100792E-3,4.275931045E-3
2.930375490E1,2.137965523E-3,-3.817795310E-3,2.443389036E-3
2.931290490E1,3.817795310E-3,3.970507067E-3,-1.832541777E-3
2.932205490E1,3.817795310E-3,1.725643501E-2,-2.443389036E-3
2.933120485E1,-2.443389036E-3,3.115320951E-2,-1.374406274E-3
2.934035485E1,-1.298050396E-2,3.955236077E-2,-3.206948051E-3
2.934950480E1,-2.046338283E-2,3.649812192E-2,-5.039489828E-3
2.935865480E1,-1.298050396E-2,2.932066843E-2,-3.206948051E-3
2.936780480E1,-4.886778072E-3,2.199050039E-2,4.581354442E-4
2.937695475E1,-1.068982761E-3,1.236965694E-2,2.443389036E-3
2.938610474E1,2.137965523E-3,-7.635590737E-4,6.108472589E-4
2.939525469E1,4.581354558E-3,-1.221694518E-2,-0.000000000E0
2.940440469E1,9.009997360E-3,-1.649287529E-2,6.108472589E-4
2.941355469E1,5.955760833E-3,-1.893626526E-2,6.108472589E-4
2.942270464E1,-5.803049076E-3,-2.504473738E-2,-1.374406274E-3
2.943185464E1,-1.114796288E-2,-2.855710872E-2,-7.482878864E-3
2.944100464E1,-1.435491070E-2,-1.710372418E-2,-1.175880991E-2
2.945015459E1,-2.183778957E-2,-5.192201585E-3,-1.664558798E-2
2.945930459E1,-2.870982140E-2,1.527118147E-3,-1.618745178E-2
2.946845454E1,-3.130592033E-2,1.053711493E-2,-1.557660475E-2
2.947760454E1,-2.947338112E-2,2.015795931E-2,-1.496575773E-2
2.948675454E1,-2.702999115E-2,2.199050039E-2,-1.435491070E-2
2.949590448E1,-2.397575416E-2,1.710372418E-2,-1.191152167E-2
2.950505449E1,-1.969982497E-2,2.076880634E-2,-9.315420873E-3
2.951420443E1,-1.603474095E-2,3.100049868E-2,-6.261184346E-3
2.952335443E1,-1.175880991E-2,3.222219273E-2,-1.374406274E-3
2.953250443E1,-7.482878864E-3,2.993151546E-2,2.901524538E-3
2.954165438E1,-6.872031838E-3,2.993151546E-2,4.123218823E-3
2.955080438E1,-5.650337320E-3,3.054236248E-2,6.566607859E-3
2.955995438E1,-5.650337320E-3,2.397575416E-2,1.084253844E-2
2.956910433E1,-3.054236295E-3,1.786728203E-2,1.389677543E-2
2.957825433E1,4.886778072E-3,1.481304597E-2,1.466033421E-2
2.958740428E1,6.872031838E-3,1.130067464E-2,1.160609815E-2
2.959655428E1,6.261184346E-3,1.007897966E-2,1.160609815E-2
2.960570428E1,6.872031838E-3,1.542389300E-2,9.773556143E-3
2.961485423E1,2.443389036E-3,2.382304333E-2,6.719320081E-3
2.962400422E1,-3.817795310E-3,3.527642787E-2,7.177455351E-3
2.963315423E1,-8.704573847E-3,3.588727489E-2,4.734066315E-3
2.964230417E1,-1.114796288E-2,3.054236248E-2,2.290677279E-3
2.965145417E1,-1.908897609E-2,1.786728203E-2,-1.985253533E-3
2.966060412E1,-2.076880634E-2,1.114796288E-2,-5.039489828E-3
2.966975412E1,-2.199050039E-2,-9.162708884E-4,-8.093725890E-3
2.967890412E1,-2.244863659E-2,-1.298050396E-2,-8.704573847E-3
2.968805407E1,-1.863084175E-2,-2.687728032E-2,-7.482878864E-3
2.969720407E1,-1.481304597E-2,-4.123219103E-2,-7.482878864E-3
2.970635407E1,-1.053711493E-2,-4.550812021E-2,-6.261184346E-3
2.971550402E1,-5.497625098E-3,-4.489727318E-2,-1.221694518E-3
2.972465402E1,-2.443389036E-3,-4.062134400E-2,2.443389036E-3
2.973380402E1,-4.428642802E-3,-3.634541109E-2,-0.000000000E0
2.974295396E1,-1.114796288E-2,-2.977880463E-2,-4.428642802E-3
2.975210396E1,-1.191152167E-2,-1.832541823E-2,-4.428642802E-3
2.976125391E1,-5.955760833E-3,-5.039489828E-3,-7.635590737E-4
2.977040391E1,-2.290677279E-3,1.527118147E-3,3.665083554E-3
2.977955391E1,-1.527118147E-3,-5.039489828E-3,6.108472589E-3
2.978870386E1,-9.162708884E-4,-1.221694518E-2,6.719320081E-3
2.979785386E1,-1.527118147E-3,-1.649287529E-2,9.162709117E-3
2.980700386E1,-1.679830020E-3,-8.093725890E-3,1.038440317E-2
2.981615381E1,-1.679830020E-3,-1.374406274E-3,3.054236295E-3
2.982530381E1,-1.068982761E-3,1.481304597E-2,-3.665083554E-3
2.983445381E1,1.221694518E-3,3.359659761E-2,-4.886778072E-3
2.984360376E1,-1.527118147E-4,5.161659420E-2,-6.261184346E-3
2.985275376E1,-8.246437646E-3,6.184828654E-2,-6.872031838E-3
2.986190376E1,-1.695101149E-2,6.001574174E-2,-7.482878864E-3
2.987105370E1,-2.229592577E-2,4.856235534E-2,-3.970507067E-3
2.988020370E1,-2.596100792E-2,2.993151546E-2,-9.162708884E-4
2.988935365E1,-2.321219631E-2,8.246437646E-3,3.054236295E-4
2.989850365E1,-9.468132630E-3,-1.282779220E-2,2.290677279E-3
2.990765365E1,1.068982761E-3,-3.329117596E-2,5.497625098E-3
2.991680360E1,7.482878864E-3,-5.085303262E-2,1.038440317E-2
2.992595360E1,1.496575773E-2,-6.276455522E-2,1.114796288E-2
2.993510360E1,1.679829881E-2,-6.948387623E-2,1.175880991E-2
2.994425355E1,1.863084175E-2,-6.520794332E-2,1.481304597E-2
2.995340355E1,1.847812906E-2,-5.070032179E-2,1.908897609E-2
2.996255355E1,1.160609815E-2,-3.145863488E-2,1.893626526E-2
2.997170350E1,3.970507067E-3,-1.771457121E-2,1.771457121E-2
2.998085350E1,1.985253533E-3,-6.261184346E-3,1.893626526E-2
2.999000350E1,-4.581354442E-4,1.679830020E-3,1.588202827E-2
2.999915344E1,-3.512371797E-3,3.970507067E-3,8.399149403E-3
3.000830344E1,7.635590737E-4,3.054236295E-4,6.719320081E-3
3.001745344E1,3.970507067E-3,-5.039489828E-3,4.886778072E-3
3.002660339E1,-9.162708884E-4,-1.221694518E-2,3.054236295E-3
3.003575339E1,-4.581354558E-3,-2.305948362E-2,4.275931045E-3
3.004490334E1,-8.857285604E-3,-3.161134571E-2,8.399149403E-3
3.005405334E1,-1.114796288E-2,-4.245388508E-2,1.023169141E-2
3.006320334E1,-9.926267900E-3,-5.085303262E-2,1.145338640E-2
3.007235329E1,-1.221694518E-2,-5.680879578E-2,1.145338640E-2
3.008150329E1,-1.542389300E-2,-5.680879578E-2,1.084253844E-2
3.009065329E1,-1.603474095E-2,-5.329642445E-2,9.620844387E-3
3.009980324E1,-1.298050396E-2,-5.451811850E-2,1.328592747E-2
3.010895324E1,-2.031067200E-2,-5.741964281E-2,1.084253844E-2
3.011810324E1,-2.932066843E-2,-7.009471953E-2,1.068982761E-3
3.012725318E1,-3.588727489E-2,-9.071081877E-2,-4.581354558E-3
3.013640318E1,-3.649812192E-2,-1.021642014E-1,-4.581354558E-3
3.014555318E1,-2.962609194E-2,-1.021642014E-1,-8.093725890E-3
3.015470313E1,-1.939439960E-2,-8.704573661E-2,-5.039489828E-3
3.016385313E1,-1.267508045E-2,-6.291726977E-2,-1.527118147E-4
3.017300313E1,-1.175880991E-2,-3.038965166E-2,5.344913341E-3
3.018215308E1,-1.023169141E-2,4.581354442E-4,1.084253844E-2
3.019130308E1,-1.481304597E-2,2.565558441E-2,7.788302377E-3
3.020045308E1,-1.068982668E-2,4.260659590E-2,5.955760833E-3
3.020960303E1,-1.527118147E-3,5.589252338E-2,7.788302377E-3
3.021875303E1,-3.054236295E-4,5.879404768E-2,2.901524538E-3
3.022790303E1,-5.192201585E-3,4.795150831E-2,-1.985253533E-3
3.023705298E1,-4.428642802E-3,3.527642787E-2,-4.428642802E-3
3.024620298E1,-7.330167107E-3,2.382304333E-2,-5.650337320E-3
3.025535298E1,-1.282779220E-2,1.298050396E-2,-6.872031838E-3
3.026450292E1,-1.710372418E-2,2.137965523E-3,-5.650337320E-3
3.027365292E1,-2.260134928E-2,-3.970507067E-3,-5.039489828E-3
3.028280292E1,-2.428117767E-2,-8.704573847E-3,-5.650337320E-3
3.029195287E1,-2.443389036E-2,-6.872031838E-3,-2.596100792E-3
3.030110287E1,-2.565558441E-2,-7.024743594E-3,-2.596100792E-3
3.031025287E1,-2.687728032E-2,-8.093725890E-3,-3.970507067E-3
3.031940282E1,-1.939439960E-2,-1.114796288E-2,-5.650337320E-3
3.032855282E1,-1.313321572E-2,-1.359135192E-2,-6.872031838E-3
3.033770282E1,-1.496575773E-2,-1.603474095E-2,-9.926267900E-3
3.034685277E1,-1.878355257E-2,-1.053711493E-2,-1.236965694E-2
3.035600277E1,-2.122694254E-2,-9.162708884E-4,-1.114796288E-2
3.036515277E1,-2.137965336E-2,1.359135192E-2,-9.926267900E-3
3.037430271E1,-1.969982497E-2,2.809897438E-2,-8.704573847E-3
3.038345271E1,-2.290677279E-2,4.306473210E-2,-1.068982668E-2
3.039260271E1,-2.473931387E-2,4.489727318E-2,-9.468132630E-3
3.040175266E1,-2.855710872E-2,4.245388508E-2,-8.857285604E-3
3.041090266E1,-3.161134571E-2,4.001049697E-2,-1.007897966E-2
3.042005266E1,-3.390202299E-2,3.695625812E-2,-1.252236869E-2
3.042920261E1,-3.390202299E-2,3.161134571E-2,-1.252236869E-2
3.043835261E1,-3.084778599E-2,2.611372061E-2,-1.191152167E-2
3.044750261E1,-2.702999115E-2,2.137965336E-2,-8.246437646E-3
3.045665261E1,-2.092151903E-2,2.199050039E-2,-7.482878864E-3
3.046580256E1,-1.893626526E-2,1.542389300E-2,-8.093725890E-3
3.047495256E1,-1.832541823E-2,1.175880991E-2,-5.650337320E-3
3.048410256E1,-1.710372418E-2,1.175880991E-2,-3.817795310E-3
3.049325251E1,-1.527118124E-2,7.482878864E-3,-2.596100792E-3
3.050240251E1,-1.389677543E-2,-9.162708884E-4,-2.596100792E-3
3.051155251E1,-1.267508045E-2,-5.650337320E-3,-1.374406274E-3
3.052070245E1,-9.620844387E-3,-1.114796288E-2,4.581354442E-4
3.052985245E1,-8.857285604E-3,-2.015795931E-2,4.581354442E-4
3.053900245E1,-9.926267900E-3,-3.344388679E-2,-2.596100792E-3
3.054815240E1,-9.162709117E-3,-4.611896724E-2,-2.596100792E-3
3.055730240E1,-6.108472589E-3,-5.268557742E-2,-3.054236295E-3
3.056645240E1,-7.330167107E-3,-5.696150661E-2,-6.719320081E-3
3.057560240E1,-7.941014133E-3,-4.902049154E-2,-9.162709117E-3
3.058475235E1,-1.114796288E-2,-3.649812192E-2,-1.053711493E-2
3.059390235E1,-1.007897966E-2,-2.015795931E-2,-1.236965694E-2
3.060305235E1,-1.130067464E-2,-6.413896102E-3,-1.481304597E-2
3.061220230E1,-1.389677543E-2,-9.162708884E-4,-1.664558798E-2
3.062135230E1,-1.939439960E-2,-3.054236295E-4,-1.603474095E-2
3.063050230E1,-2.260134928E-2,5.039489828E-3,-1.603474095E-2
3.063965224E1,-2.076880634E-2,2.748812549E-3,-1.481304597E-2
3.064880225E1,-1.618745178E-2,-7.482878864E-3,-1.603474095E-2
3.065795224E1,-1.053711493E-2,-2.321219631E-2,-2.031067200E-2
3.066710219E1,-4.275931045E-3,-3.833066672E-2,-2.137965336E-2
3.067625219E1,-1.832541777E-3,-3.955236077E-2,-2.015795931E-2
3.068540219E1,-4.428642802E-3,-3.100049868E-2,-2.015795931E-2
3.069455219E1,-9.315420873E-3,-2.687728032E-2,-2.336490713E-2
3.070370214E1,-1.618745178E-2,-1.847812906E-2,-2.519745007E-2
3.071285214E1,-2.367033064E-2,-1.068982668E-2,-2.641914412E-2
3.072200214E1,-2.733541466E-2,-2.748812549E-3,-3.023693897E-2
3.073115209E1,-2.489202656E-2,7.635590737E-4,-3.069507517E-2
3.074030209E1,-2.000524849E-2,-1.068982761E-3,-3.130592033E-2
3.074945209E1,-1.695101149E-2,-3.359660041E-3,-2.886253223E-2
3.075860209E1,-1.695101149E-2,-3.970507067E-3,-2.764083818E-2
3.076775204E1,-2.244863659E-2,-1.068982668E-2,-2.825168520E-2
3.077690204E1,-1.740914769E-2,-1.969982497E-2,-2.947338112E-2
3.078605204E1,-3.817795310E-3,-2.626643144E-2,-2.565558441E-2
3.079520199E1,3.054236295E-3,-3.222219273E-2,-2.321219631E-2
3.080435198E1,2.443389036E-3,-3.038965166E-2,-2.199050039E-2
3.081350199E1,-3.817795310E-3,-2.748812735E-2,-2.199050039E-2
3.082265193E1,-3.817795310E-3,-2.809897438E-2,-1.893626526E-2
3.083180193E1,-7.635590737E-4,-2.260134928E-2,-1.710372418E-2
3.084095193E1,-2.748812549E-3,-1.236965694E-2,-1.649287529E-2
3.085010193E1,-2.748812549E-3,-9.315420873E-3,-1.404948719E-2
3.085925188E1,4.734066315E-3,-1.420219894E-2,-9.162709117E-3
3.086840188E1,1.023169141E-2,-1.282779220E-2,-5.497625098E-3
3.087755188E1,8.246437646E-3,-2.596100792E-3,-5.497625098E-3
3.088670188E1,3.206948051E-3,8.857285604E-3,-5.497625098E-3
3.089585183E1,3.817795310E-3,1.847812906E-2,-6.719320081E-3
3.090500183E1,1.236965694E-2,2.504473738E-2,-4.886778072E-3
3.091415183E1,1.420219894E-2,3.222219273E-2,-6.108472589E-3
3.092330178E1,9.773556143E-3,4.138490185E-2,-4.275931045E-3
3.093245178E1,2.290677279E-3,5.283828825E-2,-3.206948051E-3
3.094160178E1,-6.413896102E-3,5.940489471E-2,-5.039489828E-3
3.095075173E1,-1.374406368E-2,5.696150661E-2,-9.315420873E-3
3.095990172E1,-2.122694254E-2,5.085303262E-2,-1.007897966E-2
3.096905173E1,-2.229592577E-2,4.779879749E-2,-1.068982668E-2
3.097820172E1,-2.168507688E-2,5.085303262E-2,-1.496575773E-2
3.098735173E1,-1.679829881E-2,5.024218559E-2,-1.359135192E-2
3.099650167E1,-9.926267900E-3,4.428642616E-2,-1.298050396E-2
3.100565167E1,-5.497625098E-3,3.344388679E-2,-1.053711493E-2
3.101480167E1,-6.719320081E-3,1.908897609E-2,-6.872031838E-3
3.102395162E1,-1.038440317E-2,1.053711493E-2,-3.206948051E-3
3.103310162E1,-6.719320081E-3,8.704573847E-3,4.581354442E-4
3.104225162E1,1.221694518E-3,1.725643501E-2,3.665083554E-3
3.105140162E1,6.108472589E-3,2.382304333E-2,4.886778072E-3
3.106055157E1,8.551862091E-3,2.870982140E-2,4.275931045E-3
3.106970157E1,1.359135192E-2,2.748812735E-2,4.275931045E-3
3.107885157E1,1.481304597E-2,2.626643144E-2,4.275931045E-3
3.108800152E1,1.221694518E-2,2.748812735E-2,7.330167107E-3
3.109715152E1,7.330167107E-3,2.153236605E-2,4.886778072E-3
3.110630152E1,-1.068982761E-3,1.298050396E-2,-1.527118147E-4
3.111545152E1,-4.734066315E-3,1.527118147E-3,-4.428642802E-3
3.112460146E1,-4.123218823E-3,9.162708884E-4,-6.872031838E-3
3.113375146E1,-2.901524538E-3,1.527118147E-3,-7.941014133E-3
3.114290146E1,-7.177455351E-3,4.581354558E-3,-1.053711493E-2
3.115205146E1,-8.399149403E-3,9.926267900E-3,-1.420219894E-2
3.116120141E1,-7.177455351E-3,1.343864016E-2,-1.786728203E-2
3.117035141E1,-3.512371797E-3,9.315420873E-3,-1.481304597E-2
3.117950141E1,-2.901524538E-3,2.748812549E-3,-1.099525020E-2
3.118865141E1,-8.399149403E-3,-6.261184346E-3,-9.926267900E-3
3.119780136E1,-1.191152167E-2,-1.481304597E-2,-9.315420873E-3
3.120695136E1,-1.007897966E-2,-2.015795931E-2,-7.482878864E-3
3.121610136E1,-3.359660041E-3,-1.710372418E-2,-4.886778072E-3
3.122525136E1,9.162708884E-4,-6.872031838E-3,-4.275931045E-3
3.123440131E1,3.970507067E-3,3.054236295E-4,-4.275931045E-3
3.124355131E1,7.024743594E-3,8.246437646E-3,-4.886778072E-3
3.125270131E1,4.428642802E-3,2.153236605E-2,-4.886778072E-3
3.126185131E1,1.221694518E-3,3.894151375E-2,-5.650337320E-3
3.127100126E1,1.679830020E-3,5.100574717E-2,-4.428642802E-3
3.128015126E1,-3.054236295E-4,5.818320066E-2,-3.817795310E-3
3.128930126E1,-9.162708884E-4,5.818320066E-2,-4.428642802E-3
3.129845126E1,-1.527118147E-3,5.268557742E-2,-6.261184346E-3
3.130760120E1,-1.374406274E-3,4.550812021E-2,-6.872031838E-3
3.131675120E1,-4.428642802E-3,3.894151375E-2,-7.482878864E-3
3.132590120E1,-2.443389036E-3,2.932066843E-2,-6.261184346E-3
3.133505120E1,1.832541777E-3,2.076880634E-2,-4.275931045E-3
3.134420115E1,1.374406274E-3,1.175880991E-2,-3.665083554E-3
3.135335115E1,-4.581354442E-4,8.093725890E-3,-4.275931045E-3
3.136250115E1,-4.581354442E-4,3.054236295E-4,-4.275931045E-3
3.137165115E1,-2.137965523E-3,-6.872031838E-3,-4.886778072E-3
3.138080110E1,-7.635590620E-3,-9.315420873E-3,-6.872031838E-3
3.138995110E1,-1.007897966E-2,-1.175880991E-2,-1.236965694E-2
3.139910110E1,-7.024743594E-3,-1.114796288E-2,-1.664558798E-2
3.140825110E1,-3.206948051E-3,-1.359135192E-2,-1.893626526E-2
3.141740105E1,-1.374406274E-3,-1.664558798E-2,-1.954711229E-2
3.142655105E1,-4.581354558E-3,-1.359135192E-2,-1.725643501E-2
3.143570105E1,-6.413896102E-3,-8.093725890E-3,-1.114796288E-2
3.144485105E1,-5.955760833E-3,-3.359660041E-3,-5.039489828E-3
3.145400100E1,1.527118147E-4,-9.162708884E-4,1.221694518E-3
3.146315100E1,8.704573847E-3,7.635590620E-3,6.719320081E-3
3.147230100E1,1.236965694E-2,1.908897609E-2,8.551862091E-3
3.148145100E1,9.773556143E-3,2.565558441E-2,9.773556143E-3
3.149060100E1,1.160609815E-2,3.054236248E-2,1.038440317E-2
3.149975094E1,1.893626526E-2,3.298575059E-2,8.551862091E-3
3.150890094E1,2.153236605E-2,3.115320951E-2,7.330167107E-3
3.151805094E1,1.649287529E-2,2.993151546E-2,6.719320081E-3
3.152720094E1,9.162709117E-3,2.809897438E-2,2.443389036E-3
3.153635089E1,4.275931045E-3,2.809897438E-2,6.108472589E-4
3.154550089E1,-1.527118147E-4,3.771981969E-2,-3.817795310E-3
3.155465089E1,-5.039489828E-3,4.489727318E-2,-9.315420873E-3
3.156380089E1,-5.650337320E-3,4.428642616E-2,-9.926267900E-3
3.157295084E1,-7.482878864E-3,4.123219103E-2,-8.704573847E-3
3.158210084E1,-1.298050396E-2,2.870982140E-2,-1.236965694E-2
3.159125084E1,-1.695101149E-2,6.413896102E-3,-1.664558798E-2
3.160040084E1,-1.374406368E-2,-1.527118124E-2,-1.359135192E-2
3.160955079E1,-8.093725890E-3,-2.687728032E-2,-8.704573847E-3
3.161870079E1,-4.428642802E-3,-2.855710872E-2,-4.275931045E-3
3.162785079E1,-5.039489828E-3,-2.321219631E-2,-4.886778072E-3
3.163700079E1,-2.748812549E-3,-1.404948719E-2,-4.275931045E-3
3.164615079E1,3.359660041E-3,-3.817795310E-3,-1.832541777E-3
3.165530074E1,6.413896102E-3,-3.054236295E-4,-0.000000000E0
3.166445074E1,3.359660041E-3,-5.039489828E-3,6.108472589E-4
3.167360074E1,-3.054236295E-4,-1.114796288E-2,3.054236295E-3
3.168275074E1,2.748812549E-3,-1.404948719E-2,3.665083554E-3
3.169190068E1,7.635590620E-3,-9.926267900E-3,2.443389036E-3
3.170105068E1,8.246437646E-3,-4.428642802E-3,1.221694518E-3
3.171020068E1,8.857285604E-3,2.748812549E-3,-1.221694518E-3
3.171935068E1,5.039489828E-3,8.857285604E-3,-4.886778072E-3
3.172850068E1,1.527118147E-4,1.298050396E-2,-1.221694518E-3
3.173765063E1,-6.108472589E-3,1.542389300E-2,1.068982761E-3
3.174680063E1,-8.551862091E-3,1.359135192E-2,1.068982761E-3
3.175595063E1,-9.162709117E-3,1.175880991E-2,4.123218823E-3
3.176510063E1,-9.009997360E-3,5.803049076E-3,4.581354442E-4
3.177425058E1,-8.857285604E-3,-1.114796288E-2,-1.985253533E-3
3.178340058E1,-7.024743594E-3,-2.137965336E-2,-5.039489828E-3
3.179255058E1,-3.817795310E-3,-2.626643144E-2,-8.551862091E-3
3.180170058E1,-2.443389036E-3,-3.344388679E-2,-1.221694518E-2
3.181085058E1,-4.275931045E-3,-4.016320780E-2,-1.343864016E-2
3.182000053E1,-7.482878864E-3,-3.833066672E-2,-1.160609815E-2
3.182915053E1,-1.053711493E-2,-2.916795574E-2,-9.926267900E-3
3.183830053E1,-1.374406368E-2,-1.771457121E-2,-6.872031838E-3
3.184745053E1,-1.389677543E-2,-4.428642802E-3,-1.374406274E-3
3.185660048E1,-4.275931045E-3,1.007897966E-2,4.734066315E-3
3.186575048E1,7.941014133E-3,2.687728032E-2,9.773556143E-3
3.187490048E1,1.343864016E-2,4.016320780E-2,9.773556143E-3
3.188405048E1,1.695101149E-2,4.917320609E-2,6.108472589E-3
3.189320048E1,1.695101149E-2,5.650337040E-2,4.275931045E-3
3.190235042E1,1.191152167E-2,6.245913357E-2,4.886778072E-3
3.191150042E1,9.468132630E-3,7.146912813E-2,5.497625098E-3
3.192065042E1,1.527118147E-4,7.452336699E-2,4.123218823E-3
3.192980042E1,-4.734066315E-3,6.841489673E-2,2.290677279E-3
3.193895042E1,-8.857285604E-3,5.573981255E-2,1.068982761E-3
3.194810037E1,-1.252236869E-2,4.428642616E-2,-1.985253533E-3
3.195725037E1,-1.175880991E-2,2.748812735E-2,-2.596100792E-3
3.196640037E1,-7.177455351E-3,1.114796288E-2,-3.817795310E-3
3.197555037E1,-5.955760833E-3,-1.527118147E-3,-3.206948051E-3
3.198470037E1,-7.635590620E-3,-1.175880991E-2,-5.039489828E-3
3.199385032E1,-3.817795310E-3,-2.260134928E-2,-1.527118147E-4
3.200300032E1,7.330167107E-3,-3.161134571E-2,4.886778072E-3
3.201215032E1,1.466033421E-2,-3.634541109E-2,7.941014133E-3
3.202130032E1,1.099525020E-2,-3.817795217E-2,1.160609815E-2
3.203045032E1,2.290677279E-3,-3.390202299E-2,1.221694518E-2
3.203960027E1,1.068982761E-3,-2.611372061E-2,9.162709117E-3
3.204875027E1,4.581354558E-3,-1.099525020E-2,7.941014133E-3
3.205790027E1,7.482878864E-3,5.192201585E-3,7.941014133E-3
3.206705027E1,1.053711493E-2,2.031067200E-2,6.719320081E-3
3.207620027E1,1.282779220E-2,4.077405483E-2,3.665083554E-3
3.208535021E1,1.145338640E-2,5.100574717E-2,1.221694518E-3
3.209450021E1,5.955760833E-3,5.390727147E-2,-5.497625098E-3
3.210365021E1,3.512371797E-3,5.268557742E-2,-1.282779220E-2
3.211280021E1,-1.985253533E-3,5.390727147E-2,-1.298050396E-2
3.212195021E1,-8.246437646E-3,6.291726977E-2,-1.542389300E-2
3.213110016E1,-1.389677543E-2,7.314895838E-2,-1.664558798E-2
3.214025016E1,-1.756185852E-2,6.841489673E-2,-1.725643501E-2
3.214940016E1,-1.801999472E-2,4.672981426E-2,-1.786728203E-2
3.215855016E1,-1.282779220E-2,2.443389036E-2,-1.542389300E-2
3.216770016E1,-7.788302377E-3,3.054236295E-4,-1.114796288E-2
3.217685016E1,-5.039489828E-3,-2.672456764E-2,-6.108472589E-3
3.218600011E1,1.527118147E-4,-5.390727147E-2,-1.832541777E-3
3.219515011E1,1.130067464E-2,-6.780404598E-2,-2.443389036E-3
3.220430011E1,2.290677279E-2,-6.765133142E-2,2.596100792E-3
3.221345011E1,2.473931387E-2,-5.375456065E-2,9.315420873E-3
3.222260011E1,1.649287529E-2,-3.512371704E-2,9.162709117E-3
3.223175006E1,7.788302377E-3,-1.817270555E-2,6.719320081E-3
3.224090006E1,3.970507067E-3,-3.817795310E-3,4.275931045E-3
3.225005006E1,6.872031838E-3,8.857285604E-3,-0.000000000E0
3.225920006E1,1.175880991E-2,2.443389036E-2,1.221694518E-3
3.226835006E1,1.298050396E-2,2.687728032E-2,-6.108472589E-4
3.227750006E1,1.679829881E-2,1.847812906E-2,-3.665083554E-3
3.228665001E1,1.939439960E-2,1.679830020E-3,-2.290677279E-3
3.229580001E1,2.076880634E-2,-1.343864016E-2,-1.068982761E-3
3.230495001E1,1.771457121E-2,-2.794626169E-2,-1.068982761E-3
3.231410001E1,1.466033421E-2,-3.573456407E-2,-3.665083554E-3
3.232325001E1,1.175880991E-2,-4.062134400E-2,-7.330167107E-3
3.233240001E1,8.704573847E-3,-4.245388508E-2,-1.099525020E-2
3.234154995E1,3.054236295E-3,-4.428642616E-2,-1.099525020E-2
3.235069995E1,-3.665083554E-3,-4.672981426E-2,-1.160609815E-2
3.235984995E1,-5.497625098E-3,-4.963133857E-2,-7.330167107E-3
3.236899995E1,-4.886778072E-3,-5.085303262E-2,-7.941014133E-3
3.237814995E1,-3.054236295E-3,-5.085303262E-2,-7.941014133E-3
3.238729995E1,1.832541777E-3,-4.672981426E-2,-4.275931045E-3
3.239644990E1,7.941014133E-3,-4.367557913E-2,-2.443389036E-3
3.240559990E1,1.099525020E-2,-4.062134400E-2,-1.832541777E-3
3.241474990E1,1.710372418E-2,-3.512371704E-2,7.635590737E-4
3.242389990E1,1.893626526E-2,-2.550287358E-2,2.596100792E-3
3.243304990E1,2.076880634E-2,-2.015795931E-2,4.428642802E-3
3.244219985E1,2.932066843E-2,-1.282779220E-2,9.315420873E-3
3.245134985E1,2.977880463E-2,-7.941014133E-3,1.175880991E-2
3.246049985E1,2.305948362E-2,-8.704573847E-3,9.926267900E-3
3.246964985E1,1.572931744E-2,-7.941014133E-3,9.773556143E-3
3.247879985E1,8.246437646E-3,-1.985253533E-3,7.941014133E-3
3.248794985E1,5.039489828E-3,5.803049076E-3,3.665083554E-3
3.249709985E1,7.024743594E-3,5.803049076E-3,6.108472589E-4
3.250624980E1,8.857285604E-3,-1.527118147E-4,6.108472589E-4
3.251539980E1,9.620844387E-3,-1.160609815E-2,1.221694518E-3
3.252454980E1,1.023169141E-2,-2.305948362E-2,-6.108472589E-4
3.253369980E1,6.719320081E-3,-3.939964995E-2,-1.221694518E-3
3.254284980E1,2.443389036E-3,-5.146388337E-2,-0.000000000E0
3.255199974E1,-2.290677279E-3,-6.047387794E-2,3.054236295E-3
3.256114974E1,-2.901524538E-3,-6.230641901E-2,4.886778072E-3
3.257029974E1,1.527118147E-4,-6.642963737E-2,7.941014133E-3
3.257944975E1,6.261184346E-3,-6.887302548E-2,1.221694518E-2
3.258859974E1,1.130067464E-2,-7.253811508E-2,1.527118124E-2
3.259774974E1,1.924168877E-2,-7.070557028E-2,1.603474095E-2
3.260689974E1,2.657185495E-2,-6.032116711E-2,1.664558798E-2
3.261604969E1,3.268032894E-2,-4.596625641E-2,1.542389300E-2
3.262519969E1,2.947338112E-2,-3.573456407E-2,1.298050396E-2
3.263434969E1,2.260134928E-2,-2.794626169E-2,9.926267900E-3
3.264349969E1,1.634016447E-2,-1.527118124E-2,1.099525020E-2
3.265264969E1,8.246437646E-3,5.344913341E-3,1.221694518E-2
3.266179969E1,-0.000000000E0,2.397575416E-2,9.009997360E-3
3.267094969E1,-3.817795310E-3,3.527642787E-2,7.177455351E-3
3.268009964E1,-6.261184346E-3,3.710897267E-2,2.290677279E-3
3.268924964E1,-4.428642802E-3,3.405473381E-2,-7.635590737E-4
3.269839964E1,-2.443389036E-3,2.504473738E-2,-6.261184346E-3
3.270754964E1,-3.512371797E-3,1.603474095E-2,-1.053711493E-2
3.271669964E1,-4.581354442E-4,1.114796288E-2,-1.099525020E-2
3.272584964E1,3.817795310E-3,8.093725890E-3,-8.551862091E-3
3.273499959E1,7.635590737E-4,5.192201585E-3,-4.275931045E-3
3.274414959E1,-2.901524538E-3,3.359660041E-3,-7.635590737E-4
3.275329959E1,-2.290677279E-3,5.192201585E-3,1.679830020E-3
3.276244959E1,3.817795310E-3,3.970507067E-3,4.275931045E-3
3.277159959E1,1.130067464E-2,-1.985253533E-3,6.108472589E-3
3.278074959E1,1.695101149E-2,-8.704573847E-3,7.330167107E-3
3.278989959E1,2.244863659E-2,-1.099525020E-2,8.704573847E-3
3.279904959E1,2.565558441E-2,-1.527118124E-2,6.872031838E-3
3.280819954E1,2.794626169E-2,-1.221694518E-2,9.926267900E-3
3.281734954E1,2.367033064E-2,-4.428642802E-3,1.114796288E-2
3.282649954E1,2.168507688E-2,1.068982761E-3,1.542389300E-2
3.283564954E1,1.863084175E-2,4.123218823E-3,1.710372418E-2
3.284479954E1,1.725643501E-2,9.468132630E-3,1.466033421E-2
3.285394954E1,1.786728203E-2,1.725643501E-2,1.404948719E-2
3.286309948E1,1.786728203E-2,2.336490713E-2,1.282779220E-2
3.287224949E1,1.847812906E-2,2.565558441E-2,1.343864016E-2
3.288139948E1,1.832541823E-2,2.870982140E-2,1.099525020E-2
3.289054948E1,1.725643501E-2,2.748812735E-2,6.719320081E-3
3.289969948E1,9.315420873E-3,2.260134928E-2,3.054236295E-3
3.290884949E1,4.275931045E-3,2.031067200E-2,1.221694518E-3
3.291799948E1,-1.679830020E-3,9.926267900E-3,-5.497625098E-3
3.292714948E1,-5.192201585E-3,-4.428642802E-3,-8.704573847E-3
3.293629943E1,-8.857285604E-3,-1.954711229E-2,-8.704573847E-3
3.294544943E1,-1.679829881E-2,-3.161134571E-2,-7.482878864E-3
3.295459943E1,-1.985253580E-2,-3.527642787E-2,-4.428642802E-3
3.296374943E1,-1.481304597E-2,-3.527642787E-2,-1.374406274E-3
3.297289943E1,-1.053711493E-2,-3.649812192E-2,4.581354442E-4
3.298204943E1,-5.650337320E-3,-4.184303805E-2,4.123218823E-3
3.299119943E1,-6.108472589E-4,-4.718795046E-2,6.719320081E-3
3.300034938E1,0.000000000E0,-4.535540938E-2,8.551862091E-3
3.300949938E1,-7.635590737E-4,-4.184303805E-2,1.038440317E-2
3.301864938E1,2.901524538E-3,-3.206948191E-2,1.221694518E-2
3.302779938E1,6.413896102E-3,-1.588202827E-2,1.221694518E-2
3.303694938E1,6.413896102E-3,-3.206948051E-3,9.773556143E-3
3.304609938E1,5.650337320E-3,1.252236869E-2,8.551862091E-3
3.305524938E1,1.221694518E-3,2.687728032E-2,6.566607859E-3
3.306439933E1,-5.039489828E-3,3.649812192E-2,3.512371797E-3
3.307354933E1,-7.635590620E-3,4.489727318E-2,4.581354442E-4
3.308269933E1,-1.068982668E-2,4.917320609E-2,-2.596100792E-3
3.309184933E1,-1.191152167E-2,4.489727318E-2,-5.650337320E-3
3.310099933E1,-1.175880991E-2,3.955236077E-2,-8.093725890E-3
3.311014933E1,-1.053711493E-2,3.038965166E-2,-7.482878864E-3
3.311929933E1,-5.955760833E-3,1.664558798E-2,-8.704573847E-3
3.312844928E1,-4.581354558E-3,-1.374406274E-3,-6.261184346E-3
3.313759928E1,-5.650337320E-3,-2.367033064E-2,-3.817795310E-3
3.314674928E1,-7.941014133E-3,-4.306473210E-2,-4.428642802E-3
3.315589928E1,-1.221694518E-2,-5.635065958E-2,-5.039489828E-3
3.316504928E1,-1.832541823E-2,-5.818320066E-2,-3.206948051E-3
3.317419928E1,-2.031067200E-2,-5.390727147E-2,-5.039489828E-3
3.318334928E1,-2.153236605E-2,-4.001049697E-2,-8.704573847E-3
3.319249928E1,-2.229592577E-2,-2.382304333E-2,-1.175880991E-2
3.320164923E1,-2.183778957E-2,-5.650337320E-3,-1.114796288E-2
3.321079922E1,-2.137965336E-2,1.771457121E-2,-1.374406368E-2
3.321994922E1,-2.535016090E-2,3.466558084E-2,-1.679829881E-2
3.322909922E1,-2.351761982E-2,3.756710514E-2,-1.130067464E-2
3.323824923E1,-1.481304597E-2,3.344388679E-2,-5.650337320E-3
3.324739922E1,-6.872031838E-3,3.100049868E-2,-2.596100792E-3
3.325654922E1,-5.650337320E-3,2.809897438E-2,4.581354442E-4
3.326569922E1,-7.482878864E-3,2.687728032E-2,2.290677279E-3
3.327484917E1,-6.872031838E-3,3.161134571E-2,2.901524538E-3
3.328399917E1,-5.650337320E-3,3.771981969E-2,6.566607859E-3
3.329314917E1,-4.428642802E-3,3.955236077E-2,4.734066315E-3
3.330229917E1,-5.039489828E-3,3.955236077E-2,4.123218823E-3
3.331144917E1,-1.114796288E-2,3.115320951E-2,5.955760833E-3
3.332059917E1,-1.481304597E-2,2.443389036E-2,5.955760833E-3
3.332974917E1,-1.359135192E-2,2.321219631E-2,5.344913341E-3
3.333889912E1,-1.282779220E-2,1.847812906E-2,1.679830020E-3
3.334804912E1,-1.221694518E-2,1.420219894E-2,4.581354442E-4
3.335719912E1,-9.773556143E-3,1.175880991E-2,2.901524538E-3
3.336634912E1,-9.773556143E-3,1.298050396E-2,4.734066315E-3
3.337549912E1,-9.162709117E-3,1.725643501E-2,6.566607859E-3
3.338464912E1,-8.551862091E-3,1.481304597E-2,8.399149403E-3
3.339379912E1,-3.665083554E-3,1.542389300E-2,1.084253844E-2
3.340294912E1,0.000000000E0,1.908897609E-2,1.084253844E-2
3.341209907E1,6.108472589E-4,1.481304597E-2,9.773556143E-3
3.342124907E1,-2.443389036E-3,9.468132630E-3,8.399149403E-3
3.343039907E1,-6.108472589E-3,7.024743594E-3,8.399149403E-3
3.343954907E1,-7.330167107E-3,8.246437646E-3,7.788302377E-3
3.344869907E1,-8.551862091E-3,9.315420873E-3,4.734066315E-3
3.345784907E1,-9.162709117E-3,7.635590620E-3,2.901524538E-3
3.346699907E1,-6.719320081E-3,9.926267900E-3,3.512371797E-3
3.347614907E1,-8.551862091E-3,1.175880991E-2,4.734066315E-3
3.348529902E1,-1.710372418E-2,9.926267900E-3,4.123218823E-3
3.349444902E1,-2.382304333E-2,5.650337320E-3,9.162708884E-4
3.350359902E1,-2.565558441E-2,5.192201585E-3,-9.162708884E-4
3.351274902E1,-1.954711229E-2,5.650337320E-3,-2.596100792E-3
3.352189902E1,-1.038440317E-2,6.261184346E-3,-1.985253533E-3
3.353104902E1,-5.955760833E-3,7.482878864E-3,-7.635590737E-4
3.354019902E1,-1.679830020E-3,9.926267900E-3,-1.527118147E-4
3.354934902E1,2.596100792E-3,1.359135192E-2,1.832541777E-3
3.355849896E1,-4.886778072E-3,1.847812906E-2,5.344913341E-3
3.356764896E1,-1.542389300E-2,1.847812906E-2,5.955760833E-3
3.357679896E1,-2.397575416E-2,1.603474095E-2,5.192201585E-3
3.358594896E1,-2.397575416E-2,1.359135192E-2,1.527118147E-3
3.359509896E1,-1.725643501E-2,1.603474095E-2,1.068982761E-3
3.360424896E1,-9.773556143E-3,2.076880634E-2,-1.527118147E-4
3.361339896E1,-5.497625098E-3,2.382304333E-2,1.068982761E-3
3.362254896E1,-4.886778072E-3,2.504473738E-2,-1.985253533E-3
3.363169891E1,-3.054236295E-3,2.565558441E-2,-1.374406274E-3
3.364084891E1,1.832541777E-3,1.908897609E-2,2.443389036E-3
3.364999891E1,-4.581354442E-4,1.053711493E-2,4.275931045E-3
3.365914891E1,-4.734066315E-3,5.192201585E-3,5.344913341E-3
3.366829891E1,-3.512371797E-3,3.970507067E-3,7.788302377E-3
3.367744891E1,-2.290677279E-3,3.359660041E-3,9.009997360E-3
3.368659891E1,7.635590737E-4,4.581354558E-3,6.719320081E-3
3.369574886E1,1.527118147E-4,7.024743594E-3,4.275931045E-3
3.370489886E1,3.206948051E-3,1.175880991E-2,3.665083554E-3
3.371404886E1,3.665083554E-3,1.786728203E-2,3.054236295E-3
3.372319886E1,2.443389036E-3,2.015795931E-2,6.108472589E-4
3.373234886E1,1.832541777E-3,1.969982497E-2,6.108472589E-4
3.374149886E1,1.832541777E-3,1.969982497E-2,6.108472589E-4
3.375064886E1,3.054236295E-3,1.908897609E-2,-0.000000000E0
3.375979886E1,2.443389036E-3,1.893626526E-2,-2.443389036E-3
3.376894881E1,2.596100792E-3,1.420219894E-2,-3.665083554E-3
3.377809881E1,3.817795310E-3,9.315420873E-3,-1.832541777E-3
3.378724881E1,7.482878864E-3,8.093725890E-3,-3.054236295E-3
3.379639881E1,5.650337320E-3,7.482878864E-3,-4.275931045E-3
3.380554881E1,5.192201585E-3,2.748812549E-3,-7.941014133E-3
3.381469881E1,1.985253533E-3,4.581354558E-3,-7.330167107E-3
3.382384881E1,-1.068982761E-3,1.236965694E-2,-5.039489828E-3
3.383299881E1,-4.275931045E-3,1.725643501E-2,-3.817795310E-3
3.384214881E1,-1.068982761E-3,1.481304597E-2,-1.985253533E-3
3.385129876E1,7.482878864E-3,1.298050396E-2,2.443389036E-3
3.386044876E1,1.313321572E-2,3.359660041E-3,4.275931045E-3
3.386959876E1,1.313321572E-2,-5.039489828E-3,4.886778072E-3
3.387874876E1,6.413896102E-3,-3.206948051E-3,3.665083554E-3
3.388789876E1,-1.068982761E-3,-1.527118147E-3,-1.221694518E-3
3.389704876E1,-2.901524538E-3,5.192201585E-3,-6.108472589E-3
3.390619876E1,7.635590737E-4,1.175880991E-2,-1.160609815E-2
3.391534876E1,3.206948051E-3,2.137965336E-2,-1.343864016E-2
3.392449876E1,4.428642802E-3,2.382304333E-2,-1.343864016E-2
3.393364870E1,1.374406274E-3,1.893626526E-2,-1.282779220E-2
3.394279870E1,5.650337320E-3,1.771457121E-2,-8.551862091E-3
3.395194870E1,1.298050396E-2,1.725643501E-2,-1.832541777E-3
3.396109870E1,1.863084175E-2,1.252236869E-2,5.497625098E-3
3.397024870E1,1.618745178E-2,5.803049076E-3,8.551862091E-3
3.397939870E1,1.496575773E-2,-1.527118147E-4,9.773556143E-3
3.398854870E1,1.435491070E-2,-5.650337320E-3,9.773556143E-3
3.399769870E1,1.634016447E-2,-8.704573847E-3,6.108472589E-3
3.400684865E1,1.634016447E-2,-1.114796288E-2,2.443389036E-3
3.401599865E1,1.511846948E-2,-6.872031838E-3,-1.832541777E-3
3.402514865E1,1.084253844E-2,-6.872031838E-3,-5.497625098E-3
3.403429865E1,4.581354558E-3,-6.261184346E-3,-6.719320081E-3
3.404344865E1,4.734066315E-3,-8.704573847E-3,-8.551862091E-3
3.405259865E1,5.955760833E-3,-1.588202827E-2,-1.160609815E-2
3.406174865E1,7.330167107E-3,-2.489202656E-2,-1.099525020E-2
3.407089865E1,8.551862091E-3,-3.344388679E-2,-1.099525020E-2
3.408004865E1,1.038440317E-2,-3.588727489E-2,-9.773556143E-3
3.408919860E1,9.773556143E-3,-3.527642787E-2,-1.038440317E-2
3.409834860E1,1.160609815E-2,-3.344388679E-2,-7.941014133E-3
3.410749860E1,1.343864016E-2,-2.916795574E-2,-4.275931045E-3
3.411664860E1,1.282779220E-2,-2.733541466E-2,-2.443389036E-3
3.412579860E1,7.177455351E-3,-2.794626169E-2,-1.221694518E-3
3.413494860E1,1.679830020E-3,-3.038965166E-2,-4.275931045E-3
3.414409860E1,-7.635590737E-4,-3.344388679E-2,-7.941014133E-3
3.415324860E1,4.886778072E-3,-3.038965166E-2,-9.773556143E-3
3.416239860E1,9.162709117E-3,-2.916795574E-2,-1.099525020E-2
3.417154855E1,1.160609815E-2,-2.794626169E-2,-1.038440317E-2
3.418069855E1,1.267508045E-2,-1.832541823E-2,-6.719320081E-3
3.418984855E1,1.023169141E-2,-5.039489828E-3,-5.497625098E-3
3.419899855E1,1.985253533E-3,1.298050396E-2,-7.330167107E-3
3.420814855E1,-1.832541777E-3,2.199050039E-2,-7.482878864E-3
3.421729855E1,-1.832541777E-3,2.565558441E-2,-8.704573847E-3
3.422644855E1,6.108472589E-4,2.626643144E-2,-7.330167107E-3
3.423559855E1,4.886778072E-3,2.748812735E-2,-6.719320081E-3
3.424474855E1,7.482878864E-3,1.664558798E-2,-7.330167107E-3
3.425389850E1,7.024743594E-3,-1.374406274E-3,-6.719320081E-3
3.426304850E1,1.068982761E-3,-1.710372418E-2,-4.275931045E-3
3.427219850E1,1.068982761E-3,-2.977880463E-2,-6.108472589E-3
3.428134850E1,2.443389036E-3,-3.756710514E-2,-6.719320081E-3
3.429049850E1,1.832541777E-3,-4.123219103E-2,-7.330167107E-3
3.429964850E1,6.108472589E-3,-3.878879920E-2,-5.497625098E-3
3.430879850E1,9.773556143E-3,-2.916795574E-2,-6.108472589E-4
3.431794850E1,9.620844387E-3,-1.832541823E-2,3.054236295E-3
3.432709850E1,9.468132630E-3,-4.428642802E-3,4.275931045E-3
3.433624844E1,3.359660041E-3,-1.985253533E-3,4.886778072E-3
3.434539844E1,3.359660041E-3,-5.039489828E-3,4.886778072E-3
3.435454844E1,6.413896102E-3,-5.039489828E-3,4.275931045E-3
3.436369844E1,1.007897966E-2,-3.817795310E-3,4.275931045E-3
3.437284844E1,1.191152167E-2,-6.261184346E-3,3.054236295E-3
3.438199844E1,1.267508045E-2,-9.926267900E-3,3.054236295E-3
3.439114844E1,9.009997360E-3,-1.404948719E-2,4.275931045E-3
3.440029844E1,2.901524538E-3,-2.137965336E-2,3.665083554E-3
3.440944844E1,1.679830020E-3,-3.038965166E-2,2.443389036E-3
3.441859844E1,2.901524538E-3,-2.855710872E-2,-1.832541777E-3
3.442774839E1,4.123218823E-3,-2.260134928E-2,-7.330167107E-3
3.443689839E1,6.566607859E-3,-1.236965694E-2,-5.497625098E-3
3.444604839E1,1.007897966E-2,-3.206948051E-3,-2.443389036E-3
3.445519839E1,1.191152167E-2,-3.054236295E-4,-0.000000000E0
3.446434839E1,6.413896102E-3,-2.596100792E-3,-6.108472589E-4
3.447349839E1,-2.748812549E-3,-8.704573847E-3,-3.817795310E-3
3.448264839E1,-1.191152167E-2,-1.603474095E-2,-4.428642802E-3
3.449179839E1,-1.007897966E-2,-2.137965336E-2,-5.039489828E-3
3.450094839E1,-7.024743594E-3,-2.137965336E-2,-7.482878864E-3
3.451009834E1,-6.872031838E-3,-2.687728032E-2,-6.261184346E-3
3.451924834E1,-7.482878864E-3,-2.794626169E-2,-3.817795310E-3
3.452839834E1,-8.246437646E-3,-2.321219631E-2,-5.650337320E-3
3.453754834E1,-8.246437646E-3,-1.404948719E-2,-5.039489828E-3
3.454669834E1,-9.009997360E-3,3.054236295E-4,-4.428642802E-3
3.455584834E1,-9.162709117E-3,1.664558798E-2,-5.039489828E-3
3.456499834E1,-3.665083554E-3,2.993151546E-2,-5.650337320E-3
3.457414834E1,2.443389036E-3,3.710897267E-2,-5.039489828E-3
3.458329834E1,2.443389036E-3,3.222219273E-2,-6.719320081E-3
3.459244834E1,6.261184346E-3,2.687728032E-2,-7.330167107E-3
3.460159829E1,6.261184346E-3,1.664558798E-2,-9.162709117E-3
3.461074829E1,2.596100792E-3,7.024743594E-3,-6.108472589E-3
3.461989829E1,-2.901524538E-3,2.137965523E-3,-2.596100792E-3
3.462904829E1,-9.009997360E-3,5.192201585E-3,-3.206948051E-3
3.463819829E1,-1.099525020E-2,8.704573847E-3,-5.039489828E-3
3.464734829E1,-1.038440317E-2,9.926267900E-3,-3.817795310E-3
3.465649829E1,-9.773556143E-3,8.093725890E-3,-3.206948051E-3
3.466564829E1,-6.566607859E-3,5.192201585E-3,-5.039489828E-3
3.467479829E1,-1.679830020E-3,1.527118147E-3,-2.596100792E-3
3.468394824E1,3.359660041E-3,-3.206948051E-3,-1.832541777E-3
3.469309824E1,2.137965523E-3,-1.053711493E-2,-1.221694518E-3
3.470224824E1,3.054236295E-4,-1.527118124E-2,-6.108472589E-4
3.471139824E1,1.068982761E-3,-1.649287529E-2,-3.054236295E-3
3.472054824E1,3.054236295E-4,-1.481304597E-2,-6.108472589E-3
3.472969824E1,-5.192201585E-3,-1.114796288E-2,-9.926267900E-3
3.473884824E1,-1.267508045E-2,-5.192201585E-3,-1.175880991E-2
3.474799824E1,-1.572931744E-2,5.039489828E-3,-1.481304597E-2
3.475714824E1,-1.588202827E-2,1.175880991E-2,-1.298050396E-2
3.476629824E1,-1.282779220E-2,1.771457121E-2,-1.175880991E-2
3.477544824E1,-7.330167107E-3,1.481304597E-2,-8.704573847E-3
3.478459824E1,-3.512371797E-3,1.298050396E-2,-3.817795310E-3
3.479374818E1,1.527118147E-4,8.704573847E-3,6.108472589E-4
3.480289818E1,7.635590737E-4,3.054236295E-4,1.221694518E-3
3.481204818E1,5.803049076E-3,-9.315420873E-3,-1.221694518E-3
3.482119818E1,8.399149403E-3,-1.588202827E-2,-1.221694518E-3
3.483034818E1,5.344913341E-3,-1.832541823E-2,-2.443389036E-3
3.483949818E1,3.054236295E-4,-1.649287529E-2,-5.497625098E-3
3.484864818E1,-3.970507067E-3,-1.771457121E-2,-9.315420873E-3
3.485779818E1,-1.007897966E-2,-2.015795931E-2,-1.420219894E-2
3.486694818E1,-2.229592577E-2,-1.847812906E-2,-2.092151903E-2
3.487609818E1,-2.672456764E-2,-1.236965694E-2,-2.412846684E-2
3.488524813E1,-2.611372061E-2,-8.857285604E-3,-2.412846684E-2
3.489439813E1,-1.878355257E-2,-2.748812549E-3,-2.275406010E-2
3.490354813E1,-1.267508045E-2,-9.162708884E-4,-1.969982497E-2
3.491269813E1,-9.620844387E-3,-2.137965523E-3,-1.603474095E-2
3.492184813E1,-7.024743594E-3,-6.413896102E-3,-1.114796288E-2
3.493099813E1,-9.009997360E-3,-5.803049076E-3,-6.872031838E-3
3.494014813E1,-7.177455351E-3,-2.137965523E-3,-4.428642802E-3
3.494929813E1,-3.512371797E-3,2.137965523E-3,-3.206948051E-3
3.495844813E1,-3.512371797E-3,-1.527118147E-3,-3.206948051E-3
3.496759813E1,-8.399149403E-3,-3.054236295E-4,-5.039489828E-3
3.497674813E1,-1.267508045E-2,3.970507067E-3,-7.482878864E-3
3.498589808E1,-1.649287529E-2,8.704573847E-3,-8.704573847E-3
3.499504808E1,-2.137965336E-2,1.236965694E-2,-1.175880991E-2
3.500419808E1,-2.199050039E-2,1.114796288E-2,-1.542389300E-2
3.501334808E1,-1.954711229E-2,5.650337320E-3,-1.420219894E-2
3.502249808E1,-1.450762246E-2,-3.054236295E-4,-1.053711493E-2
3.503164808E1,-9.468132630E-3,-6.872031838E-3,-7.482878864E-3
3.504079808E1,-2.137965523E-3,-1.359135192E-2,-3.817795310E-3
3.504994808E1,2.137965523E-3,-1.588202827E-2,-2.443389036E-3
3.505909808E1,2.137965523E-3,-1.282779220E-2,-2.443389036E-3
3.506824808E1,-3.054236295E-4,-5.650337320E-3,-4.886778072E-3
3.507739808E1,-2.290677279E-3,1.527118147E-3,-7.482878864E-3
3.508654803E1,-2.901524538E-3,4.581354558E-3,-1.053711493E-2
3.509569803E1,-5.955760833E-3,6.261184346E-3,-1.114796288E-2
3.510484803E1,-1.084253844E-2,6.872031838E-3,-8.093725890E-3
3.511399803E1,-2.260134928E-2,1.175880991E-2,-5.803049076E-3
3.512314803E1,-2.702999115E-2,1.588202827E-2,-6.413896102E-3
3.513229803E1,-2.199050039E-2,1.420219894E-2,-7.024743594E-3
3.514144803E1,-1.221694518E-2,8.704573847E-3,-6.261184346E-3
3.515059803E1,-2.290677279E-3,8.704573847E-3,-5.039489828E-3
3.515974803E1,3.206948051E-3,1.603474095E-2,-5.497625098E-3
3.516889803E1,6.261184346E-3,2.015795931E-2,-6.108472589E-3
3.517804803E1,8.704573847E-3,2.031067200E-2,-3.054236295E-3
3.518719803E1,6.261184346E-3,1.786728203E-2,1.221694518E-3
3.519634803E1,-3.665083554E-3,1.908897609E-2,4.734066315E-3
3.520549798E1,-1.603474095E-2,1.908897609E-2,4.734066315E-3
3.521464798E1,-1.969982497E-2,2.137965336E-2,3.512371797E-3
3.522379798E1,-1.481304597E-2,2.076880634E-2,4.581354442E-4
3.523294798E1,-4.275931045E-3,1.786728203E-2,-7.635590737E-4
3.524209798E1,3.206948051E-3,1.114796288E-2,-1.832541777E-3
3.525124798E1,1.985253533E-3,5.192201585E-3,-3.054236295E-3
3.526039798E1,-2.901524538E-3,9.162708884E-4,-4.428642802E-3
3.526954798E1,-9.620844387E-3,3.970507067E-3,-3.206948051E-3
3.527869798E1,-1.145338640E-2,3.970507067E-3,-3.817795310E-3
3.528784798E1,-9.620844387E-3,9.162708884E-4,-3.206948051E-3
3.529699798E1,-3.970507067E-3,-5.650337320E-3,-1.985253533E-3
3.530614798E1,-2.748812549E-3,-1.466033421E-2,-1.221694518E-3
3.531529792E1,-5.192201585E-3,-2.382304333E-2,1.068982761E-3
3.532444792E1,-6.261184346E-3,-2.977880463E-2,1.068982761E-3
3.533359792E1,-6.872031838E-3,-3.405473381E-2,1.068982761E-3
3.534274792E1,-9.315420873E-3,-3.100049868E-2,-1.527118147E-4
3.535189792E1,-1.130067464E-2,-2.733541466E-2,1.679830020E-3
3.536104792E1,-1.389677543E-2,-1.527118124E-2,4.581354442E-4
3.537019792E1,-9.009997360E-3,-8.704573847E-3,-1.374406274E-3
3.537934792E1,-2.137965523E-3,-5.650337320E-3,-3.817795310E-3
3.538849792E1,-9.162708884E-4,-2.137965523E-3,-5.497625098E-3
3.539764792E1,-2.290677279E-3,2.748812549E-3,-6.261184346E-3
3.540679792E1,-7.788302377E-3,8.704573847E-3,-6.872031838E-3
3.541594792E1,-1.221694518E-2,1.603474095E-2,-1.053711493E-2
3.542509787E1,-1.099525020E-2,2.260134928E-2,-1.298050396E-2
3.543424787E1,-9.162709117E-3,2.015795931E-2,-1.359135192E-2
3.544339787E1,-1.038440317E-2,1.466033421E-2,-1.298050396E-2
3.545254787E1,-1.527118124E-2,1.053711493E-2,-1.236965694E-2
3.546169787E1,-1.771457121E-2,9.926267900E-3,-1.175880991E-2
3.547084787E1,-1.588202827E-2,9.315420873E-3,-1.053711493E-2
3.547999787E1,-1.649287529E-2,5.650337320E-3,-8.093725890E-3
3.548914787E1,-1.756185852E-2,-3.054236295E-4,-6.261184346E-3
