"Time (s)","Gyroscope x (rad/s)","Gyroscope y (rad/s)","Gyroscope z (rad/s)"
6.763016117E0,3.054236295E-3,-4.734066129E-2,3.817795310E-3
6.772168357E0,-1.221694518E-3,-5.161659420E-2,1.527118147E-4
6.781320596E0,-5.497625098E-3,-5.573981255E-2,-5.955760833E-3
6.790472888E0,-1.679830020E-3,-5.222744122E-2,-1.023169141E-2
6.799625127E0,1.298050396E-2,-4.795150831E-2,-1.007897966E-2
6.808777367E0,2.229592577E-2,-4.856235534E-2,-1.130067464E-2
6.817929607E0,1.618745178E-2,-5.451811850E-2,-1.191152167E-2
6.827081846E0,1.374406274E-3,-6.306997687E-2,-1.191152167E-2
6.836234086E0,-9.009997360E-3,-6.306997687E-2,-7.788302377E-3
6.845386325E0,-7.941014133E-3,-5.879404768E-2,-7.788302377E-3
6.854538565E0,-4.123218823E-3,-6.245913357E-2,-5.344913341E-3
6.863690805E0,-3.512371797E-3,-7.207997888E-2,-3.512371797E-3
6.872843096E0,-5.955760833E-3,-7.085828483E-2,-2.290677279E-3
6.881995336E0,-1.084253844E-2,-6.719319522E-2,-5.955760833E-3
6.891147575E0,-1.206423342E-2,-6.673506647E-2,-7.177455351E-3
6.900299815E0,-4.123218823E-3,-6.536065787E-2,-6.566607859E-3
6.909452055E0,3.817795310E-3,-5.940489471E-2,-5.955760833E-3
6.918604294E0,3.817795310E-3,-5.146388337E-2,-6.566607859E-3
6.927756534E0,-4.886778072E-3,-4.260659590E-2,-9.009997360E-3
6.936908773E0,-1.725643501E-2,-4.077405483E-2,-1.267508045E-2
6.946061013E0,-2.519745007E-2,-4.138490185E-2,-1.282779220E-2
6.955213305E0,-2.214321308E-2,-4.734066129E-2,-1.160609815E-2
6.964365544E0,-1.221694518E-2,-5.100574717E-2,-9.009997360E-3
6.973517784E0,7.635590737E-4,-5.451811850E-2,-6.566607859E-3
6.982670023E0,6.872031838E-3,-5.268557742E-2,-1.527118147E-3
6.991822263E0,3.054236295E-3,-4.611896724E-2,3.206948051E-3
7.000974502E0,-6.872031838E-3,-4.062134400E-2,2.596100792E-3
7.010126742E0,-1.374406368E-2,-3.283303976E-2,3.206948051E-3
7.019279034E0,-1.252236869E-2,-2.870982140E-2,2.596100792E-3
7.028431273E0,-5.803049076E-3,-2.504473738E-2,1.374406274E-3
7.037583513E0,4.123218823E-3,-2.687728032E-2,1.985253533E-3
7.046735752E0,1.038440317E-2,-3.222219273E-2,4.581354558E-3
7.055887992E0,1.221694518E-2,-3.939964995E-2,3.970507067E-3
7.065040232E0,1.420219894E-2,-4.672981426E-2,4.581354558E-3
7.074192471E0,1.542389300E-2,-5.390727147E-2,3.359660041E-3
7.083344711E0,1.679829881E-2,-6.780404598E-2,5.192201585E-3
7.092496950E0,1.817270555E-2,-7.681404054E-2,8.246437646E-3
7.101649242E0,1.695101149E-2,-8.093725890E-2,1.252236869E-2
7.110801482E0,1.740914769E-2,-7.192726433E-2,1.557660475E-2
7.119953721E0,1.481304597E-2,-5.741964281E-2,1.496575773E-2
7.129105961E0,1.236965694E-2,-4.840964451E-2,1.252236869E-2
7.138258200E0,9.162709117E-3,-3.817795217E-2,9.468132630E-3
7.147410440E0,6.566607859E-3,-3.222219273E-2,5.039489828E-3
7.156562680E0,6.566607859E-3,-2.977880463E-2,1.374406274E-3
7.165714971E0,7.330167107E-3,-3.161134571E-2,-1.527118147E-3
7.174867211E0,6.108472589E-3,-4.016320780E-2,-4.581354558E-3
7.184019450E0,7.330167107E-3,-4.550812021E-2,-4.581354558E-3
7.193171690E0,8.704573847E-3,-4.672981426E-2,-2.137965523E-3
7.202323930E0,4.886778072E-3,-4.856235534E-2,1.985253533E-3
7.211476169E0,1.221694518E-3,-5.085303262E-2,5.650337320E-3
7.220628409E0,6.108472589E-3,-4.550812021E-2,8.857285604E-3
7.229780700E0,1.527118124E-2,-3.634541109E-2,1.313321572E-2
7.238932940E0,2.321219631E-2,-3.100049868E-2,1.191152167E-2
7.248085180E0,2.260134928E-2,-3.100049868E-2,9.468132630E-3
7.257237419E0,1.954711229E-2,-2.794626169E-2,6.413896102E-3
7.266389659E0,2.199050039E-2,-2.260134928E-2,3.359660041E-3
7.275541898E0,2.993151546E-2,-1.893626526E-2,2.290677279E-3
7.284694138E0,3.313846514E-2,-3.268032894E-2,4.734066315E-3
7.293846377E0,2.733541466E-2,-6.230641901E-2,6.566607859E-3
7.302998669E0,1.389677543E-2,-8.872556686E-2,1.007897966E-2
7.312150909E0,-7.635590620E-3,-9.300149232E-2,1.359135192E-2
7.321303148E0,-2.809897438E-2,-8.170082420E-2,1.710372418E-2
7.330455388E0,-3.863608837E-2,-7.559234649E-2,2.321219631E-2
7.339607627E0,-3.252761811E-2,-7.314895838E-2,2.443389036E-2
7.348759867E0,-1.527118124E-2,-6.780404598E-2,2.214321308E-2
7.357912159E0,-7.941014133E-3,-5.390727147E-2,1.969982497E-2
7.367064398E0,-9.468132630E-3,-3.038965166E-2,1.542389300E-2
7.376216638E0,-8.399149403E-3,1.527118147E-3,9.315420873E-3
7.385368877E0,-5.039489828E-3,2.977880463E-2,-4.123218823E-3
7.394521117E0,-1.374406274E-3,4.245388508E-2,-1.878355257E-2
7.403673357E0,6.566607859E-3,5.268557742E-2,-2.611372061E-2
7.412825648E0,2.428117767E-2,7.131642103E-2,-2.779355086E-2
7.421977888E0,4.214845970E-2,9.132166207E-2,-2.825168520E-2
7.431130127E0,4.749337584E-2,1.154501289E-1,-2.458660305E-2
7.440282367E0,4.474456236E-2,1.437018216E-1,-1.847812906E-2
7.449434607E0,2.962609194E-2,1.659977436E-1,-1.068982668E-2
7.458586846E0,1.221694518E-2,1.737860441E-1,-5.344913341E-3
7.467739086E0,1.236965694E-2,1.678302884E-1,-1.068982761E-3
7.476891377E0,3.466558084E-2,1.528645307E-1,4.581354558E-3
7.486043617E0,7.421794534E-2,1.360662282E-1,8.551862091E-3
7.495195857E0,1.064401343E-1,1.174353883E-1,7.024743594E-3
7.504348096E0,1.116323397E-1,9.208522737E-2,7.635590620E-3
7.513500336E0,9.269607067E-2,6.322269142E-2,1.053711493E-2
7.522652575E0,6.337540597E-2,3.237490356E-2,1.038440317E-2
7.531804867E0,3.833066672E-2,2.901524538E-3,9.009997360E-3
7.540957107E0,2.626643144E-2,-1.649287529E-2,7.024743594E-3
7.550109346E0,3.054236248E-2,-1.527118124E-2,7.177455351E-3
7.559261586E0,4.275930673E-2,-3.817795310E-3,7.177455351E-3
7.568413825E0,4.749337584E-2,1.725643501E-2,4.734066315E-3
7.577566065E0,4.230117425E-2,5.039490014E-2,1.068982761E-3
7.586718357E0,3.268032894E-2,8.887827396E-2,-2.137965523E-3
7.595870596E0,2.015795931E-2,1.160609797E-1,-8.857285604E-3
7.605022836E0,1.954711229E-2,1.236965731E-1,-1.695101149E-2
7.614175075E0,3.191677108E-2,1.165191159E-1,-2.107422985E-2
7.623327315E0,4.810422286E-2,1.081199646E-1,-2.275406010E-2
7.632479555E0,5.497625470E-2,9.788827598E-2,-2.275406010E-2
7.641631846E0,4.886778072E-2,9.071081877E-2,-2.092151903E-2
7.650784086E0,3.710897267E-2,8.460234851E-2,-1.603474095E-2
7.659936325E0,2.367033064E-2,7.314895838E-2,-1.252236869E-2
7.669088565E0,1.893626526E-2,5.390727147E-2,-1.068982668E-2
7.678240805E0,2.657185495E-2,2.932066843E-2,-1.068982668E-2
7.687393096E0,4.459185153E-2,1.236965694E-2,-1.114796288E-2
7.696545336E0,6.688777357E-2,-1.985253533E-3,-1.038440317E-2
7.705697575E0,8.735115826E-2,-1.343864016E-2,-1.084253844E-2
7.714849815E0,9.162709117E-2,-2.015795931E-2,-9.620844387E-3
7.724002055E0,8.124268800E-2,-2.199050039E-2,-9.009997360E-3
7.733154294E0,6.765133142E-2,-2.916795574E-2,-1.099525020E-2
7.742306586E0,5.421269313E-2,-4.123219103E-2,-1.343864016E-2
7.751458825E0,4.382828996E-2,-4.856235534E-2,-1.603474095E-2
7.760611065E0,4.443913698E-2,-4.734066129E-2,-1.786728203E-2
7.769763305E0,4.932591692E-2,-3.588727489E-2,-1.954711229E-2
7.778915596E0,6.154286116E-2,-2.015795931E-2,-1.954711229E-2
7.788067836E0,6.688777357E-2,-7.482878864E-3,-2.321219631E-2
7.797220075E0,6.383354217E-2,-6.413896102E-3,-2.748812735E-2
7.806372315E0,5.894676223E-2,-1.007897966E-2,-3.359659761E-2
7.815524555E0,6.016845629E-2,-8.857285604E-3,-3.787253052E-2
7.824676794E0,6.398624927E-2,-9.468132630E-3,-4.153761268E-2
7.833829086E0,6.520794332E-2,-9.468132630E-3,-4.581354558E-2
7.842981325E0,6.337540597E-2,-6.413896102E-3,-4.947862774E-2
7.852133565E0,6.444438547E-2,1.527118147E-4,-5.070032179E-2
7.861285805E0,7.070557028E-2,1.985253533E-3,-5.070032179E-2
7.870438044E0,8.185353130E-2,7.635590737E-4,-5.054761097E-2
7.879590336E0,9.666658193E-2,-3.359660041E-3,-5.161659420E-2
7.888742575E0,1.139230132E-1,-1.236965694E-2,-5.207473040E-2
7.897894815E0,1.282779276E-1,-2.321219631E-2,-5.207473040E-2
7.907047055E0,1.475196183E-1,-3.817795217E-2,-5.192201585E-2
7.916199294E0,1.759240031E-1,-5.375456065E-2,-4.734066129E-2
7.925351586E0,2.079934925E-1,-6.032116711E-2,-3.741439432E-2
7.934503825E0,2.412846684E-1,-5.848862603E-2,-2.550287358E-2
7.943656065E0,2.736595869E-1,-4.627167806E-2,-1.130067464E-2
7.952808305E0,3.005368412E-1,-2.626643144E-2,1.068982761E-3
7.961960544E0,3.232909143E-1,-1.175880991E-2,1.649287529E-2
7.971112836E0,3.416163325E-1,-3.817795310E-3,3.497100621E-2
7.980265075E0,3.542914093E-1,6.566607859E-3,5.757235363E-2
7.989417315E0,3.646758199E-1,1.863084175E-2,7.543963939E-2
7.998569555E0,3.817795515E-1,2.412846684E-2,9.452861547E-2
8.007721846E0,4.089622498E-1,1.771457121E-2,1.154501289E-1
8.016874086E0,4.508052766E-1,2.748812549E-3,1.420219839E-1
8.026026325E0,5.063923597E-1,-1.801999472E-2,1.820324808E-1
8.035178565E0,5.790832043E-1,-4.489727318E-2,2.331909388E-1
8.044330805E0,6.659762263E-1,-5.955760926E-2,2.845021188E-1
8.053483096E0,7.620319724E-1,-7.192726433E-2,3.335226178E-1
8.062635336E0,8.667922616E-1,-9.559759498E-2,3.825430870E-1
8.071787575E0,9.773555994E-1,-1.453816444E-1,4.340069890E-1
8.080939815E0,1.095401883E0,-2.195995897E-1,4.953971207E-1
8.090092055E0,1.218640327E0,-3.167243004E-1,5.696150661E-1
8.099244346E0,1.338824511E0,-4.150707126E-1,6.481089592E-1
8.108396586E0,1.442821264E0,-4.953971207E-1,7.221741676E-1
8.117548825E0,1.518718958E0,-5.402944088E-1,7.802046537E-1
8.126701065E0,1.555675268E0,-5.526640415E-1,8.231166601E-1
8.135853357E0,1.564837933E0,-5.566345453E-1,8.556442857E-1
8.145005596E0,1.561630964E0,-5.548020005E-1,8.733588457E-1
8.154157836E0,1.554606318E0,-5.325061083E-1,8.732061386E-1
8.163310075E0,1.534906507E0,-5.302154422E-1,8.614473343E-1
8.172462367E0,1.500851750E0,-5.827482939E-1,8.521319032E-1
8.181614607E0,1.462215662E0,-6.678087711E-1,8.444963098E-1
8.190766846E0,1.433658481E0,-7.805100679E-1,8.402203918E-1
8.199919086E0,1.421136141E0,-8.806890249E-1,8.225058317E-1
8.209071325E0,1.428313613E0,-9.193251133E-1,7.779139876E-1
8.218223617E0,1.465269804E0,-8.900044560E-1,7.293516397E-1
8.227375857E0,1.522842169E0,-8.290724158E-1,7.009472251E-1
8.236528096E0,1.574306130E0,-7.278245091E-1,7.049177289E-1
8.245680336E0,1.588050127E0,-6.227588058E-1,7.360709310E-1
8.254832627E0,1.541320324E0,-5.853443742E-1,7.779139876E-1
8.263984867E0,1.443432093E0,-6.076403260E-1,8.115105629E-1
8.273137107E0,1.333479524E0,-6.464291215E-1,8.156337738E-1
8.282289346E0,1.243685007E0,-6.694886088E-1,8.003626466E-1
8.291441638E0,1.172368646E0,-6.710157394E-1,7.557707429E-1
8.300593877E0,1.118461370E0,-6.899519563E-1,7.157602906E-1
8.309746117E0,1.069746256E0,-7.371399403E-1,6.904101372E-1
8.318898357E0,1.026834249E0,-7.721109390E-1,6.846070886E-1
8.328050648E0,1.001636744E0,-7.776085734E-1,6.868977547E-1
8.337202888E0,9.856020808E-1,-7.728744745E-1,6.875085831E-1
8.346355127E0,9.654440880E-1,-7.951704264E-1,6.879667044E-1
8.355507367E0,9.324583411E-1,-8.289197087E-1,6.760551929E-1
8.364659659E0,9.000834227E-1,-8.519791961E-1,6.587987542E-1
8.373811898E0,8.741224408E-1,-8.382351398E-1,6.219952106E-1
8.382964138E0,8.473978639E-1,-7.812736630E-1,5.716003180E-1
8.392116377E0,8.186880350E-1,-7.069029808E-1,5.176930428E-1
8.401268669E0,7.853968740E-1,-6.166502833E-1,4.605788291E-1
8.410420909E0,7.605048418E-1,-5.662553906E-1,4.187358022E-1
8.419573148E0,7.469134927E-1,-5.525113344E-1,3.880407214E-1
8.428725388E0,7.371399403E-1,-5.479300022E-1,3.623851240E-1
8.437877680E0,7.266027927E-1,-5.317425132E-1,3.371876776E-1
8.447029919E0,7.148439884E-1,-5.149442554E-1,3.170297146E-1
8.456182159E0,6.975875497E-1,-5.018110275E-1,2.930539846E-1
8.465334398E0,6.789567471E-1,-4.755446017E-1,2.635805905E-1
8.474486690E0,6.626165509E-1,-4.321744442E-1,2.298312783E-1
8.483638930E0,6.444438696E-1,-3.762819171E-1,1.973036677E-1
8.492791169E0,6.244385839E-1,-3.300102353E-1,1.714953631E-1
8.501943409E0,6.051968932E-1,-3.103103936E-1,1.481304616E-1
8.511095700E0,5.822901726E-1,-2.916795611E-1,1.320957243E-1
8.520247940E0,5.557183027E-1,-2.701472044E-1,1.197260618E-1
8.529400180E0,5.247178078E-1,-2.455606014E-1,1.116323397E-1
8.538552419E0,4.894413650E-1,-2.160872221E-1,9.666658193E-2
8.547704711E0,4.566083252E-1,-2.011214644E-1,6.887302548E-2
8.556856950E0,4.147652984E-1,-1.916533262E-1,3.863608837E-2
8.566009190E0,3.662029207E-1,-1.991362125E-1,1.328592747E-2
8.575161430E0,3.184041381E-1,-2.154763639E-1,-2.901524538E-3
8.584313721E0,2.777827978E-1,-2.197522968E-1,-9.926267900E-3
8.593465961E0,2.493783981E-1,-2.192941606E-1,-1.496575773E-2
8.602618200E0,2.290677279E-1,-2.254026383E-1,-1.756185852E-2
8.611770492E0,2.063136548E-1,-2.254026383E-1,-2.199050039E-2
8.620922732E0,1.748550236E-1,-2.231119573E-1,-2.275406010E-2
8.630074971E0,1.346918195E-1,-2.086043358E-1,-2.672456764E-2
8.639227211E0,9.681928903E-2,-1.774511337E-1,-3.252761811E-2
8.648379502E0,6.627693027E-2,-1.287360638E-1,-3.222219273E-2
8.657531742E0,3.924693540E-2,-7.391251624E-2,-2.397575416E-2
8.666683982E0,2.580829710E-2,-3.100049868E-2,-1.374406368E-2
8.675836221E0,2.382304333E-2,-1.420219894E-2,-2.137965523E-3
8.684988513E0,2.565558441E-2,-1.527118124E-2,5.803049076E-3
8.694140752E0,2.687728032E-2,-2.015795931E-2,1.740914769E-2
8.703292992E0,2.367033064E-2,-1.832541823E-2,2.168507688E-2
8.712445284E0,2.183778957E-2,-1.099525020E-2,2.901524492E-2
8.721597523E0,1.679829881E-2,-6.108472589E-3,3.573456407E-2
8.730749763E0,9.926267900E-3,-1.527118147E-4,4.291202128E-2
8.739902002E0,-3.054236295E-3,-7.635590737E-4,4.657710344E-2
8.749054294E0,-1.664558798E-2,-1.527118147E-4,4.275930673E-2
8.758206534E0,-2.825168520E-2,-2.596100792E-3,4.031591862E-2
8.767358773E0,-3.802524135E-2,-1.466033421E-2,3.771981969E-2
8.776511065E0,-4.642439261E-2,-3.817795217E-2,3.710897267E-2
8.785663305E0,-5.741964281E-2,-5.925218388E-2,3.405473381E-2
8.794815544E0,-8.002099395E-2,-7.498150319E-2,3.390202299E-2
8.803967784E0,-1.131594554E-1,-8.108997345E-2,3.237490356E-2
8.813120075E0,-1.527118087E-1,-7.513421029E-2,2.794626169E-2
8.822272315E0,-1.965401024E-1,-6.077930331E-2,2.275406010E-2
8.831424555E0,-2.466295809E-1,-4.107947648E-2,1.191152167E-2
8.840576846E0,-3.016058207E-1,-2.305948362E-2,4.581354442E-4
8.849729086E0,-3.582619131E-1,-1.603474095E-2,-1.023169141E-2
8.858881325E0,-4.185830951E-1,-2.458660305E-2,-2.168507688E-2
8.868033617E0,-4.805840850E-1,-4.932591692E-2,-3.374931216E-2
8.877185857E0,-5.395308137E-1,-7.360709459E-2,-3.710897267E-2
8.886338096E0,-5.960342288E-1,-9.956810623E-2,-3.634541109E-2
8.895490336E0,-6.432221532E-1,-1.340809762E-1,-4.031591862E-2
8.904642627E0,-6.817055345E-1,-1.672194302E-1,-4.596625641E-2
8.913794867E0,-7.214106321E-1,-1.974563748E-1,-5.787777901E-2
8.922947107E0,-7.722636461E-1,-2.290677279E-1,-8.444963396E-2
8.932099398E0,-8.189934492E-1,-2.786990702E-1,-1.299577504E-1
8.941251638E0,-8.286142945E-1,-2.939702570E-1,-1.806580722E-1
8.950403877E0,-7.890619636E-1,-2.084516287E-1,-2.104368806E-1
8.959556169E0,-6.713211536E-1,-8.047912270E-2,-2.096733153E-1
8.968708409E0,-5.170822144E-1,-1.036913246E-1,-1.896680743E-1
8.977860648E0,-4.184303582E-1,-3.257342875E-1,-1.582094431E-1
8.987012940E0,-3.903313875E-1,-5.256340504E-1,-1.163664013E-1
8.996165180E0,-3.752129376E-1,-5.144860744E-1,-6.810946763E-2
9.005317419E0,-3.268032968E-1,-3.081724346E-1,-3.054236295E-3
9.014469659E0,-2.980934680E-1,-5.054761097E-2,8.979454637E-2
9.023621950E0,-3.758237660E-1,7.085828483E-2,1.586675793E-1
9.032774190E0,-5.288410187E-1,1.585148573E-1,1.459924877E-1
9.041913721E0,-6.966713071E-1,3.413109183E-1,9.391776472E-2
9.051078721E0,-7.960866690E-1,5.318952799E-1,5.222744122E-2
9.060230961E0,-8.438854814E-1,6.517740488E-1,2.305948362E-2
9.069370440E0,-9.353598356E-1,6.960604787E-1,1.068982761E-3
9.078535492E0,-1.035996914E0,6.398624778E-1,-3.970507067E-3
9.087687732E0,-9.739959836E-1,5.482354164E-1,-2.550287358E-2
9.096827211E0,-7.820371985E-1,4.645493329E-1,-6.734590977E-2
9.105992263E0,-6.543701291E-1,3.978142738E-1,-8.842013776E-2
9.115144502E0,-6.557445526E-1,3.345915973E-1,-7.681404054E-2
9.124283982E0,-6.658235192E-1,1.907370538E-1,-2.412846684E-2
9.133449034E0,-6.209262609E-1,3.863608837E-2,2.443389036E-2
9.142601273E0,-5.086830258E-1,-4.550812021E-2,4.917320609E-2
9.151740752E0,-3.694098890E-1,-4.352286831E-2,5.497625470E-2
9.160905805E0,-2.687727809E-1,1.595838517E-1,1.160609815E-2
9.170058044E0,-2.119639963E-1,3.944546282E-1,-6.688777357E-2
9.179210284E0,-1.889045089E-1,4.903576374E-1,-1.791309565E-1
9.188362523E0,-1.493521482E-1,5.943543911E-1,-2.907632887E-1
9.197514815E0,-1.267508119E-1,7.942541242E-1,-3.451287150E-1
9.206667055E0,-1.597365588E-1,9.802571535E-1,-3.741439581E-1
9.215819294E0,-1.985253543E-1,1.127165914E0,-4.025483429E-1
9.224971586E0,-2.359397560E-1,1.190235853E0,-4.248442650E-1
9.234123825E0,-2.927485406E-1,1.145491362E0,-4.491254389E-1
9.243276065E0,-3.483356535E-1,1.088682532E0,-4.543176591E-1
9.252428357E0,-3.889569938E-1,1.009883285E0,-4.314108789E-1
9.261580596E0,-4.190412164E-1,8.936695457E-1,-3.943018913E-1
9.270732836E0,-4.372139275E-1,7.823426127E-1,-3.552076817E-1
9.279885127E0,-4.602734149E-1,7.119424939E-1,-3.284831047E-1
9.289037367E0,-5.228852630E-1,6.846070886E-1,-3.289412558E-1
9.298189607E0,-6.137487888E-1,6.603258848E-1,-3.497100472E-1
9.307341898E0,-6.697940230E-1,6.016845703E-1,-3.713951409E-1
9.316494138E0,-7.119424939E-1,5.671716928E-1,-3.813214004E-1
9.325646377E0,-7.542436719E-1,5.416688323E-1,-3.962871730E-1
9.334798669E0,-7.724163532E-1,5.007420182E-1,-3.903313875E-1
9.343950909E0,-7.942541242E-1,5.344913602E-1,-3.917058110E-1
9.353103148E0,-8.275453448E-1,5.995466113E-1,-3.962871730E-1
9.362255440E0,-8.367080092E-1,6.591041684E-1,-3.933856487E-1
9.371407680E0,-8.339592218E-1,7.151494026E-1,-4.092676640E-1
9.380559971E0,-8.385405540E-1,7.493568659E-1,-4.385883212E-1
9.389712211E0,-8.545753360E-1,8.353336453E-1,-4.729484916E-1
9.398864450E0,-8.831323981E-1,9.503256083E-1,-4.934118688E-1
9.408016690E0,-8.883246183E-1,1.119683027E0,-5.179984570E-1
9.417168982E0,-8.325847983E-1,1.242463350E0,-5.476245880E-1
9.426321221E0,-7.440119386E-1,1.288276911E0,-5.861079693E-1
9.435473461E0,-7.090409398E-1,1.392426372E0,-6.329904795E-1
9.444625752E0,-7.151494026E-1,1.562700033E0,-6.991146803E-1
9.453765232E0,-7.072083950E-1,1.728850484E0,-7.504258752E-1
9.462930284E0,-6.681141853E-1,1.784895658E0,-7.519529462E-1
9.472082523E0,-6.346703172E-1,1.745801449E0,-7.261446714E-1
9.481234763E0,-5.948125124E-1,1.689908981E0,-7.191199064E-1
9.490387055E0,-5.288410187E-1,1.626686215E0,-7.368345261E-1
9.499539294E0,-5.471664071E-1,1.554300904E0,-7.663078904E-1
9.508691534E0,-6.720846891E-1,1.476112366E0,-8.061656952E-1
9.517843825E0,-7.634063363E-1,1.357760787E0,-8.244910836E-1
9.526996065E0,-7.588250041E-1,1.180156946E0,-7.944068313E-1
9.536148305E0,-6.662816405E-1,8.377770185E-1,-7.036960125E-1
9.545300596E0,-6.348230243E-1,4.506525695E-1,-6.232169271E-1
9.554452836E0,-6.916317940E-1,9.636115283E-2,-5.702258945E-1
9.563592367E0,-7.624900937E-1,-1.469087601E-1,-5.186093450E-1
9.572757367E0,-8.206732869E-1,-2.751866877E-1,-4.779879749E-1
9.581909607E0,-8.571714163E-1,-2.614426315E-1,-4.837910235E-1
9.591049138E0,-8.727480173E-1,-2.964136302E-1,-4.979932308E-1
9.600214138E0,-7.962393761E-1,-4.785988331E-1,-4.312581718E-1
9.609366377E0,-7.125533223E-1,-5.095993280E-1,-3.561239541E-1
9.618518669E0,-6.607840061E-1,-4.424061179E-1,-3.216110766E-1
9.627670909E0,-6.236750484E-1,-3.213056624E-1,-3.190149665E-1
9.636823148E0,-5.981721878E-1,-1.374406368E-1,-3.086305857E-1
9.645975440E0,-5.819846988E-1,2.183778957E-2,-2.750339806E-1
9.655127680E0,-5.829010010E-1,1.099525094E-1,-2.305948436E-1
9.664279919E0,-5.430431962E-1,1.789782494E-1,-1.698155403E-1
9.673419450E0,-4.124746025E-1,2.211267054E-1,-6.948387623E-2
9.682584450E0,-2.049392611E-1,1.594311297E-1,7.864658535E-2
9.691736742E0,5.787777901E-2,-7.788302377E-3,2.386885732E-1
9.700888982E0,3.377985358E-1,-2.260134816E-1,3.782671690E-1
9.710041221E0,5.986303091E-1,-4.191939235E-1,4.963133931E-1
9.719193513E0,8.232693672E-1,-4.986040890E-1,6.000047326E-1
9.728345752E0,1.014617324E0,-4.938700199E-1,6.734591126E-1
9.737498044E0,1.194817185E0,-4.807367921E-1,7.198835015E-1
9.746650284E0,1.400672793E0,-5.048652887E-1,7.805100679E-1
9.755789763E0,1.604084849E0,-6.264238358E-1,8.938222528E-1
9.764954815E0,1.787033677E0,-7.603521347E-1,1.068524599E0
9.774107055E0,1.969066143E0,-8.828269839E-1,1.278808713E0
9.783246586E0,2.063900232E0,-1.078603506E0,1.419456363E0
9.792411586E0,2.099940062E0,-1.354248405E0,1.487107635E0
9.801563825E0,2.136132956E0,-1.501767993E0,1.516122937E0
9.810716117E0,2.227454424E0,-1.373184681E0,1.525285602E0
9.819868357E0,2.321677685E0,-1.144727707E0,1.511083364E0
9.829020596E0,2.350540161E0,-9.109259844E-1,1.484817028E0
9.838172888E0,2.289150000E0,-7.327113152E-1,1.479472041E0
9.847325127E0,2.158734322E0,-6.667397618E-1,1.464353561E0
9.856477367E0,2.017475843E0,-7.194253802E-1,1.429840684E0
9.865629659E0,1.944326878E0,-8.457180262E-1,1.379445791E0
9.874781898E0,1.946464777E0,-9.978190064E-1,1.322026134E0
9.883934190E0,1.957001925E0,-1.127624035E0,1.258803487E0
9.893086430E0,1.946006656E0,-1.171910524E0,1.184890985E0
9.902238721E0,1.934858680E0,-1.122126460E0,1.105938911E0
9.911390961E0,1.941272616E0,-9.862129092E-1,1.052795291E0
9.920530440E0,1.970135093E0,-7.542436719E-1,1.024085402E0
9.929695492E0,1.952267885E0,-4.753918648E-1,1.019504070E0
9.938847732E0,1.850561738E0,-2.049392611E-1,1.036913276E0
9.947999971E0,1.726559758E0,-5.008947477E-2,1.054780483E0
9.957152263E0,1.646386027E0,2.092151903E-2,1.059667230E0
9.966304502E0,1.598739982E0,4.611896724E-2,1.046534061E0
9.975444034E0,1.545596242E0,1.267508045E-2,1.008356094E0
9.984609034E0,1.482068181E0,-9.009996802E-2,9.455915689E-1
9.993761273E0,1.422510505E0,-2.906105816E-1,8.703046441E-1
1.000290081E1,1.375780702E0,-4.674508572E-1,7.809682488E-1
1.001206580E1,1.338366389E0,-5.908420086E-1,6.897992492E-1
1.002121810E1,1.307213187E0,-6.647545099E-1,6.053496599E-1
1.003037034E1,1.279266834E0,-6.681141853E-1,5.410579443E-1
1.003952258E1,1.241088867E0,-7.146912813E-1,4.888305068E-1
1.004867487E1,1.194664478E0,-8.054021001E-1,4.353813827E-1
1.005782711E1,1.139993668E0,-8.852704167E-1,3.771981895E-1
1.006697940E1,1.082726717E0,-9.326110482E-1,3.199312389E-1
1.007613164E1,1.001789451E0,-8.948912621E-1,2.796153426E-1
1.008528388E1,9.072608948E-1,-7.776085734E-1,2.684673667E-1
1.009443617E1,8.188407421E-1,-6.722373962E-1,2.568612695E-1
1.010358841E1,7.350019813E-1,-6.001574397E-1,2.396048307E-1
1.011274070E1,6.447492838E-1,-5.534276366E-1,2.212794125E-1
1.012189294E1,5.363239050E-1,-4.837910235E-1,2.015796006E-1
1.013104518E1,4.101839364E-1,-3.701734245E-1,1.908897758E-1
1.014019747E1,2.745758295E-1,-2.238755226E-1,1.908897758E-1
1.014934971E1,1.214058921E-1,-5.665608495E-2,1.963873953E-1
1.015850200E1,-2.061609551E-2,4.627167806E-2,1.887518018E-1
1.016765424E1,-1.421747059E-1,6.642963737E-2,1.615691036E-1
1.017680653E1,-2.354816198E-1,3.771981969E-2,1.200314835E-1
1.018595877E1,-3.118375242E-1,-1.740914769E-2,7.070557028E-2
1.019511101E1,-3.851391971E-1,-6.413896382E-2,3.359659761E-2
1.020426331E1,-4.529432356E-1,-1.389677525E-1,1.908897609E-2
1.021341554E1,-5.338805318E-1,-2.403683960E-1,8.857285604E-3
1.022256784E1,-6.053496599E-1,-3.736858070E-1,-5.039489828E-3
1.023172008E1,-6.600204706E-1,-5.329642296E-1,-2.489202656E-2
1.024087237E1,-7.040014863E-1,-6.386408210E-1,-5.436540768E-2
1.025002461E1,-7.261446714E-1,-6.881194115E-1,-9.239064902E-2
1.025917685E1,-7.324058414E-1,-7.317950130E-1,-1.265980899E-1
1.026832914E1,-7.368345261E-1,-7.774558663E-1,-1.363716573E-1
1.027748138E1,-7.518002391E-1,-7.719582319E-1,-1.009425074E-1
1.028663367E1,-8.136485219E-1,-7.104153633E-1,-4.169032723E-2
1.029578591E1,-8.926005363E-1,-6.507050395E-1,-8.093725890E-3
1.030492544E1,-9.182561636E-1,-5.393781066E-1,-9.009997360E-3
1.031409044E1,-8.961129189E-1,-4.162923992E-1,1.924168877E-2
1.032324268E1,-9.553651214E-1,-2.985515893E-1,1.065928489E-1
1.033239497E1,-1.063790560E0,-1.310267299E-1,1.618745178E-1
1.034154721E1,-1.140146375E0,8.322793990E-2,1.270562261E-1
1.035069950E1,-1.170688748E0,2.420482337E-1,2.046338283E-2
1.035983898E1,-1.159693480E0,3.031329513E-1,-5.833591148E-2
1.036900398E1,-1.149767280E0,3.573456407E-1,-5.833591148E-2
1.037815627E1,-1.124875188E0,6.190937161E-1,-4.795150831E-2
1.038729575E1,-1.100135922E0,9.313893318E-1,-1.695101112E-1
1.039646080E1,-1.071426034E0,8.486195803E-1,-3.738385141E-1
1.040561304E1,-1.098456025E0,4.231644273E-1,-5.386145711E-1
1.041476534E1,-1.169467092E0,1.156028435E-1,-5.619794726E-1
1.042391758E1,-1.194053650E0,1.382041872E-1,-4.889832437E-1
1.043306982E1,-1.231468081E0,2.412846684E-1,-4.520269632E-1
1.044220935E1,-1.250404358E0,1.626380831E-1,-4.947862923E-1
1.045137435E1,-1.193595529E0,-2.015795931E-2,-5.706840754E-1
1.046052664E1,-1.102732062E0,-1.574458778E-1,-6.212316751E-1
1.046966612E1,-1.014770031E0,-1.375933439E-1,-6.316160560E-1
1.047883117E1,-9.226847887E-1,2.412846684E-2,-6.090146899E-1
1.048798341E1,-8.136485219E-1,2.199050188E-1,-5.363239050E-1
1.049713565E1,-7.186617851E-1,3.758237660E-1,-4.570664763E-1
1.050628794E1,-6.597150564E-1,5.187620521E-1,-4.201101959E-1
1.051544018E1,-6.551336646E-1,6.490252018E-1,-4.280512035E-1
1.052459247E1,-6.471926570E-1,7.351546884E-1,-4.543176591E-1
1.053374471E1,-6.345176101E-1,7.689039707E-1,-4.671454430E-1
1.054289700E1,-6.329904795E-1,7.406523228E-1,-4.665345848E-1
1.055203648E1,-6.216897964E-1,7.001836896E-1,-4.614951015E-1
1.056120148E1,-6.227588058E-1,6.952968836E-1,-4.779879749E-1
1.057035377E1,-6.505523324E-1,7.137750387E-1,-5.233433843E-1
1.057950601E1,-6.537593007E-1,6.864396334E-1,-5.722111464E-1
1.058865831E1,-6.325323582E-1,6.846070886E-1,-6.050441861E-1
1.059781054E1,-6.340594292E-1,6.662816405E-1,-6.392516494E-1
1.060696284E1,-6.401679516E-1,6.578825116E-1,-6.533011198E-1
1.061611508E1,-6.410841942E-1,6.832326651E-1,-6.288672686E-1
1.062526732E1,-6.441384554E-1,6.514685750E-1,-5.758762360E-1
1.063441961E1,-6.447492838E-1,6.180247068E-1,-5.154023767E-1
1.064357185E1,-6.442911625E-1,6.097782850E-1,-4.634803534E-1
1.065272414E1,-6.522321701E-1,6.629219651E-1,-4.475983381E-1
1.066187638E1,-6.560499668E-1,7.711946368E-1,-4.801259339E-1
1.067102867E1,-6.545228362E-1,8.927532434E-1,-5.186093450E-1
1.068018091E1,-6.591041684E-1,9.976662993E-1,-5.236487985E-1
1.068933315E1,-6.836907864E-1,1.130220175E0,-5.250232220E-1
1.069848544E1,-7.099572420E-1,1.241547108E0,-5.265503526E-1
1.070763768E1,-7.284353375E-1,1.383721709E0,-5.280774832E-1
1.071678997E1,-7.087355256E-1,1.591104388E0,-5.323534012E-1
1.072594221E1,-6.925480962E-1,1.714648247E0,-5.292991400E-1
1.073509450E1,-6.882721782E-1,1.782757759E0,-5.311316848E-1
1.074424674E1,-6.931589246E-1,1.858655453E0,-5.347967744E-1
1.075339903E1,-7.128587365E-1,1.927223086E0,-5.418215394E-1
1.076255127E1,-7.285880446E-1,1.966317296E0,-5.621321797E-1
1.077170351E1,-7.314895988E-1,1.966164589E0,-5.987830162E-1
1.078085580E1,-7.569924593E-1,1.946617484E0,-6.464291215E-1
1.079000804E1,-7.797465324E-1,1.881409526E0,-6.783458591E-1
1.079916034E1,-7.223268747E-1,1.808565974E0,-6.846070886E-1
1.080831258E1,-5.680879354E-1,1.656923175E0,-6.920899153E-1
1.081746487E1,-4.885250926E-1,1.451525807E0,-7.272136807E-1
1.082661711E1,-4.989095032E-1,1.251778722E0,-7.663078904E-1
1.083576935E1,-5.282301903E-1,1.016144395E0,-7.780666947E-1
1.084492164E1,-5.361711979E-1,7.747070193E-1,-7.272136807E-1
1.085407388E1,-5.236487985E-1,5.792359114E-1,-6.481089592E-1
1.086322617E1,-5.491516590E-1,4.424061179E-1,-6.042806506E-1
1.087237841E1,-6.197045445E-1,3.452814221E-1,-6.016845703E-1
1.088153070E1,-6.401679516E-1,2.107423097E-1,-6.181774139E-1
1.089068294E1,-5.882459283E-1,5.543438718E-2,-5.993938446E-1
1.089983523E1,-5.570927262E-1,-5.803049076E-3,-5.532749295E-1
1.090897471E1,-6.193991303E-1,-9.315420873E-3,-5.292991400E-1
1.091813971E1,-6.754443645E-1,6.276455522E-2,-5.517477989E-1
1.092729200E1,-6.551336646E-1,1.495048702E-1,-5.864133835E-1
1.093644424E1,-6.044333577E-1,2.115058601E-1,-5.954233408E-1
1.094559653E1,-6.241331697E-1,2.669402659E-1,-5.833591223E-1
1.095474877E1,-6.818582416E-1,2.935121059E-1,-5.482354164E-1
1.096390106E1,-7.107207775E-1,2.702999115E-1,-4.978405237E-1
1.097305330E1,-7.488987446E-1,2.510582209E-1,-4.688252807E-1
1.098220560E1,-8.597674966E-1,1.713426560E-1,-4.627167881E-1
1.099135784E1,-9.483403563E-1,-1.969982497E-2,-3.967452943E-1
1.100051013E1,-1.009272337E0,1.786728203E-2,-3.495573401E-1
1.100966237E1,-9.865183234E-1,8.231166750E-2,-3.469612300E-1
1.101880190E1,-8.831323981E-1,1.634016447E-2,-3.266505599E-1
1.102796690E1,-8.148702383E-1,-2.586938143E-1,-2.557922900E-1
1.103711914E1,-8.078454733E-1,-5.511369109E-1,-1.626380831E-1
1.104627143E1,-7.663078904E-1,-7.725690603E-1,-6.383354217E-2
1.105542367E1,-6.314633489E-1,-1.066691995E0,1.664558798E-2
1.106457596E1,-4.257605374E-1,-1.428160906E0,8.368607610E-2
1.107371544E1,-2.122694254E-1,-1.696933627E0,1.611109674E-1
1.108288049E1,9.009997360E-3,-1.729461312E0,2.359397560E-1
1.109203273E1,3.013004065E-1,-1.576749444E0,3.100049794E-1
1.110118502E1,6.355865598E-1,-1.419303656E0,3.965925872E-1
1.111033726E1,9.596410394E-1,-1.299730301E0,4.714213610E-1
1.111948956E1,1.283848286E0,-1.207186937E0,5.657972693E-1
1.112864179E1,1.594922185E0,-1.106244445E0,6.949914694E-1
1.113779403E1,1.852088928E0,-9.991934299E-1,8.652651310E-1
1.114694632E1,2.074284554E0,-8.293778896E-1,1.041952729E0
1.115609856E1,2.196912050E0,-6.612421870E-1,1.142284393E0
1.116525086E1,2.190956354E0,-4.845545888E-1,1.151905179E0
1.117440310E1,2.148349762E0,-3.562766612E-1,1.185043693E0
1.118354263E1,2.189276695E0,-2.696890533E-1,1.266439080E0
1.119270763E1,2.300297976E0,-3.365768492E-1,1.372268319E0
1.120185992E1,2.406432867E0,-4.662291706E-1,1.477639556E0
1.121099940E1,2.472557068E0,-6.102364063E-1,1.586828470E0
1.122016445E1,2.496532679E0,-8.527427912E-1,1.690977931E0
1.122931669E1,2.479276419E0,-1.074938416E0,1.721062183E0
1.123846893E1,2.412693977E0,-1.193442822E0,1.664406061E0
1.124762122E1,2.312667608E0,-1.342031479E0,1.593089700E0
1.125677351E1,2.243794680E0,-1.547276139E0,1.524980187E0
1.126591299E1,2.269297600E0,-1.686091185E0,1.480540991E0
1.127507799E1,2.378180981E0,-1.663642526E0,1.468476772E0
1.128423028E1,2.455300570E0,-1.380820274E0,1.477486849E0
1.129336976E1,2.434379101E0,-1.052337170E0,1.506960154E0
1.130253482E1,2.354663372E0,-8.209787011E-1,1.514748454E0
1.131168706E1,2.284568787E0,-6.290199757E-1,1.492147088E0
1.132082659E1,2.236769915E0,-4.442386627E-1,1.459924936E0
1.132999159E1,2.186833143E0,-2.770192325E-1,1.419761777E0
1.133914388E1,2.100398302E0,-1.730224788E-1,1.378834963E0
1.134829612E1,2.022057056E0,-1.508792788E-1,1.355011940E0
1.135744841E1,2.004037142E0,-1.937913001E-1,1.334701300E0
1.136660065E1,2.006785870E0,-3.471139669E-1,1.293316364E0
1.137574018E1,1.975021958E0,-5.511369109E-1,1.217571259E0
1.138490518E1,1.907370567E0,-7.340856791E-1,1.113421798E0
1.139405747E1,1.824448109E0,-8.475505710E-1,9.761339426E-1
1.140319695E1,1.730377555E0,-8.800781965E-1,8.429692388E-1
1.141236195E1,1.651578307E0,-9.035958052E-1,7.233958840E-1
1.142151424E1,1.581025362E0,-9.410101771E-1,5.952706337E-1
1.143066648E1,1.494285107E0,-9.752176404E-1,4.792096615E-1
1.143981877E1,1.380667567E0,-9.805625677E-1,3.886515796E-1
1.144897101E1,1.224596024E0,-9.384140968E-1,3.135173619E-1
1.145812330E1,1.030804753E0,-8.709154725E-1,2.457133085E-1
1.146727554E1,8.237275481E-1,-7.715001106E-1,1.776038408E-1
1.147642784E1,6.360446811E-1,-6.352811456E-1,1.027750522E-1
1.148558008E1,4.636330605E-1,-5.019637346E-1,3.741439432E-2
1.149473237E1,2.976353168E-1,-3.836120665E-1,1.374406274E-3
1.150388461E1,1.397313178E-1,-2.929012477E-1,1.527118147E-4
1.151303690E1,1.527118147E-4,-2.050919682E-1,2.901524492E-2
1.152218914E1,-1.372879148E-1,-9.132166207E-2,5.360184610E-2
1.153134143E1,-2.826695740E-1,3.924693540E-2,5.131116882E-2
1.154049367E1,-4.288147688E-1,1.293469071E-1,3.252761811E-2
1.154964596E1,-5.638120174E-1,1.356080920E-1,1.267508045E-2
1.155879820E1,-6.843016148E-1,5.696150661E-2,-2.061609551E-2
1.156793773E1,-8.084563613E-1,-3.390202299E-2,-8.002099395E-2
1.157710273E1,-9.542961121E-1,-8.017370105E-2,-1.591257155E-1
1.158625502E1,-1.093416572E0,-5.787777901E-2,-2.498365343E-1
1.159539450E1,-1.189319611E0,-5.115845799E-2,-3.416163325E-1
1.160455956E1,-1.267049909E0,-7.040014863E-2,-4.465293586E-1
1.161371179E1,-1.282321095E0,-9.681928903E-2,-5.821374655E-1
1.162286409E1,-1.172368646E0,2.458660305E-2,-7.269082665E-1
1.163201632E1,-9.045121074E-1,3.109212518E-1,-8.215895891E-1
1.164116862E1,-6.271874309E-1,5.760289431E-1,-7.728744745E-1
1.165030810E1,-6.484143734E-1,4.530959427E-1,-6.044333577E-1
1.165947315E1,-1.124417067E0,1.466033459E-1,-5.062396526E-1
1.166862539E1,-1.655396104E0,-1.658450365E-1,-5.260922313E-1
1.167776492E1,-1.793447495E0,-2.396048307E-1,-5.190674663E-1
1.168692992E1,-1.676470280E0,4.143071473E-1,-3.973561525E-1
1.169608221E1,-1.739845753E0,1.013395548E0,-3.492519259E-1
1.170522169E1,-1.860488057E0,8.438854814E-1,-4.825693369E-1
1.171438674E1,-1.699682474E0,6.047387719E-1,-5.398362875E-1
1.172353898E1,-1.500851750E0,5.083776116E-1,-4.430169761E-1
1.173267851E1,-1.486038685E0,2.336490750E-1,-4.469874799E-1
1.174184351E1,-1.581636310E0,-6.933116168E-2,-5.311316848E-1
1.175099580E1,-1.623326540E0,-2.244863659E-1,-5.686988235E-1
1.176014804E1,-1.553537250E0,-3.558185399E-1,-5.839699507E-1
1.176930034E1,-1.420830727E0,-5.170822144E-1,-5.902311802E-1
1.177845258E1,-1.326912999E0,-5.470137000E-1,-5.974085927E-1
1.178760487E1,-1.265522838E0,-4.361449480E-1,-6.227588058E-1
1.179675711E1,-1.206270576E0,-2.970244884E-1,-6.432221532E-1
1.180590940E1,-1.126707792E0,-1.528645307E-1,-6.549809575E-1
1.181506164E1,-1.079061627E0,2.153236605E-2,-6.371136904E-1
1.182421393E1,-1.040272832E0,2.373141646E-1,-6.204680800E-1
1.183336617E1,-1.007592559E0,4.271349311E-1,-6.209262609E-1
1.184251846E1,-9.935430884E-1,5.983248949E-1,-6.368082762E-1
1.185167070E1,-9.984298348E-1,8.141067028E-1,-6.394043565E-1
1.186082299E1,-1.012632012E0,1.003927469E0,-6.177192926E-1
1.186997523E1,-9.976662993E-1,1.109604001E0,-5.798467398E-1
1.187912752E1,-9.669712186E-1,1.171299577E0,-5.216635466E-1
1.188827976E1,-9.663603902E-1,1.216655016E0,-4.837910235E-1
1.189743206E1,-9.900307059E-1,1.237118363E0,-4.766135812E-1
1.190658429E1,-1.016449809E0,1.242463350E0,-4.944808483E-1
1.191573659E1,-1.069898963E0,1.205048919E0,-4.796678126E-1
1.192488882E1,-1.108076930E0,1.126249671E0,-4.333961308E-1
1.193404112E1,-1.130983710E0,1.037676811E0,-3.920112252E-1
1.194319336E1,-1.146713018E0,9.257390499E-1,-3.628432751E-1
1.195234565E1,-1.132358074E0,8.283088803E-1,-3.326063454E-1
1.196149789E1,-1.081810474E0,7.403468490E-1,-3.103103936E-1
1.197065018E1,-1.035080671E0,6.042806506E-1,-3.086305857E-1
1.197980242E1,-9.933903813E-1,5.077667832E-1,-3.271087110E-1
1.198895471E1,-9.662076235E-1,5.083776116E-1,-3.550549746E-1
1.199810695E1,-9.646805525E-1,5.752654076E-1,-3.965925872E-1
1.200725924E1,-9.785773158E-1,6.978929639E-1,-4.408790171E-1
1.201641148E1,-9.510892034E-1,8.052493930E-1,-4.582881629E-1
1.202556377E1,-9.003888369E-1,8.510629535E-1,-4.610369802E-1
1.203471601E1,-8.799254894E-1,8.629744649E-1,-4.921901822E-1
1.204386830E1,-9.113841057E-1,9.478822351E-1,-5.247178078E-1
1.205302054E1,-9.217684865E-1,1.086239100E0,-5.670189857E-1
1.206217284E1,-9.327637553E-1,1.172215939E0,-6.233696342E-1
1.207132508E1,-9.425373077E-1,1.191915751E0,-6.595623493E-1
1.208047737E1,-9.556705356E-1,1.279877663E0,-6.700994372E-1
1.208962961E1,-9.659022093E-1,1.331494331E0,-6.696413159E-1
1.209878190E1,-9.481876493E-1,1.346154690E0,-6.754443645E-1
1.210793414E1,-9.214630723E-1,1.330272675E0,-7.015580535E-1
1.211708643E1,-9.057337642E-1,1.307824016E0,-7.453863621E-1
1.212623867E1,-9.006943107E-1,1.253458619E0,-7.942541242E-1
1.213539096E1,-9.077190161E-1,1.163511276E0,-8.350282311E-1
1.214454325E1,-8.693883419E-1,1.030346632E0,-8.591566682E-1
1.215369549E1,-7.815790772E-1,8.550334573E-1,-8.724426031E-1
1.216284778E1,-7.171346545E-1,6.183301210E-1,-8.968765140E-1
1.217200002E1,-7.014053464E-1,3.819322586E-1,-9.051229358E-1
1.218115232E1,-6.948387623E-1,2.434226274E-1,-8.756495714E-1
1.219030456E1,-6.809419990E-1,1.876828223E-1,-8.351809382E-1
1.219945685E1,-6.409314871E-1,1.669140160E-1,-7.768449783E-1
1.220860909E1,-5.839699507E-1,2.533488870E-1,-7.221741676E-1
1.221776138E1,-5.317425132E-1,3.168770075E-1,-6.754443645E-1
1.222691362E1,-5.018110275E-1,3.254288733E-1,-6.245913506E-1
1.223606591E1,-4.650074840E-1,2.583884001E-1,-5.558710098E-1
1.224521815E1,-4.051444530E-1,1.447708011E-1,-4.827220440E-1
1.225437044E1,-3.492519259E-1,-8.551862091E-3,-4.169032574E-1
1.226352268E1,-2.863346636E-1,-1.811162084E-1,-3.559712470E-1
1.227267497E1,-2.206685692E-1,-3.355078697E-1,-2.832804024E-1
1.228182726E1,-1.577513069E-1,-4.460712075E-1,-1.979145110E-1
1.229097950E1,-6.093201414E-2,-5.593833923E-1,-1.177408099E-1
1.230013179E1,9.284878522E-2,-6.293253899E-1,-3.542914242E-2
1.230928403E1,2.670929730E-1,-6.415423155E-1,5.008947477E-2
1.231843632E1,4.275930822E-1,-7.281299233E-1,1.637070626E-1
1.232758857E1,5.764871240E-1,-8.280034661E-1,3.034383655E-1
1.233674086E1,7.288935184E-1,-8.393041492E-1,4.346178174E-1
1.234589310E1,9.058864713E-1,-7.608102560E-1,5.464028716E-1
1.235504539E1,1.123348117E0,-6.581879258E-1,6.503996253E-1
1.236419763E1,1.361578584E0,-5.984776020E-1,7.467607856E-1
1.237334992E1,1.597212911E0,-5.928272605E-1,8.454126120E-1
1.238250216E1,1.790851474E0,-5.961869359E-1,9.805625677E-1
1.239165445E1,1.964484811E0,-5.265503526E-1,1.161831498E0
1.240080674E1,2.126817465E0,-4.088095427E-1,1.311336398E0
1.240995898E1,2.206227541E0,-3.633013964E-1,1.386928678E0
1.241909851E1,2.225927353E0,-5.268557668E-1,1.439767003E0
1.242826351E1,2.277238607E0,-7.020162344E-1,1.470156670E0
1.243741580E1,2.386733055E0,-8.031114340E-1,1.463590026E0
1.244656804E1,2.477138281E0,-8.632798791E-1,1.464964390E0
1.245572034E1,2.496990919E0,-8.831323981E-1,1.478555799E0
1.246487258E1,2.457591295E0,-1.043174386E0,1.512610555E0
1.247401211E1,2.417122602E0,-1.378682256E0,1.577818513E0
1.248317711E1,2.424758196E0,-1.641193867E0,1.636154413E0
1.249232940E1,2.436669827E0,-1.662268162E0,1.646538734E0
1.250146893E1,2.394674063E0,-1.583468795E0,1.638292313E0
1.251063393E1,2.365505934E0,-1.414111376E0,1.626991630E0
1.251978622E1,2.363520861E0,-1.047755718E0,1.607749939E0
1.252893846E1,2.357259512E0,-6.688777208E-1,1.585454106E0
1.253809075E1,2.304574013E0,-3.509317636E-1,1.556133389E0
1.254724299E1,2.214626789E0,-5.528167635E-2,1.526049137E0
1.255638252E1,2.113531590E0,1.505738497E-1,1.523911238E0
1.256554752E1,2.020529985E0,2.895416021E-1,1.502378821E0
1.257469982E1,1.939440012E0,2.904578745E-1,1.460841179E0
1.258383935E1,1.898971438E0,1.420219839E-1,1.418081880E0
1.259300435E1,1.902483821E0,-6.154286116E-2,1.305227876E0
1.260215659E1,1.905843496E0,-3.139754832E-1,1.169925213E0
1.261129612E1,1.883852959E0,-5.512896776E-1,1.050809979E0
1.262046117E1,1.859113574E0,-7.632536292E-1,9.286405444E-1
1.262961341E1,1.840940952E0,-9.512419105E-1,7.937960029E-1
1.263875294E1,1.814216375E0,-1.060889006E0,6.623111367E-1
1.264791794E1,1.751909971E0,-1.082421303E0,5.428904891E-1
1.265707023E1,1.639819503E0,-1.041494608E0,4.301891923E-1
1.266622247E1,1.473821759E0,-9.710944295E-1,3.293993771E-1
1.267537476E1,1.274380088E0,-8.886300325E-1,2.425063550E-1
1.268452706E1,1.090209603E0,-7.956285477E-1,1.812689304E-1
1.269367929E1,9.370396733E-1,-6.737645268E-1,1.391204596E-1
1.270283159E1,7.838697433E-1,-5.499152541E-1,1.068982705E-1
1.271198382E1,6.158867478E-1,-4.298837483E-1,7.498150319E-2
1.272113612E1,4.425588250E-1,-3.452814221E-1,3.161134571E-2
1.273028836E1,2.693836391E-1,-2.524326444E-1,-2.519745007E-2
1.273944065E1,9.376505762E-2,-9.147437662E-2,-8.154810965E-2
1.274858018E1,-1.015533581E-1,1.394258887E-1,-1.258345395E-1
1.275774518E1,-2.964136302E-1,3.733803928E-1,-1.609582454E-1
1.276689747E1,-4.596625566E-1,4.434750974E-1,-1.969982386E-1
1.277604971E1,-5.829010010E-1,3.251234591E-1,-2.215848416E-1
1.278520200E1,-6.618530154E-1,1.230857223E-1,-2.292204350E-1
1.279435424E1,-7.278245091E-1,-8.017370105E-2,-2.362451702E-1
1.280350653E1,-7.934905887E-1,-2.327328026E-1,-2.702999115E-1
1.281265877E1,-8.438854814E-1,-3.555130959E-1,-3.382566571E-1
1.282181106E1,-8.871029615E-1,-4.492781460E-1,-4.295783341E-1
1.283095060E1,-7.739434838E-1,-3.837648034E-1,-5.173876286E-1
1.284011560E1,-4.355340898E-1,-8.628217876E-2,-5.639647245E-1
1.284926789E1,-1.574458778E-1,9.681928903E-2,-5.425850749E-1
1.285840737E1,-1.924168915E-1,-1.143811494E-1,-4.376720488E-1
1.286757242E1,-6.574243903E-1,-2.002051920E-1,-3.095468581E-1
1.287672466E1,-1.422357798E0,7.941014320E-2,-3.023693860E-1
1.288586419E1,-1.947991967E0,3.257342875E-1,-4.271349311E-1
1.289502924E1,-2.084058046E0,6.051968932E-1,-4.540122151E-1
1.290418148E1,-1.907828689E0,1.297897696E0,-2.750339806E-1
1.291332101E1,-1.674026966E0,2.079476833E0,-1.988307834E-1
1.292248601E1,-1.574611545E0,2.218597174E0,-4.198047817E-1
1.293163831E1,-1.561020136E0,1.636154413E0,-6.653653979E-1
1.294077784E1,-1.617065430E0,9.460496902E-1,-6.855233312E-1
1.294994284E1,-1.608055353E0,3.797942698E-1,-6.281036735E-1
1.295909513E1,-1.551093936E0,-1.191152185E-1,-6.519267559E-1
1.296823461E1,-1.493674278E0,-6.430694461E-1,-7.383615971E-1
1.297739966E1,-1.363105655E0,-9.799517393E-1,-7.757760286E-1
1.298655190E1,-1.236049414E0,-1.022711039E0,-7.027797699E-1
1.299569143E1,-1.168703556E0,-8.506048322E-1,-6.271874309E-1
1.300485643E1,-1.124875188E0,-6.571189165E-1,-6.154286265E-1
1.301400872E1,-1.127318621E0,-3.678827584E-1,-6.481089592E-1
1.302316101E1,-1.181531310E0,-4.123218823E-3,-6.670452356E-1
1.303231325E1,-1.200467587E0,3.063398898E-1,-6.416950226E-1
1.304146554E1,-1.157860994E0,5.331169367E-1,-5.651864409E-1
1.305060508E1,-1.076923728E0,6.933116317E-1,-5.001311898E-1
1.305977008E1,-1.019656777E0,7.562289238E-1,-4.685198367E-1
1.306892237E1,-9.571976662E-1,7.285880446E-1,-4.584408700E-1
1.307807461E1,-9.081771374E-1,7.660024762E-1,-4.561502039E-1
1.308722690E1,-8.806890249E-1,7.974610925E-1,-4.614951015E-1
1.309637914E1,-8.388460279E-1,7.937960029E-1,-4.630222321E-1
1.310553143E1,-8.217422962E-1,7.571451664E-1,-4.703523815E-1
1.311468367E1,-8.357917666E-1,6.923953891E-1,-5.118899941E-1
1.312383596E1,-8.486195803E-1,6.198572516E-1,-5.552601814E-1
1.313298825E1,-8.732061386E-1,5.613686442E-1,-5.780141950E-1
1.314214049E1,-8.791618943E-1,5.311316848E-1,-5.938962698E-1
1.315129278E1,-8.554915786E-1,5.118899941E-1,-6.003101468E-1
1.316044502E1,-8.353336453E-1,5.239542127E-1,-5.819846988E-1
1.316959732E1,-8.345700502E-1,5.613686442E-1,-5.593833923E-1
1.317874961E1,-8.325847983E-1,6.163448691E-1,-5.441122055E-1
1.318790185E1,-8.394568563E-1,6.821636558E-1,-5.192201734E-1
1.319705414E1,-8.449544907E-1,7.227849960E-1,-4.666872919E-1
1.320620638E1,-8.159392476E-1,7.030851841E-1,-4.170559645E-1
1.321535867E1,-7.747070193E-1,7.127060294E-1,-4.216373265E-1
1.322451096E1,-7.658497691E-1,9.150491953E-1,-4.656183124E-1
1.323366320E1,-8.032641411E-1,1.187945247E0,-5.112791657E-1
1.324281549E1,-8.484668136E-1,1.366007209E0,-5.599942207E-1
1.325196773E1,-8.939749599E-1,1.443584800E0,-5.873296261E-1
1.326112002E1,-9.533798695E-1,1.537960649E0,-5.859552622E-1
1.327027232E1,-1.001331329E0,1.598739982E0,-5.770979524E-1
1.327942456E1,-1.020267606E0,1.566365123E0,-5.619794726E-1
1.328857685E1,-1.049435616E0,1.426022887E0,-5.212054253E-1
1.329772909E1,-1.094332814E0,1.187639832E0,-4.645493329E-1
1.330688138E1,-1.090515018E0,9.562813640E-1,-4.356867969E-1
1.331603367E1,-1.001331329E0,7.762341499E-1,-4.611896873E-1
1.332518591E1,-8.591566682E-1,6.177192926E-1,-5.204418898E-1
1.333433820E1,-7.802046537E-1,5.010474920E-1,-6.041279435E-1
1.334349044E1,-7.455390692E-1,3.904841244E-1,-6.891884208E-1
1.335262997E1,-6.873558760E-1,3.252761662E-1,-7.493568659E-1
1.336179502E1,-6.284091473E-1,2.951919436E-1,-7.768449783E-1
1.337094726E1,-6.387935281E-1,3.547495604E-1,-8.057075143E-1
1.338009956E1,-7.134696245E-1,4.718795121E-1,-8.588512540E-1
1.338925179E1,-7.562289238E-1,5.138752460E-1,-8.964183331E-1
1.339840409E1,-7.104153633E-1,4.104893506E-1,-8.606837988E-1
1.340754362E1,-6.470399499E-1,2.377723008E-1,-7.941014171E-1
1.341670862E1,-6.485670805E-1,-1.023169141E-2,-7.597413063E-1
1.342586091E1,-6.607840061E-1,-3.981196880E-1,-7.058340311E-1
1.343501315E1,-6.864396334E-1,-5.885513425E-1,-6.691831946E-1
1.344416544E1,-6.760551929E-1,-6.522321701E-1,-6.537593007E-1
1.345331773E1,-6.562026739E-1,-6.696413159E-1,-6.421532035E-1
1.346245721E1,-6.514685750E-1,-6.702521443E-1,-6.169557571E-1
1.347162226E1,-6.668924689E-1,-6.157340407E-1,-5.615213513E-1
1.348077456E1,-6.868977547E-1,-4.727957845E-1,-5.251759291E-1
1.348992679E1,-6.862868667E-1,-2.504473627E-1,-5.198310018E-1
1.349907909E1,-6.403206587E-1,-1.175880991E-2,-5.251759291E-1
1.350823132E1,-5.664080977E-1,1.252236813E-1,-5.083776116E-1
1.351738362E1,-4.546230733E-1,1.353026628E-1,-4.518742561E-1
1.352653591E1,-3.255815804E-1,8.032641560E-2,-3.660502136E-1
1.353568815E1,-2.005106062E-1,2.611372061E-2,-2.643441558E-1
1.354482768E1,-8.002099395E-2,-4.749337584E-2,-1.536280811E-1
1.355399268E1,5.115845799E-2,-1.588202864E-1,-4.275930673E-2
1.356314497E1,1.777565479E-1,-3.058817685E-1,5.176930502E-2
1.357229726E1,3.194731176E-1,-4.179722369E-1,1.504211426E-1
1.358144950E1,4.802786708E-1,-4.558447599E-1,2.646495700E-1
1.359060179E1,6.459710002E-1,-3.539859951E-1,3.640649617E-1
1.359975403E1,8.419002295E-1,-1.050657257E-1,4.550811946E-1
1.360890633E1,1.096776247E0,1.339282542E-1,6.056550741E-1
1.361805862E1,1.352873921E0,1.418692768E-1,8.170081973E-1
1.362719815E1,1.550177574E0,-1.021642014E-1,1.038898468E0
1.363636315E1,1.731904745E0,-4.532486796E-1,1.218182087E0
1.364551544E1,1.865680218E0,-8.599202037E-1,1.323247910E0
1.365465492E1,1.941883445E0,-1.283695459E0,1.398534775E0
1.366381997E1,2.041604280E0,-1.658755779E0,1.461910248E0
1.367297226E1,2.214168549E0,-1.793905735E0,1.486344099E0
1.368211174E1,2.397269964E0,-1.745954156E0,1.507112861E0
1.369127679E1,2.489966154E0,-1.570488334E0,1.516275644E0
1.370042903E1,2.456064224E0,-1.329661727E0,1.477944970E0
1.370956857E1,2.351914644E0,-1.104106426E0,1.417776465E0
1.371873362E1,2.273420811E0,-1.056613088E0,1.385401607E0
1.372788586E1,2.230355978E0,-1.144269586E0,1.365090966E0
1.373702539E1,2.203478813E0,-1.304006219E0,1.360204101E0
1.374619044E1,2.180572033E0,-1.424495816E0,1.366770744E0
1.375534268E1,2.127733707E0,-1.325691223E0,1.399298310E0
1.376448221E1,2.052599430E0,-1.012784719E0,1.462062955E0
1.377364726E1,2.010909081E0,-6.384881139E-1,1.511541486E0
1.378279950E1,2.005717039E0,-3.304683566E-1,1.527118206E0
1.379193903E1,1.980061412E0,-9.132166207E-2,1.518260837E0
1.380110409E1,1.922336340E0,3.680354729E-2,1.492147088E0
1.381025633E1,1.855143070E0,-2.168507688E-2,1.473363638E0
1.381939586E1,1.790546060E0,-1.508792788E-1,1.455343604E0
1.382856086E1,1.737249613E0,-2.432699203E-1,1.423884988E0
1.383771315E1,1.697391868E0,-3.959817290E-1,1.387692213E0
1.384686544E1,1.674943209E0,-5.613686442E-1,1.343711257E0
1.385601768E1,1.667002201E0,-7.189671993E-1,1.237423778E0
1.386516997E1,1.675706744E0,-8.750386834E-1,1.095401883E0
1.387432226E1,1.684869409E0,-1.017671585E0,9.648332596E-1
1.388347450E1,1.673568726E0,-1.145949483E0,8.422056437E-1
1.389262679E1,1.631573081E0,-1.224137902E0,7.313368917E-1
1.390177903E1,1.565296054E0,-1.219098449E0,6.510104537E-1
1.391093133E1,1.462521076E0,-1.133885264E0,5.987830162E-1
1.392008362E1,1.327523828E0,-9.885035753E-1,5.716003180E-1
1.392923586E1,1.176949978E0,-8.102889061E-1,5.496098399E-1
1.393838815E1,1.026528835E0,-6.546755433E-1,5.215108395E-1
1.394754044E1,8.892409205E-1,-5.152496696E-1,4.813476503E-1
1.395669268E1,7.748597264E-1,-3.866663277E-1,4.407263100E-1
1.396584497E1,6.717792749E-1,-2.851129472E-1,3.972034156E-1
1.397499726E1,5.592306852E-1,-2.137965411E-1,3.529170156E-1
1.398414950E1,4.411844313E-1,-1.641651988E-1,3.014531136E-1
1.399330179E1,3.362714052E-1,-1.211004704E-1,2.371614426E-1
1.400245409E1,2.411319613E-1,-7.284353673E-2,1.661504507E-1
1.401160632E1,1.378987730E-1,-7.482878864E-3,1.036913246E-1
1.402075862E1,2.977880463E-2,4.398100078E-2,5.833591148E-2
1.402991091E1,-7.330167294E-2,7.253811508E-2,2.886253223E-2
1.403906315E1,-1.589729935E-1,9.162709117E-2,1.374406274E-3
1.404821544E1,-2.156290859E-1,8.780929446E-2,-3.191677108E-2
1.405736773E1,-2.454078794E-1,6.765133142E-2,-6.872031838E-2
1.406651997E1,-2.730487287E-1,7.360709459E-2,-1.043021679E-1
1.407567226E1,-3.090887070E-1,1.270562261E-1,-1.443126649E-1
1.408482450E1,-3.581092060E-1,1.827960461E-1,-1.838650256E-1
1.409397679E1,-4.161396921E-1,2.037175596E-1,-2.166980654E-1
1.410312909E1,-4.967715442E-1,2.058555335E-1,-2.415900975E-1
1.411228133E1,-5.502206683E-1,1.905843467E-1,-2.646495700E-1
1.412143362E1,-5.369347334E-1,1.832541823E-1,-2.919849753E-1
1.413058591E1,-5.048652887E-1,1.959292591E-1,-3.283303976E-1
1.413973815E1,-4.947862923E-1,1.927223057E-1,-3.771981895E-1
1.414887768E1,-5.273138881E-1,1.230857223E-1,-4.482091665E-1
1.415804273E1,-5.913001299E-1,1.027750522E-1,-5.383091569E-1
1.416719497E1,-6.122216582E-1,3.289412558E-1,-6.132906675E-1
1.417634726E1,-5.332696438E-1,6.882721782E-1,-6.476507783E-1
1.418549956E1,-4.337015450E-1,9.384140968E-1,-6.740699410E-1
1.419465179E1,-4.882196784E-1,7.832589149E-1,-6.974348426E-1
1.420379133E1,-7.598940134E-1,4.056025743E-1,-6.675033569E-1
1.421295638E1,-1.166565537E0,1.760767251E-1,-6.529957056E-1
1.422210862E1,-1.473974466E0,3.086305857E-1,-6.852179170E-1
1.423124815E1,-1.602405071E0,4.866925478E-1,-7.137750387E-1
1.424041320E1,-1.683953166E0,4.460712075E-1,-7.337802649E-1
1.424956544E1,-1.804290056E0,5.147915483E-1,-7.029324770E-1
1.425870497E1,-1.900193095E0,5.920637250E-1,-6.316160560E-1
1.426787002E1,-1.836665034E0,4.217900336E-1,-5.705313683E-1
1.427702226E1,-1.585606813E0,1.543916464E-1,-4.807367921E-1
1.428616179E1,-1.373948216E0,-1.588202827E-2,-3.570402265E-1
1.429532685E1,-1.278656006E0,-1.553079188E-1,-2.896943092E-1
1.430447909E1,-1.229788303E0,-3.949127495E-1,-2.603736520E-1
1.431361862E1,-1.172063231E0,-5.864133835E-1,-2.385358512E-1
1.432278367E1,-1.122279167E0,-6.555918455E-1,-2.276933193E-1
1.433193591E1,-1.110673070E0,-5.651864409E-1,-2.356343269E-1
1.434107544E1,-1.126096964E0,-3.327590525E-1,-2.785463631E-1
1.435024049E1,-1.139993668E0,-5.054761097E-2,-3.466558158E-1
1.435939273E1,-1.157708287E0,2.295258641E-1,-4.007157981E-1
1.436854502E1,-1.185654521E0,4.149180055E-1,-4.329380095E-1
1.437769732E1,-1.189166903E0,4.672981501E-1,-4.506525695E-1
1.438684956E1,-1.124111652E0,4.359922409E-1,-4.508052766E-1
1.439598909E1,-1.074785709E0,4.318690002E-1,-4.460712075E-1
1.440515414E1,-1.032942772E0,4.440859556E-1,-4.434750974E-1
1.441430638E1,-9.608627558E-1,4.894413650E-1,-4.253024161E-1
1.442345867E1,-9.077190161E-1,5.511369109E-1,-4.071297050E-1
1.443261096E1,-8.811471462E-1,6.180247068E-1,-4.175141156E-1
1.444176320E1,-8.666395545E-1,6.433748603E-1,-4.277457893E-1
1.445091549E1,-8.554915786E-1,7.133168578E-1,-4.222481549E-1
1.446006778E1,-8.764131069E-1,7.769976854E-1,-4.260659516E-1
1.446922002E1,-9.150491953E-1,8.316685557E-1,-4.575245976E-1
1.447837232E1,-9.368869662E-1,8.875610828E-1,-4.961606860E-1
1.448752461E1,-9.364288449E-1,9.092461467E-1,-5.187620521E-1
1.449667685E1,-9.446752667E-1,9.530744553E-1,-5.525113344E-1
1.450582914E1,-9.460496902E-1,9.878927469E-1,-5.702258945E-1
1.451498143E1,-9.202414155E-1,1.058445573E0,-5.682406425E-1
1.452413367E1,-8.996253014E-1,1.102579355E0,-5.705313683E-1
1.453328596E1,-8.674030900E-1,1.085780978E0,-5.667135715E-1
1.454243825E1,-7.999044657E-1,1.097997904E0,-5.479300022E-1
1.455159054E1,-7.592831254E-1,1.158929944E0,-5.170822144E-1
1.456074278E1,-7.763868570E-1,1.209630251E0,-4.897467792E-1
1.456989508E1,-8.270871639E-1,1.296370625E0,-4.755446017E-1
1.457904737E1,-9.200887084E-1,1.358218908E0,-4.781406820E-1
1.458818685E1,-9.730796814E-1,1.287055135E0,-4.808894992E-1
1.459735190E1,-8.962656260E-1,1.173284888E0,-4.918847680E-1
1.460650419E1,-7.795938253E-1,1.182905674E0,-5.587725043E-1
1.461565643E1,-7.009472251E-1,1.180920482E0,-6.467345357E-1
1.462480872E1,-6.554391384E-1,1.161984205E0,-7.075138092E-1
1.463396101E1,-6.746807694E-1,1.108840466E0,-7.296570539E-1
1.464311325E1,-7.612683773E-1,1.088071704E0,-7.583668828E-1
1.465226554E1,-7.728744745E-1,1.086849928E0,-7.846332788E-1
1.466141784E1,-6.763606071E-1,1.047755718E0,-7.924215794E-1
1.467057008E1,-6.252021790E-1,1.062874198E0,-8.079982400E-1
1.467972237E1,-6.484143734E-1,1.179087877E0,-8.405258060E-1
1.468887466E1,-6.994200945E-1,1.251167893E0,-8.599202037E-1
1.469802695E1,-7.050704360E-1,1.251167893E0,-8.489249945E-1
1.470717919E1,-6.342121959E-1,1.162289619E0,-8.142594099E-1
1.471633148E1,-5.460974574E-1,1.004080176E0,-7.579087615E-1
1.472548377E1,-4.874561131E-1,8.266290426E-1,-6.963658929E-1
1.473463601E1,-4.685198367E-1,6.166502833E-1,-6.337540150E-1
1.474378830E1,-4.799732268E-1,4.184303582E-1,-5.830537081E-1
1.475294060E1,-5.183038712E-1,2.757975459E-1,-5.483881235E-1
1.476209284E1,-5.662553906E-1,1.973036677E-1,-5.462501645E-1
1.477124513E1,-6.042806506E-1,1.768402755E-1,-5.580089688E-1
1.478039742E1,-6.029062271E-1,1.617218107E-1,-5.610632300E-1
1.478954971E1,-5.795413256E-1,1.068982668E-2,-5.230379701E-1
1.479870195E1,-5.923691392E-1,-9.651386738E-2,-4.705050886E-1
1.480785424E1,-5.844281316E-1,-1.162136942E-1,-4.178195298E-1
1.481700653E1,-5.552601814E-1,-8.811471611E-2,-3.761292100E-1
1.482615877E1,-5.146388412E-1,-3.008422814E-2,-3.362714052E-1
1.483529830E1,-4.556920528E-1,4.489727318E-2,-2.797680497E-1
1.484446336E1,-3.280249834E-1,-7.635590620E-3,-1.860029846E-1
1.485361565E1,-1.554606259E-1,-1.392731816E-1,-5.512896553E-2
1.486276789E1,-1.282779220E-2,-2.953446507E-1,5.894676223E-2
1.487192018E1,7.803573459E-2,-4.251496792E-1,1.285833418E-1
1.488107247E1,1.392731816E-1,-4.598152637E-1,1.595838517E-1
1.489022471E1,2.312056869E-1,-4.161396921E-1,1.908897758E-1
1.489937700E1,4.143071473E-1,-3.752129376E-1,2.538070381E-1
1.490852929E1,6.804838181E-1,-4.094203711E-1,3.600944579E-1
1.491766883E1,1.008203387E0,-6.148177385E-1,5.421269536E-1
1.492683383E1,1.357913494E0,-1.038134933E0,7.841751575E-1
1.493598612E1,1.674943209E0,-1.540404081E0,1.059209108E0
1.494513841E1,1.973036647E0,-1.754200578E0,1.276976228E0
1.495429065E1,2.181793690E0,-1.686091185E0,1.335770249E0
1.496344294E1,2.287622929E0,-1.464811683E0,1.345543742E0
1.497258247E1,2.372072697E0,-1.290262103E0,1.396091461E0
1.498174752E1,2.559297323E0,-1.031262875E0,1.471072912E0
1.499089976E1,2.782867432E0,-6.762079000E-1,1.539640546E0
1.500003929E1,2.846700907E0,-3.921639323E-1,1.585759521E0
1.500920435E1,2.654894829E0,-3.972034156E-1,1.603932142E0
1.501835659E1,2.334505558E0,-6.832326651E-1,1.616454601E0
1.502749612E1,2.106506824E0,-1.056002140E0,1.626686215E0
1.503666117E1,2.055042982E0,-1.280335903E0,1.606986403E0
1.504581346E1,2.108339310E0,-1.293163657E0,1.559187651E0
1.505496570E1,2.205005884E0,-1.271936655E0,1.529256105E0
1.506411799E1,2.290982723E0,-1.213600755E0,1.486496806E0
1.507327028E1,2.359244823E0,-1.177560806E0,1.429535270E0
1.508240982E1,2.373141527E0,-1.119835734E0,1.386775970E0
1.509157482E1,2.328397036E0,-9.993461370E-1,1.366312623E0
1.510072711E1,2.259982109E0,-8.538117409E-1,1.344322085E0
1.510986664E1,2.206227541E0,-7.459971905E-1,1.329203606E0
1.511903164E1,2.155985355E0,-6.342121959E-1,1.298813939E0
1.512818393E1,2.109713793E0,-5.517477989E-1,1.275907159E0
1.513732346E1,2.056417227E0,-5.302154422E-1,1.280335903E0
1.514648846E1,2.040229797E0,-5.657972693E-1,1.260177851E0
1.515564075E1,2.041756868E0,-6.510104537E-1,1.219861984E0
1.516478028E1,2.018086672E0,-8.018897176E-1,1.175881028E0
1.517394534E1,1.969524264E0,-9.197832346E-1,1.085780978E0
1.518309758E1,1.904163599E0,-9.848384857E-1,9.455915689E-1
1.519223711E1,1.834832430E0,-1.011563063E0,7.730271816E-1
1.520140216E1,1.756491303E0,-9.936957955E-1,5.995466113E-1
1.521055440E1,1.666849494E0,-9.701781869E-1,4.553866386E-1
1.521970669E1,1.557965875E0,-9.462023973E-1,3.501681983E-1
1.522885898E1,1.427855492E0,-9.123004079E-1,2.875563502E-1
1.523801127E1,1.290414810E0,-8.270871639E-1,2.589992285E-1
1.524716351E1,1.138772011E0,-6.737645268E-1,2.321219593E-1
1.525631581E1,9.631534219E-1,-4.529432356E-1,1.977618039E-1
1.526546810E1,7.783721089E-1,-2.328855246E-1,1.609582454E-1
1.527462039E1,5.966450572E-1,-9.941539168E-2,1.320957243E-1
1.528377263E1,4.265241027E-1,-3.527642787E-2,1.217113137E-1
1.529292492E1,2.745758295E-1,4.886778072E-3,1.261399537E-1
1.530207721E1,1.349972486E-1,2.336490713E-2,1.275143623E-1
1.531122950E1,8.857285604E-3,1.939439960E-2,1.125486046E-1
1.532038174E1,-1.130067408E-1,2.214321308E-2,7.574506104E-2
1.532953403E1,-2.443388999E-1,3.130592033E-2,3.695625812E-2
1.533868633E1,-3.665083647E-1,6.184828654E-2,1.343864016E-2
1.534783857E1,-4.660764635E-1,1.091889441E-1,4.581354442E-4
1.535697810E1,-5.563291311E-1,1.450762302E-1,-2.153236605E-2
1.536614315E1,-6.398624778E-1,1.304158866E-1,-6.856760383E-2
1.537529544E1,-7.605048418E-1,8.414421231E-2,-1.438545287E-1
1.538443497E1,-9.115368128E-1,6.963659078E-2,-2.444916219E-1
1.539359997E1,-1.050809979E0,4.428642616E-2,-3.559712470E-1
1.540275226E1,-1.124875188E0,-3.054236248E-2,-4.859289825E-1
1.541190456E1,-1.124264359E0,-8.108997345E-2,-6.372663975E-1
1.542105679E1,-9.778137207E-1,1.475196183E-1,-7.853968740E-1
1.543020909E1,-7.537854910E-1,6.525375843E-1,-8.959602118E-1
1.543934862E1,-7.215633392E-1,8.710681796E-1,-9.562813640E-1
1.544851367E1,-1.160304427E0,5.195255876E-1,-9.878927469E-1
1.545766596E1,-1.799861431E0,-3.252761662E-1,-8.745805621E-1
1.546680544E1,-2.286706686E0,-7.588250041E-1,-5.717530251E-1
1.547597049E1,-2.571666956E0,8.322793990E-2,-2.318165302E-1
1.548512278E1,-2.696279764E0,1.803068399E0,1.301104724E-1
1.549426232E1,-2.631835461E0,2.686506271E0,2.330382317E-1
1.550342732E1,-1.934247851E0,1.803068399E0,-4.535540938E-2
1.551257961E1,-9.124531150E-1,1.177408099E-1,-4.326325655E-1
1.552171914E1,-6.913263798E-1,-1.509709001E0,-6.404733658E-1
1.553088414E1,-1.095707297E0,-1.730835676E0,-4.575245976E-1
1.554003643E1,-1.395785928E0,-1.015228152E0,-2.305948436E-1
1.554917596E1,-1.379751205E0,-5.251759291E-1,-2.266243398E-1
1.555834101E1,-1.268577099E0,-4.482091665E-1,-3.016058207E-1
1.556749325E1,-1.278808713E0,-3.242071867E-1,-3.390202224E-1
1.557664554E1,-1.339740753E0,-8.536590636E-2,-3.938437700E-1
1.558579784E1,-1.328287363E0,1.211004704E-1,-4.978405237E-1
1.559495013E1,-1.267202616E0,1.108687744E-1,-6.293253899E-1
1.560408966E1,-1.174353838E0,3.848337755E-2,-7.214106321E-1
1.561325466E1,-1.092042208E0,1.469087601E-1,-7.281299233E-1
1.562240695E1,-1.032789946E0,3.894151151E-1,-6.827745438E-1
1.563155924E1,-1.005912781E0,6.623111367E-1,-6.113054156E-1
1.564071148E1,-1.028666735E0,8.980981708E-1,-5.254813433E-1
1.564986377E1,-1.073564053E0,1.121362805E0,-4.350759685E-1
1.565901607E1,-1.107160687E0,1.269798756E0,-3.742966652E-1
1.566816836E1,-1.081046939E0,1.302479029E0,-3.558185399E-1
1.567732060E1,-1.036149621E0,1.252542257E0,-3.720059693E-1
1.568647289E1,-1.035080671E0,1.148087382E0,-4.005630910E-1
1.569562518E1,-1.043937922E0,1.053406119E0,-4.439332485E-1
1.570477747E1,-1.002553105E0,9.123004079E-1,-4.827220440E-1
1.571392971E1,-9.594883323E-1,8.031114340E-1,-5.103628635E-1
1.572308200E1,-9.701781869E-1,7.579087615E-1,-5.323534012E-1
1.573223429E1,-9.894198179E-1,7.215633392E-1,-5.575508475E-1
1.574138659E1,-9.741486907E-1,6.853706241E-1,-5.763344169E-1
1.575053883E1,-9.417737722E-1,7.185090780E-1,-5.760289431E-1
1.575969112E1,-9.229902029E-1,7.444701195E-1,-5.766398311E-1
1.576884341E1,-9.069554806E-1,8.191461563E-1,-5.827482939E-1
1.577799570E1,-8.919897079E-1,9.391776323E-1,-5.801522136E-1
1.578714799E1,-8.851176500E-1,1.059056401E0,-5.662553906E-1
1.579630023E1,-8.678612709E-1,1.184585571E0,-5.436540842E-1
1.580545252E1,-8.643488884E-1,1.362342119E0,-5.479300022E-1
1.581460482E1,-8.750386834E-1,1.452594757E0,-5.541911721E-1
1.582375711E1,-8.690829277E-1,1.463590026E0,-5.474718809E-1
1.583290935E1,-8.533536196E-1,1.441904902E0,-5.491516590E-1
1.584206164E1,-8.196043372E-1,1.324316859E0,-5.641174316E-1
1.585121393E1,-7.722636461E-1,1.133885264E0,-5.905365944E-1
1.586036622E1,-7.319477201E-1,1.047603011E0,-6.267293096E-1
1.586951846E1,-7.285880446E-1,1.055391312E0,-6.731536984E-1
1.587867075E1,-7.559235096E-1,1.079977989E0,-6.995728016E-1
1.588782304E1,-7.765395641E-1,1.046075940E0,-7.113316059E-1
1.589697534E1,-7.725690603E-1,1.017671585E0,-7.266027927E-1
1.590612758E1,-6.960604787E-1,1.085780978E0,-7.449282408E-1
1.591527987E1,-5.535803437E-1,1.097997904E0,-7.660024762E-1
1.592443216E1,-4.834856093E-1,9.848384857E-1,-7.861604095E-1
1.593358445E1,-5.445703268E-1,9.376505613E-1,-8.104416132E-1
1.594273674E1,-6.499415040E-1,1.015686274E0,-8.423583508E-1
1.595188898E1,-6.962131858E-1,1.026376128E0,-8.616000414E-1
1.596104127E1,-6.365028620E-1,8.945857882E-1,-8.518264890E-1
1.597019356E1,-5.219689608E-1,7.525638342E-1,-8.278507590E-1
1.597934586E1,-4.660764635E-1,6.383354068E-1,-8.121214509E-1
1.598849810E1,-5.062396526E-1,5.766398311E-1,-8.251019120E-1
1.599765039E1,-5.632011890E-1,4.848600030E-1,-8.431219459E-1
1.600680268E1,-5.644228458E-1,3.353551328E-1,-8.295305967E-1
1.601595497E1,-5.184566379E-1,1.910424829E-1,-7.705838084E-1
1.602510721E1,-4.955498278E-1,8.597674966E-2,-7.136223316E-1
1.603425950E1,-5.135698318E-1,2.092151903E-2,-6.885775924E-1
1.604341179E1,-5.435013771E-1,4.856235534E-2,-6.864396334E-1
1.605256409E1,-5.430431962E-1,1.504211426E-1,-6.839962006E-1
1.606171638E1,-5.001311898E-1,2.170034945E-1,-6.439857483E-1
1.607086862E1,-4.311054647E-1,1.913478971E-1,-5.806103349E-1
1.608002091E1,-3.417690396E-1,9.773556143E-2,-5.176930428E-1
1.608917320E1,-2.168507725E-1,1.924168877E-2,-4.483618736E-1
1.609832549E1,-7.101099193E-2,-1.313321572E-2,-3.410054743E-1
1.610747778E1,9.681928903E-2,-1.085781008E-1,-1.664558798E-1
1.611663002E1,2.593046725E-1,-3.293993771E-1,3.939964995E-2
1.612578232E1,3.813214004E-1,-6.171084642E-1,2.231119573E-1
1.613493461E1,4.561502039E-1,-8.429692388E-1,3.636068404E-1
1.614408690E1,5.210527182E-1,-9.081771374E-1,4.686725736E-1
1.615323914E1,6.374191046E-1,-8.617527485E-1,5.549547076E-1
1.616239143E1,8.446490765E-1,-7.791357040E-1,6.479562521E-1
1.617154372E1,1.090056896E0,-7.114843726E-1,7.797465324E-1
1.618068325E1,1.279877663E0,-7.267554998E-1,9.617789984E-1
1.618984830E1,1.412431598E0,-7.690566778E-1,1.182600260E0
1.619900054E1,1.486649513E0,-8.802309036E-1,1.360204101E0
1.620814008E1,1.529561520E0,-1.136939406E0,1.513374090E0
1.621730513E1,1.627144337E0,-1.524216652E0,1.673721433E0
1.622645742E1,1.845674992E0,-1.816201568E0,1.793294787E0
1.623560971E1,2.107575655E0,-1.964484811E0,1.843536973E0
1.624476195E1,2.276169538E0,-1.937760234E0,1.828265905E0
1.625391424E1,2.319081545E0,-1.803679228E0,1.762447000E0
1.626305377E1,2.263189077E0,-1.639514089E0,1.655090690E0
1.627221882E1,2.160413980E0,-1.529866934E0,1.540709496E0
1.628137112E1,2.093220949E0,-1.579650998E0,1.507418275E0
1.629051065E1,2.082378387E0,-1.617523551E0,1.512763262E0
1.629967565E1,2.019155502E0,-1.505585790E0,1.509250879E0
1.630882794E1,1.887365341E0,-1.374406338E0,1.503295064E0
1.631798023E1,1.769471765E0,-1.275907159E0,1.476112366E0
1.632713247E1,1.709608793E0,-1.096623540E0,1.432894945E0
1.633628476E1,1.695101142E0,-7.658497691E-1,1.407392025E0
1.634542429E1,1.711441278E0,-4.101839364E-1,1.435491085E0
1.635458935E1,1.740914702E0,-1.531699449E-1,1.510472536E0
1.636374164E1,1.784590244E0,-1.046075895E-1,1.583468795E0
1.637288117E1,1.816048861E0,-1.911951900E-1,1.619203329E0
1.638204617E1,1.810093164E0,-3.413109183E-1,1.597823739E0
1.639119846E1,1.771762490E0,-5.176930428E-1,1.525743723E0
1.640033799E1,1.730530262E0,-7.212579250E-1,1.392426372E0
1.640950304E1,1.691436052E0,-9.691091776E-1,1.209172130E0
1.641865528E1,1.646538734E0,-1.176491857E0,1.042868972E0
1.642779482E1,1.629282355E0,-1.303242683E0,8.742751479E-1
1.643695987E1,1.633405566E0,-1.360356808E0,7.314895988E-1
1.644611216E1,1.612789512E0,-1.352873921E0,6.458182931E-1
1.645525169E1,1.562394619E0,-1.286138892E0,6.235223413E-1
1.646441674E1,1.495964885E0,-1.168703556E0,6.400152445E-1
1.647356898E1,1.424190402E0,-1.018129706E0,6.577298045E-1
1.648272127E1,1.336686492E0,-8.108997345E-1,6.502469182E-1
1.649187357E1,1.220014691E0,-5.659499764E-1,6.302416325E-1
1.650102586E1,1.081505060E0,-3.541387022E-1,5.919110179E-1
1.651017810E1,9.365815520E-1,-2.486148328E-1,5.279247165E-1
1.651933039E1,8.006680608E-1,-2.414373755E-1,4.445441067E-1
1.652848268E1,6.771242023E-1,-3.028275371E-1,3.562766612E-1
1.653763497E1,5.671716928E-1,-3.863608837E-1,2.799207568E-1
1.654678726E1,4.500417113E-1,-4.369085133E-1,2.052446753E-1
1.655593956E1,3.138227761E-1,-4.537068009E-1,1.236965731E-1
1.656509179E1,1.571404636E-1,-4.610369802E-1,2.367033064E-2
1.657424409E1,-5.344913341E-3,-4.512633979E-1,-6.856760383E-2
1.658339638E1,-1.658450365E-1,-3.932329118E-1,-1.227803007E-1
1.659254867E1,-2.935121059E-1,-3.129065037E-1,-1.391204596E-1
1.660170096E1,-3.903313875E-1,-2.353289127E-1,-1.349972486E-1
1.661085320E1,-4.749337435E-1,-1.401894391E-1,-1.404948682E-1
1.662000549E1,-5.448757410E-1,-2.886253223E-2,-1.588202864E-1
1.662915778E1,-6.177192926E-1,4.810422286E-2,-1.800472289E-1
1.663831008E1,-7.110261917E-1,9.712471068E-2,-2.229592502E-1
1.664744961E1,-8.348754644E-1,1.285833418E-1,-2.982461751E-1
1.665661461E1,-9.561286569E-1,1.659977436E-1,-4.036173224E-1
1.666576690E1,-1.049893737E0,2.255553454E-1,-5.080721974E-1
1.667490643E1,-9.926267862E-1,4.031592011E-1,-5.975613594E-1
1.668407148E1,-6.571189165E-1,7.860077024E-1,-6.894938350E-1
1.669322377E1,-2.570139766E-1,1.240630746E0,-7.921161652E-1
1.670236331E1,-5.066977739E-1,1.242616057E0,-8.011261821E-1
1.671152830E1,-1.363563776E0,6.474980712E-1,-6.864396334E-1
1.672068060E1,-2.030608892E0,5.299099684E-1,-5.745018721E-1
1.672982013E1,-2.317859888E0,8.498412371E-1,-5.108210444E-1
1.673898518E1,-2.075506210E0,1.406170368E0,-2.286095917E-1
1.674813747E1,-1.605917454E0,1.671125412E0,-2.519745007E-2
1.675727700E1,-1.273311138E0,9.162709117E-1,-2.622061968E-1
1.676644200E1,-1.212379098E0,-2.128802687E-1,-5.419742465E-1
1.677559429E1,-1.535517335E0,-8.038749695E-1,-5.602996349E-1
1.678473382E1,-1.777718186E0,-9.831586480E-1,-5.068505406E-1
1.679389888E1,-1.656465054E0,-9.336800575E-1,-5.390726924E-1
1.680305112E1,-1.310725451E0,-7.215633392E-1,-5.648810267E-1
1.681219070E1,-1.032179117E0,-5.095993280E-1,-5.349494815E-1
1.682135570E1,-9.941539168E-1,-3.672719002E-1,-5.176930428E-1
1.683050799E1,-1.088071704E0,-3.254288733E-1,-5.592306852E-1
1.683966028E1,-1.158471823E0,-2.751866877E-1,-6.250494719E-1
1.684881258E1,-1.147018433E0,-7.223268598E-2,-6.673506498E-1
1.685796482E1,-1.111283898E0,2.635805905E-1,-6.514685750E-1
1.686711711E1,-1.065623045E0,6.580352187E-1,-6.013791561E-1
1.687626940E1,-1.007287145E0,9.849911928E-1,-5.309789777E-1
1.688542169E1,-9.744541049E-1,1.129914761E0,-4.428642690E-1
1.689456122E1,-9.938485026E-1,1.212226391E0,-3.843756318E-1
1.690372627E1,-1.027597785E0,1.196497083E0,-3.565820754E-1
1.691287851E1,-1.042716265E0,1.085017443E0,-3.529170156E-1
1.692201804E1,-1.031110168E0,9.405520558E-1,-3.277195692E-1
1.693118310E1,-1.040578246E0,8.170081973E-1,-3.130592108E-1
1.694033539E1,-1.036302328E0,6.259657145E-1,-3.281776905E-1
1.694948768E1,-1.024238110E0,3.184041381E-1,-3.590254784E-1
1.695863992E1,-1.000720501E0,3.390202299E-2,-3.952181637E-1
1.696779221E1,-9.594883323E-1,-1.516428292E-1,-4.120164812E-1
1.697693174E1,-9.080244303E-1,-2.660239935E-1,-4.030064642E-1
1.698609679E1,-8.518264890E-1,-3.538332880E-1,-3.909422457E-1
1.699524909E1,-8.189934492E-1,-3.779617548E-1,-3.735330999E-1
1.700438862E1,-8.257128000E-1,-2.573194206E-1,-3.553603888E-1
1.701355362E1,-8.244910836E-1,-4.566083103E-2,-3.445178568E-1
1.702270591E1,-7.979192138E-1,1.646233350E-1,-3.439069986E-1
1.703185820E1,-7.571451664E-1,3.520007432E-1,-3.504736125E-1
1.704101049E1,-7.148439884E-1,5.273138881E-1,-3.698680103E-1
1.705016278E1,-6.772769094E-1,6.810947061E-1,-3.886515796E-1
1.705931508E1,-6.197045445E-1,8.148702383E-1,-4.207210541E-1
1.706846732E1,-5.262449384E-1,9.280297160E-1,-4.701996744E-1
1.707761961E1,-4.837910235E-1,1.029888511E0,-5.279247165E-1
1.708677190E1,-5.001311898E-1,1.158471823E0,-5.842754245E-1
1.709592419E1,-5.228852630E-1,1.329967141E0,-6.346703172E-1
1.710507648E1,-5.184566379E-1,1.478708506E0,-6.768187881E-1
1.711422877E1,-4.996730685E-1,1.530477762E0,-7.085828185E-1
1.712338101E1,-4.703523815E-1,1.572015405E0,-7.345438004E-1
1.713253331E1,-4.194993675E-1,1.538877010E0,-7.550072074E-1
1.714168560E1,-3.985778391E-1,1.476723194E0,-7.689039707E-1
1.715083789E1,-4.590517282E-1,1.501920700E0,-7.795938253E-1
1.715999018E1,-5.706840754E-1,1.579345584E0,-7.896727920E-1
1.716914247E1,-6.418477297E-1,1.611262321E0,-7.815790772E-1
1.717829471E1,-6.314633489E-1,1.602863193E0,-7.589777112E-1
1.718744700E1,-6.137487888E-1,1.551857471E0,-7.350019813E-1
1.719658653E1,-6.183301210E-1,1.421136141E0,-7.159129977E-1
1.720575159E1,-5.737382770E-1,1.169467092E0,-6.783458591E-1
1.721490388E1,-5.508314967E-1,1.001636744E0,-6.218425035E-1
1.722405617E1,-6.074876189E-1,9.155073166E-1,-6.001574397E-1
1.723320841E1,-6.371136904E-1,8.441908956E-1,-6.137487888E-1
1.724236070E1,-6.016845703E-1,6.905628443E-1,-6.293253899E-1
1.725151299E1,-5.479300022E-1,5.267030597E-1,-6.427640319E-1
1.726066528E1,-5.176930428E-1,3.898732662E-1,-6.552863717E-1
1.726981758E1,-5.199837089E-1,3.000787199E-1,-6.577298045E-1
1.727896987E1,-4.934118688E-1,2.260134816E-1,-6.238277555E-1
1.728812216E1,-4.469874799E-1,1.782146841E-1,-5.764871240E-1
1.729727440E1,-4.466820657E-1,1.908897758E-1,-5.489989519E-1
1.730642669E1,-4.480564594E-1,1.982199401E-1,-5.221216679E-1
1.731557898E1,-4.211791754E-1,2.194468826E-1,-5.030327439E-1
1.732473127E1,-4.008685052E-1,2.785463631E-1,-4.932591617E-1
1.733388356E1,-3.975088596E-1,3.274141252E-1,-4.853181541E-1
1.734303586E1,-4.191939235E-1,3.304683566E-1,-4.616478086E-1
1.735218815E1,-4.500417113E-1,3.058817685E-1,-4.208737612E-1
1.736134039E1,-4.509579837E-1,2.374668717E-1,-3.677300513E-1
1.737049268E1,-4.446968138E-1,1.417165697E-1,-3.242071867E-1
1.737964497E1,-4.404208660E-1,6.948387623E-2,-3.058817685E-1
1.738879726E1,-4.225535989E-1,6.642963737E-2,-3.124483824E-1
1.739794956E1,-3.588727713E-1,1.226275861E-1,-3.121429384E-1
1.740710185E1,-2.802261710E-1,1.450762302E-1,-2.999260128E-1
1.741624138E1,-2.008160353E-1,5.497625470E-2,-2.602209449E-1
1.742540638E1,-1.201841980E-1,-1.023169160E-1,-1.722589284E-1
1.743455867E1,-2.550287358E-2,-2.698417902E-1,-4.504998401E-2
1.744371096E1,9.651386738E-2,-4.793623984E-1,9.834641218E-2
1.745286325E1,2.608317733E-1,-7.166765332E-1,2.168507725E-1
1.746201554E1,4.578300118E-1,-9.371923804E-1,2.977880239E-1
1.747116784E1,6.624638438E-1,-1.098761559E0,3.603998721E-1
1.748032008E1,8.695410490E-1,-1.204132676E0,4.492781460E-1
1.748947237E1,1.092958450E0,-1.244143128E0,6.061131954E-1
1.749862466E1,1.253611326E0,-1.179851532E0,8.012788892E-1
1.750777695E1,1.343711257E0,-9.802571535E-1,9.654440880E-1
1.751692924E1,1.450456858E0,-7.478297353E-1,1.051573515E0
1.752606877E1,1.572778940E0,-5.213581324E-1,1.088835239E0
1.753523383E1,1.728086948E0,-4.756973088E-1,1.157097459E0
1.754438612E1,1.956391096E0,-5.515950918E-1,1.249182701E0
1.755352565E1,2.221804142E0,-5.796940327E-1,1.348139882E0
1.756269065E1,2.371919870E0,-5.140279531E-1,1.430909753E0
1.757184294E1,2.336032629E0,-4.446968138E-1,1.459924936E0
1.758099523E1,2.158734322E0,-4.756973088E-1,1.471531034E0
1.759014752E1,1.930277348E0,-5.844281316E-1,1.506043911E0
1.759929982E1,1.758171082E0,-7.797465324E-1,1.535517335E0
1.760845211E1,1.685327530E0,-9.895725846E-1,1.548650503E0
1.761760440E1,1.665016890E0,-1.196344376E0,1.511388779E0
1.762675664E1,1.704569221E0,-1.430451512E0,1.434880257E0
1.763590893E1,1.827502251E0,-1.579956412E0,1.358371615E0
1.764506122E1,1.986933470E0,-1.531088710E0,1.298355818E0
1.765421351E1,2.081920147E0,-1.306449533E0,1.249946237E0
1.766335304E1,2.065274477E0,-1.010646820E0,1.203827262E0
1.767251810E1,1.972273111E0,-7.783721089E-1,1.170688748E0
1.768167039E1,1.861098886E0,-6.111527085E-1,1.167329073E0
1.769082268E1,1.770388126E0,-4.726430774E-1,1.176339149E0
1.769997492E1,1.705180168E0,-3.407000601E-1,1.181225896E0
1.770912721E1,1.645775199E0,-3.281776905E-1,1.187639832E0
1.771827950E1,1.590340853E0,-3.420744538E-1,1.203674555E0
1.772743179E1,1.562852740E0,-3.075616062E-1,1.224901438E0
1.773658409E1,1.562547326E0,-3.384093940E-1,1.220014691E0
1.774572362E1,1.598281860E0,-4.373666346E-1,1.145185947E0
1.775488867E1,1.635543585E0,-5.583143830E-1,1.031873703E0
1.776404096E1,1.641957402E0,-6.618530154E-1,9.057337642E-1
1.777318049E1,1.611873150E0,-7.508839965E-1,7.882983685E-1
1.778234549E1,1.556896925E0,-8.399149776E-1,6.939224601E-1
1.779149778E1,1.507570982E0,-9.410101771E-1,6.148177385E-1
1.780065008E1,1.453052878E0,-1.015991688E0,5.479300022E-1
1.780980237E1,1.382347345E0,-1.016297102E0,4.888305068E-1
1.781895466E1,1.298050404E0,-9.491039515E-1,4.491254389E-1
1.782810695E1,1.203216434E0,-8.729007244E-1,4.312581718E-1
1.783725924E1,1.101662993E0,-8.151756525E-1,4.201101959E-1
1.784641153E1,1.025765300E0,-7.340856791E-1,4.005630910E-1
1.785556377E1,9.593356252E-1,-5.981721878E-1,3.791834414E-1
1.786471606E1,8.851176500E-1,-4.030064642E-1,3.547495604E-1
1.787386836E1,7.933378816E-1,-1.918060333E-1,3.313846290E-1
1.788302065E1,6.696413159E-1,5.039489828E-3,3.083251417E-1
1.789217294E1,5.431959033E-1,1.540862173E-1,2.823641598E-1
1.790132523E1,4.243861437E-1,2.206685692E-1,2.557922900E-1
1.791047752E1,3.284831047E-1,1.969982386E-1,2.344126403E-1
1.791962982E1,2.551814318E-1,1.406475753E-1,2.058555335E-1
1.792878211E1,1.922641695E-1,1.096470803E-1,1.528645307E-1
1.793793440E1,1.368297935E-1,1.250709742E-1,9.452861547E-2
1.794708669E1,7.834116369E-2,1.331647038E-1,4.275930673E-2
1.795623893E1,1.664558798E-2,8.948912472E-2,-9.162708884E-4
1.796539122E1,-4.382828996E-2,5.253286287E-2,-3.924693540E-2
1.797454351E1,-1.067455560E-1,6.978929788E-2,-7.574506104E-2
1.798369580E1,-1.748550236E-1,1.261399537E-1,-1.134648770E-1
1.799284810E1,-2.417428046E-1,1.722589284E-1,-1.482831687E-1
1.800200039E1,-3.077143133E-1,1.956238300E-1,-1.682884246E-1
1.801115268E1,-3.808632791E-1,2.443388999E-1,-1.730224788E-1
1.802030497E1,-4.552339315E-1,2.822114229E-1,-1.754658818E-1
1.802945726E1,-5.289937258E-1,2.651077211E-1,-1.698155403E-1
1.803860956E1,-5.995466113E-1,2.180724740E-1,-1.598892659E-1
1.804776179E1,-6.565080881E-1,1.679829955E-1,-1.516428292E-1
1.805691409E1,-7.044596076E-1,1.588202864E-1,-1.624853760E-1
1.806606638E1,-7.704311013E-1,1.850867122E-1,-1.898207814E-1
1.807521867E1,-8.457180262E-1,2.107423097E-1,-2.344126403E-1
1.808437096E1,-9.078717232E-1,2.225011140E-1,-2.866400778E-1
1.809352325E1,-9.599464536E-1,2.191414535E-1,-3.584146202E-1
1.810267554E1,-1.030652046E0,1.866138428E-1,-4.755446017E-1
1.811182784E1,-1.072953224E0,1.690519750E-1,-6.365028620E-1
1.812098013E1,-9.631534219E-1,3.090887070E-1,-7.939487100E-1
1.813011966E1,-6.910209656E-1,5.960342288E-1,-8.953493834E-1
1.813928471E1,-4.388937652E-1,7.922688723E-1,-8.748859763E-1
1.814843695E1,-5.166240931E-1,6.316160560E-1,-8.063184023E-1
1.815758924E1,-9.257390499E-1,1.808107942E-1,-7.802046537E-1
1.816674153E1,-1.386623263E0,2.046338283E-2,-7.631009221E-1
1.817589383E1,-1.640583038E0,-7.559234649E-2,-7.160657048E-1
1.818503336E1,-1.500240922E0,5.024218559E-2,-4.793623984E-1
1.819419841E1,-1.125486016E0,3.894151151E-1,-1.795890927E-1
1.820335070E1,-9.327637553E-1,4.604261220E-1,-1.392731816E-1
1.821249023E1,-1.123806238E0,9.330692142E-2,-2.698417902E-1
1.822165528E1,-1.295454383E0,-1.156028435E-1,-3.081724346E-1
1.823080758E1,-1.227955699E0,-2.000524700E-1,-2.171562016E-1
1.823994711E1,-1.133732557E0,-3.451287150E-1,-1.962346882E-1
1.824911211E1,-1.077687263E0,-4.411844313E-1,-2.849602401E-1
1.825826440E1,-1.096012712E0,-4.337015450E-1,-3.486410677E-1
1.826741669E1,-1.174201131E0,-3.614688516E-1,-3.657447994E-1
1.827656898E1,-1.198482275E0,-2.417428046E-1,-3.891097009E-1
1.828572127E1,-1.183363795E0,-1.340809762E-1,-4.245388508E-1
1.829487356E1,-1.168245435E0,-8.353336155E-2,-4.549284875E-1
1.830402586E1,-1.133732557E0,-6.413896102E-3,-4.718795121E-1
1.831317815E1,-1.090209603E0,9.681928903E-2,-4.752391577E-1
1.832233044E1,-1.049435616E0,2.318165302E-1,-4.769189954E-1
1.833148273E1,-1.016755223E0,3.674246371E-1,-4.779879749E-1
1.834063502E1,-9.665130973E-1,3.976615667E-1,-4.691306949E-1
1.834978732E1,-9.523108602E-1,4.417952895E-1,-4.379774928E-1
1.835893956E1,-9.978190064E-1,5.575508475E-1,-4.023956358E-1
1.836809185E1,-1.055849433E0,6.311579347E-1,-3.729222417E-1
1.837723138E1,-1.091584086E0,6.824691296E-1,-3.396310806E-1
1.838639643E1,-1.123806238E0,7.356128097E-1,-2.996205688E-1
1.839554872E1,-1.137855768E0,7.015580535E-1,-2.336490750E-1
1.840470101E1,-1.113574505E0,5.722111464E-1,-1.785201132E-1
1.841385330E1,-1.080436110E0,3.848337829E-1,-1.609582454E-1
1.842300560E1,-1.034317136E0,1.698155403E-1,-1.605001241E-1
1.843215789E1,-9.727742672E-1,-1.267508045E-2,-1.672194302E-1
1.844131018E1,-9.400939345E-1,-1.441599578E-1,-1.882936656E-1
1.845046247E1,-9.353598356E-1,-1.882936656E-1,-2.298312783E-1
1.845961471E1,-9.431481957E-1,-1.029277667E-1,-2.756448388E-1
1.846876700E1,-9.373451471E-1,2.473931387E-2,-3.118375242E-1
1.847791929E1,-9.173398614E-1,2.687727809E-1,-3.252761662E-1
1.848707159E1,-9.248227477E-1,4.039227366E-1,-2.771719396E-1
1.849622388E1,-9.785773158E-1,4.278984964E-1,-2.970244884E-1
1.850537617E1,-1.016449809E0,4.793623984E-1,-3.529170156E-1
1.851452846E1,-1.013090134E0,5.358657837E-1,-3.956763148E-1
1.852368075E1,-9.752176404E-1,5.859552622E-1,-4.010212123E-1
1.853283304E1,-9.426900148E-1,6.644490957E-1,-3.917058110E-1
1.854198534E1,-9.336800575E-1,7.579087615E-1,-3.947600424E-1
1.855113763E1,-9.268079996E-1,8.186880350E-1,-4.130854607E-1
1.856028992E1,-8.973346353E-1,9.107732773E-1,-4.404208660E-1
1.856944221E1,-8.788564801E-1,1.010646820E0,-4.763081372E-1
1.857859450E1,-8.597674966E-1,1.032942772E0,-5.170822144E-1
1.858774679E1,-8.347227573E-1,1.064095974E0,-5.462501645E-1
1.859689903E1,-8.364025950E-1,1.120599270E0,-5.683933496E-1
1.860605133E1,-8.521319032E-1,1.183822036E0,-5.911474228E-1
1.861520362E1,-8.464815617E-1,1.296065211E0,-5.813738704E-1
1.862435591E1,-8.272398710E-1,1.342489600E0,-5.592306852E-1
1.863350820E1,-8.214368224E-1,1.318971992E0,-5.738909841E-1
1.864266049E1,-7.731798887E-1,1.317139387E0,-6.041279435E-1
1.865181278E1,-6.636855602E-1,1.349208832E0,-6.123743653E-1
1.866096508E1,-5.456393361E-1,1.303548098E0,-6.055023670E-1
1.867011737E1,-4.706578255E-1,1.261094213E0,-5.914528370E-1
1.867926966E1,-4.685198367E-1,1.293469071E0,-5.932853818E-1
1.868842195E1,-5.157077909E-1,1.277739763E0,-6.119162440E-1
1.869757424E1,-5.462501645E-1,1.164885759E0,-6.102364063E-1
1.870672653E1,-5.120427012E-1,9.813261032E-1,-5.745018721E-1
1.871587882E1,-4.129327536E-1,7.612683773E-1,-5.253286362E-1
1.872503112E1,-2.898470163E-1,6.139014959E-1,-4.737120569E-1
1.873417065E1,-1.658450365E-1,4.454603493E-1,-4.422534108E-1
1.874333565E1,-8.857285604E-3,1.777565479E-1,-3.944546282E-1
1.875248794E1,2.177670449E-1,-1.282779276E-1,-3.078670204E-1
1.876162752E1,4.318690002E-1,-3.306210935E-1,-2.127275616E-1
1.877079252E1,5.308262706E-1,-3.356605768E-1,-1.478250325E-1
1.877994482E1,5.102101564E-1,-1.566823274E-1,-1.420219839E-1
1.878908435E1,3.970507085E-1,1.091889441E-1,-2.121167034E-1
1.879824940E1,2.309002578E-1,4.211791754E-1,-3.239017725E-1
1.880740169E1,7.238540053E-2,6.725428104E-1,-4.181249440E-1
1.881654122E1,-4.245388508E-2,7.896727920E-1,-4.611896873E-1
1.882570627E1,-1.027750522E-1,7.847860456E-1,-4.602734149E-1
1.883485856E1,-1.262926757E-1,7.065975666E-1,-4.366030693E-1
1.884399810E1,-1.447708011E-1,5.702258945E-1,-4.439332485E-1
1.885316315E1,-1.236965731E-1,3.765873313E-1,-4.906630516E-1
1.886231544E1,-7.330167294E-2,1.863084137E-1,-5.115845799E-1
1.887146773E1,-7.925742865E-2,9.773556143E-3,-4.778352678E-1
1.888062002E1,-1.299577504E-1,-1.298050433E-1,-4.182776511E-1
1.888977232E1,-1.838650256E-1,-1.966928244E-1,-3.770454824E-1
1.889892461E1,-2.032594234E-1,-2.357870489E-1,-3.552076817E-1
1.890807690E1,-2.006633282E-1,-2.670929730E-1,-3.356605768E-1
1.891722914E1,-2.240282297E-1,-2.736595869E-1,-3.174878657E-1
1.892638143E1,-2.603736520E-1,-2.886253297E-1,-3.055763543E-1
1.893553372E1,-2.835858464E-1,-3.182514310E-1,-3.020639718E-1
1.894468601E1,-2.945810854E-1,-3.290939629E-1,-2.997733057E-1
1.895383830E1,-2.933593988E-1,-2.585411072E-1,-2.948864996E-1
1.896299060E1,-3.074088693E-1,-1.357607991E-1,-2.956500649E-1
1.897214289E1,-3.379512429E-1,-2.794626169E-2,-2.922904193E-1
1.898129518E1,-3.567348123E-1,1.068982761E-3,-2.710634768E-1
1.899044747E1,-3.532224298E-1,-6.810946763E-2,-2.379250079E-1
1.899959976E1,-3.300102353E-1,-1.962346882E-1,-1.948602796E-1
1.900875206E1,-3.037438095E-1,-3.478775024E-1,-1.391204596E-1
1.901790435E1,-3.017585576E-1,-5.186093450E-1,-8.032641560E-2
1.902705664E1,-3.266505599E-1,-7.229377031E-1,-3.466558084E-2
1.903620893E1,-3.558185399E-1,-9.211576581E-1,-1.389677543E-2
1.904536122E1,-3.681881726E-1,-1.055544019E0,-1.145338640E-2
1.905451351E1,-3.561239541E-1,-1.105480790E0,-8.246437646E-3
1.906366581E1,-3.083251417E-1,-1.080588818E0,1.343864016E-2
1.907281810E1,-2.110477239E-1,-1.022405624E0,6.230641901E-2
1.908197039E1,-6.459710002E-2,-9.634588361E-1,1.377460510E-1
1.909112268E1,1.363716573E-1,-9.367342591E-1,2.454078794E-1
1.910027497E1,3.955236077E-1,-9.863656163E-1,4.042281806E-1
1.910942721E1,6.846070886E-1,-1.070051670E0,5.963396430E-1
1.911857950E1,9.445225596E-1,-1.072495103E0,7.983773947E-1
1.912773179E1,1.174048424E0,-1.028819442E0,9.623898268E-1
1.913688409E1,1.403727055E0,-9.720106721E-1,1.053253412E0
1.914603638E1,1.601183414E0,-8.739697337E-1,1.089446068E0
1.915518867E1,1.790240645E0,-8.226585388E-1,1.156639338E0
1.916434096E1,1.990445852E0,-7.721109390E-1,1.231926203E0
1.917349325E1,2.163468361E0,-6.336013079E-1,1.298355818E0
1.918264554E1,2.246543407E0,-4.619532526E-1,1.377613306E0
1.919179784E1,2.236464500E0,-3.274141252E-1,1.449998736E0
1.920095013E1,2.188971043E0,-2.628170252E-1,1.477792263E0
1.921010242E1,2.140866995E0,-3.237490356E-1,1.468934894E0
1.921925471E1,2.092304468E0,-4.903576374E-1,1.453358293E0
1.922839424E1,2.029234648E0,-7.941014171E-1,1.449540496E0
1.923755929E1,1.984948158E0,-1.161220670E0,1.453816533E0
1.924671159E1,2.016559601E0,-1.444348335E0,1.428619027E0
1.925586388E1,2.112767935E0,-1.566823244E0,1.367686987E0
1.926501617E1,2.218444586E0,-1.569266558E0,1.324469566E0
1.927416846E1,2.307017326E0,-1.484817028E0,1.308434844E0
1.928330799E1,2.375126839E0,-1.303853512E0,1.296676040E0
1.929247304E1,2.396353722E0,-9.767447710E-1,1.288582325E0
1.930162534E1,2.356037855E0,-6.085565686E-1,1.284459114E0
1.931077763E1,2.273573399E0,-3.400892019E-1,1.275601745E0
1.931992992E1,2.190956354E0,-1.823379099E-1,1.269493341E0
1.932908221E1,2.126053810E0,-1.119377613E-1,1.285375357E0
1.933822174E1,2.089097738E0,-5.635065958E-2,1.306449533E0
1.934738679E1,2.087265015E0,-4.199574888E-2,1.309503794E0
1.935653909E1,2.111851692E0,-1.612636745E-1,1.272547603E0
1.936569132E1,2.126817465E0,-3.515425920E-1,1.174506545E0
1.937484362E1,2.113684177E0,-5.389199853E-1,1.045159698E0
1.938399591E1,2.082378387E0,-7.056813240E-1,9.216157794E-1
1.939314820E1,2.043742180E0,-8.235748410E-1,8.261709213E-1
1.940230049E1,1.997623205E0,-9.324583411E-1,7.423321605E-1
1.941145278E1,1.951962471E0,-1.031110168E0,6.558972597E-1
1.942060508E1,1.896375299E0,-1.047755718E0,5.596888065E-1
1.942975737E1,1.816506982E0,-9.628480077E-1,4.558447599E-1
1.943890966E1,1.696170092E0,-8.254073858E-1,3.626905680E-1
1.944806195E1,1.538266063E0,-7.041541934E-1,2.863346636E-1
1.945721424E1,1.371657491E0,-6.409314871E-1,1.849340051E-1
1.946636653E1,1.207797766E0,-6.035171151E-1,9.712471068E-2
1.947551882E1,1.053406119E0,-5.485408306E-1,4.092676565E-2
1.948467112E1,8.938222528E-1,-4.634803534E-1,8.704573847E-3
1.949382341E1,7.072083950E-1,-3.897205591E-1,-3.115320951E-2
1.950297570E1,5.062396526E-1,-3.506263196E-1,-9.727742523E-2
1.951212799E1,2.863346636E-1,-3.584146202E-1,-1.598892659E-1
1.952128028E1,7.101099193E-2,-3.860554695E-1,-1.992889196E-1
1.953043258E1,-1.243074164E-1,-3.871244490E-1,-2.275405973E-1
1.953958487E1,-3.075616062E-1,-3.506263196E-1,-2.509055138E-1
1.954873716E1,-4.769189954E-1,-2.786990702E-1,-2.832804024E-1
1.955788945E1,-6.227588058E-1,-2.110477239E-1,-3.191677034E-1
1.956704174E1,-7.481352091E-1,-1.722589284E-1,-3.542914093E-1
1.957619403E1,-8.620582223E-1,-1.766875684E-1,-3.849864900E-1
1.958534632E1,-9.538379908E-1,-2.316638231E-1,-4.014793634E-1
1.959449862E1,-1.025307178E0,-3.203893900E-1,-3.866663277E-1
1.960365091E1,-1.070815206E0,-4.245388508E-1,-3.545968235E-1
1.961280320E1,-1.045312405E0,-5.364766121E-1,-3.060344756E-1
1.962195549E1,-9.906415343E-1,-6.067240238E-1,-2.597627938E-1
1.963110778E1,-9.654440880E-1,-5.938962698E-1,-2.516690791E-1
1.964026008E1,-9.187142849E-1,-5.723638535E-1,-2.837385535E-1
1.964941237E1,-7.663078904E-1,-4.915793240E-1,-3.474193811E-1
1.965856466E1,-4.037700295E-1,-1.380514801E-1,-3.866663277E-1
1.966770419E1,-5.512896553E-2,3.794888556E-1,-3.961344361E-1
1.967686924E1,-3.358132839E-1,6.763606071E-1,-3.617742956E-1
1.968602153E1,-1.125638843E0,9.614735842E-1,-3.345915973E-1
1.969516106E1,-1.875453830E0,1.232384324E0,-3.920112252E-1
1.970432612E1,-2.286095858E0,1.014311910E0,-3.593308926E-1
1.971347841E1,-2.221346140E0,1.752826214E0,2.473931387E-2
1.972261794E1,-1.808107853E0,2.992846251E0,2.973299026E-1
1.973178299E1,-1.192984700E0,2.615648031E0,5.879404768E-2
1.974093528E1,-7.589777112E-1,1.067913771E0,-3.826957941E-1
1.975007482E1,-8.958075047E-1,-2.400629669E-1,-5.500679612E-1
1.975923982E1,-1.191915751E0,-5.630484819E-1,-4.187358022E-1
1.976839211E1,-1.260941505E0,-4.585935771E-1,-3.277195692E-1
1.977753169E1,-1.215586066E0,-5.167768002E-1,-4.312581718E-1
1.978669669E1,-1.160609841E0,-7.545490861E-1,-5.577035546E-1
1.979584898E1,-1.133427143E0,-8.823688626E-1,-5.873296261E-1
1.980498857E1,-1.150530815E0,-5.503733754E-1,-5.967977643E-1
1.981415356E1,-1.180767775E0,-4.627167806E-2,-6.493306160E-1
1.982330586E1,-1.171910524E0,3.849864900E-1,-6.978929639E-1
1.983245815E1,-1.147629261E0,6.531484127E-1,-7.282826304E-1
1.984161044E1,-1.173590302E0,7.832589149E-1,-7.371399403E-1
1.985076273E1,-1.220320106E0,8.470924497E-1,-7.331694365E-1
1.985991502E1,-1.250251651E0,8.831323981E-1,-7.353073955E-1
1.986906732E1,-1.231009960E0,7.881456614E-1,-7.094991207E-1
1.987821961E1,-1.235133171E0,6.624638438E-1,-6.148177385E-1
1.988737190E1,-1.212837219E0,9.306257963E-1,-6.325323582E-1
1.989652419E1,-1.160304427E0,8.463288546E-1,-6.369609833E-1
1.990567648E1,-1.171604991E0,7.837170362E-1,-5.984776020E-1
1.991482877E1,-1.211310148E0,6.345176101E-1,-5.314370990E-1
1.992398106E1,-1.225512266E0,6.299362183E-1,-4.822639227E-1
1.993313336E1,-1.226428628E0,5.129590034E-1,-4.918847680E-1
1.994228565E1,-1.218640327E0,5.001311898E-1,-5.291464329E-1
1.995143794E1,-1.190846682E0,6.386408210E-1,-5.735855699E-1
1.996059023E1,-1.103953719E0,9.249754548E-1,-5.694623590E-1
1.996974252E1,-1.123042703E0,8.629744649E-1,-5.694623590E-1
1.997889482E1,-1.177560806E0,9.090934396E-1,-6.120689511E-1
1.998804711E1,-1.207186937E0,1.082879424E0,-6.710157394E-1
1.999719940E1,-1.187945247E0,1.220167398E0,-7.033905983E-1
2.000635169E1,-1.174811959E0,1.265370131E0,-7.217160463E-1
2.001550398E1,-1.164122105E0,1.238340139E0,-7.148439884E-1
2.002465627E1,-1.121210098E0,1.186112642E0,-6.931589246E-1
2.003380856E1,-1.078145385E0,1.136175871E0,-6.781931520E-1
2.004296086E1,-1.074174881E0,1.023474574E0,-6.700994372E-1
2.005211315E1,-1.070204377E0,8.536590338E-1,-6.558972597E-1
2.006126544E1,-1.031110168E0,7.302678823E-1,-6.413896084E-1
2.007041773E1,-9.962918758E-1,6.267293096E-1,-6.355865598E-1
2.007957002E1,-9.356653094E-1,3.874298632E-1,-6.284091473E-1
2.008872232E1,-8.593093753E-1,1.846285909E-1,-6.093201637E-1
2.009787461E1,-8.160919547E-1,9.544488788E-2,-5.931326747E-1
2.010702690E1,-7.951704264E-1,9.330692142E-2,-5.770979524E-1
2.011617919E1,-7.777612805E-1,1.385096163E-1,-5.439594984E-1
2.012533148E1,-7.740961909E-1,1.924168915E-1,-5.080721974E-1
2.013448377E1,-7.595885396E-1,2.141019702E-1,-4.834856093E-1
2.014363607E1,-7.232431769E-1,1.986780763E-1,-4.685198367E-1
2.015278836E1,-6.821636558E-1,1.438545287E-1,-4.480564594E-1
2.016194065E1,-6.513158679E-1,1.296523362E-1,-4.185830951E-1
2.017109294E1,-6.540647149E-1,1.507265568E-1,-4.094203711E-1
2.018024523E1,-6.534538269E-1,2.309002578E-1,-4.081986845E-1
2.018939752E1,-6.053496599E-1,2.846548259E-1,-3.950654566E-1
2.019854982E1,-5.375455618E-1,2.860292196E-1,-3.695625961E-1
2.020770211E1,-5.030327439E-1,2.638860047E-1,-3.486410677E-1
2.021685440E1,-5.019637346E-1,2.067717910E-1,-3.295520842E-1
2.022600669E1,-4.608842432E-1,1.527118087E-1,-3.042019308E-1
2.023515898E1,-3.865135908E-1,9.987352788E-2,-2.884726226E-1
2.024431127E1,-3.292466700E-1,2.886253223E-2,-2.709107697E-1
2.025346356E1,-3.025220931E-1,-7.788302377E-3,-2.341072112E-1
2.026261586E1,-3.115321100E-1,6.872031838E-3,-2.011214644E-1
2.027176815E1,-3.323009014E-1,5.757235363E-2,-1.896680743E-1
2.028092044E1,-3.483356535E-1,1.339282542E-1,-1.904316396E-1
2.029007273E1,-3.445178568E-1,1.852394342E-1,-1.843231618E-1
2.029922502E1,-3.058817685E-1,1.847812980E-1,-1.595838517E-1
2.030837732E1,-2.924431264E-1,1.910424829E-1,-1.345391124E-1
2.031752961E1,-3.370349705E-1,1.372879148E-1,-1.104106456E-1
2.032668190E1,-3.840702176E-1,5.955760833E-3,-9.849911928E-2
2.033583419E1,-3.935383558E-1,-1.742441803E-1,-9.529217333E-2
2.034498653E1,-3.565820754E-1,-3.176405728E-1,-8.765657991E-2
2.035413877E1,-2.791571915E-1,-4.228590131E-1,-9.009996802E-2
2.036329112E1,-2.075353563E-1,-5.066977739E-1,-1.078145429E-1
2.037244336E1,-1.524063945E-1,-5.920637250E-1,-1.055238619E-1
2.038158294E1,-1.505738497E-1,-6.745280623E-1,-8.704573661E-2
2.039074799E1,-1.934858710E-1,-7.162184119E-1,-6.841489673E-2
2.039990028E1,-2.617480457E-1,-6.584933400E-1,-6.902574003E-2
2.040905258E1,-3.526115716E-1,-4.700469673E-1,-9.666658193E-2
2.041820487E1,-3.994941115E-1,-1.827960461E-1,-1.301104724E-1
2.042735716E1,-4.059080184E-1,7.146912813E-2,-1.505738497E-1
2.043649669E1,-3.720059693E-1,1.950129867E-1,-1.398840249E-1
2.044566174E1,-3.222219348E-1,1.151447073E-1,-8.093725890E-2
2.045481403E1,-2.757975459E-1,-8.276980370E-2,-7.177455351E-3
2.046396632E1,-2.622061968E-1,-3.180987239E-1,4.367557913E-2
2.047311862E1,-2.909159958E-1,-4.958552718E-1,6.688777357E-2
2.048227091E1,-3.315373361E-1,-5.766398311E-1,7.269082218E-2
2.049142320E1,-3.587200642E-1,-5.592306852E-1,6.887302548E-2
2.050057549E1,-3.884988427E-1,-4.766135812E-1,6.551336497E-2
2.050972778E1,-4.100312293E-1,-3.362714052E-1,6.536065787E-2
2.051888008E1,-4.207210541E-1,-1.815743446E-1,6.444438547E-2
2.052803237E1,-4.085040987E-1,-7.666133344E-2,5.283828825E-2
2.053718466E1,-3.874298632E-1,-6.261184346E-3,2.489202656E-2
2.054633695E1,-3.663556576E-1,4.963133857E-2,-1.404948719E-2
2.055548924E1,-3.498627543E-1,1.050657257E-1,-5.864133686E-2
2.056464153E1,-3.448232710E-1,1.728697717E-1,-9.529217333E-2
2.057379383E1,-3.503209054E-1,2.415900975E-1,-1.197260618E-1
2.058294612E1,-3.631486893E-1,3.048127890E-1,-1.308740228E-1
2.059209841E1,-3.738385141E-1,3.451287150E-1,-1.353026628E-1
2.060125070E1,-3.826957941E-1,3.558185399E-1,-1.408002973E-1
2.061040299E1,-3.903313875E-1,3.329117596E-1,-1.548497826E-1
2.061955528E1,-3.917058110E-1,2.845021188E-1,-1.817270666E-1
2.062870758E1,-3.830012381E-1,2.272351831E-1,-2.170034945E-1
2.063785987E1,-3.600944579E-1,1.542389393E-1,-2.429644912E-1
2.064701216E1,-3.345915973E-1,7.589777559E-2,-2.544178963E-1
2.065616445E1,-3.199312389E-1,3.665083554E-3,-2.554868758E-1
2.066531674E1,-3.138227761E-1,-6.383354217E-2,-2.481566966E-1
2.067446903E1,-3.101576865E-1,-1.227803007E-1,-2.296785712E-1
2.068362132E1,-3.025220931E-1,-1.637070626E-1,-2.052446753E-1
2.069277362E1,-2.845021188E-1,-1.924168915E-1,-1.721062213E-1
2.070192591E1,-2.493783981E-1,-2.199050188E-1,-1.333174109E-1
2.071107825E1,-1.994416267E-1,-2.299840003E-1,-9.941539168E-2
2.072023054E1,-1.524063945E-1,-2.081461996E-1,-7.589777559E-2
2.072938284E1,-1.128540337E-1,-1.501157135E-1,-5.604523420E-2
2.073853513E1,-7.620319724E-2,-5.787777901E-2,-3.512371704E-2
2.074768742E1,-5.207473040E-2,6.154286116E-2,-1.740914769E-2
2.075683971E1,-4.382828996E-2,1.815743446E-1,-3.970507067E-3
2.076599200E1,-4.840964451E-2,2.774773538E-1,3.817795310E-3
2.077514429E1,-6.016845629E-2,3.515425920E-1,3.817795310E-3
2.078429659E1,-6.933116168E-2,4.098785222E-1,-4.275931045E-3
2.079344888E1,-7.574506104E-2,4.538595080E-1,-1.481304597E-2
2.080260117E1,-8.154810965E-2,4.815003574E-1,-3.191677108E-2
2.081175346E1,-9.376505762E-2,4.837910235E-1,-5.696150661E-2
2.082090575E1,-1.188097894E-1,4.625640810E-1,-8.582404256E-2
2.083005804E1,-1.533226669E-1,4.178195298E-1,-1.105633527E-1
2.083921034E1,-1.823379099E-1,3.574983478E-1,-1.339282542E-1
2.084836263E1,-1.933331639E-1,2.790044844E-1,-1.485885978E-1
2.085751492E1,-1.844758689E-1,1.838650256E-1,-1.478250325E-1
2.086666721E1,-1.658450365E-1,9.345962852E-2,-1.378987730E-1
2.087581950E1,-1.435490996E-1,1.343864016E-2,-1.223221645E-1
2.088497179E1,-1.276670843E-1,-6.001574174E-2,-1.068982705E-1
2.089412409E1,-1.073564067E-1,-1.243074164E-1,-8.964183182E-2
2.090327638E1,-7.620319724E-2,-1.766875684E-1,-6.856760383E-2
2.091242867E1,-4.382828996E-2,-2.108950168E-1,-5.008947477E-2
2.092158096E1,-2.550287358E-2,-2.150182426E-1,-3.588727489E-2
2.093073325E1,-1.817270555E-2,-1.962346882E-1,-2.244863659E-2
2.093988560E1,-1.618745178E-2,-1.594311297E-1,-1.389677543E-2
2.094903789E1,-1.282779220E-2,-1.209477559E-1,-1.206423342E-2
2.095819018E1,-1.206423342E-2,-7.391251624E-2,-1.267508045E-2
2.096734247E1,-7.482878864E-3,-2.321219631E-2,-1.267508045E-2
2.097649476E1,3.054236295E-3,3.283303976E-2,-1.145338640E-2
2.098564706E1,1.435491070E-2,8.765657991E-2,-9.620844387E-3
2.099479935E1,2.626643144E-2,1.328592747E-1,-1.007897966E-2
2.100395164E1,3.512371704E-2,1.653869003E-1,-1.130067464E-2
2.101310393E1,4.184303805E-2,1.847812980E-1,-1.313321572E-2
2.102225622E1,4.978405312E-2,1.846285909E-1,-1.801999472E-2
2.103140851E1,5.375456065E-2,1.684411317E-1,-2.031067200E-2
2.104056081E1,5.146388337E-2,1.424801201E-1,-2.214321308E-2
2.104971310E1,4.795150831E-2,1.154501289E-1,-2.153236605E-2
2.105886539E1,5.085303262E-2,8.231166750E-2,-1.969982497E-2
2.106801768E1,5.421269313E-2,5.039490014E-2,-2.092151903E-2
2.107716997E1,5.558710173E-2,2.076880634E-2,-2.214321308E-2
2.108632226E1,5.528167635E-2,-6.872031838E-3,-2.321219631E-2
2.109547456E1,5.421269313E-2,-3.038965166E-2,-2.443389036E-2
2.110462685E1,5.986303091E-2,-4.306473210E-2,-2.504473738E-2
2.111377914E1,5.940489471E-2,-5.696150661E-2,-2.321219631E-2
2.112293143E1,4.734066129E-2,-8.399149776E-2,-2.504473738E-2
2.113208377E1,3.390202299E-2,-1.081199646E-1,-2.886253223E-2
2.114123601E1,2.794626169E-2,-1.214058921E-1,-2.702999115E-2
2.115038836E1,2.672456764E-2,-1.281252056E-1,-2.580829710E-2
2.115954065E1,3.115320951E-2,-1.377460510E-1,-2.519745007E-2
2.116869294E1,3.985778242E-2,-1.467560530E-1,-2.321219631E-2
2.117784523E1,5.268557742E-2,-1.473668963E-1,-1.710372418E-2
2.118699752E1,6.490252167E-2,-1.388150454E-1,-1.267508045E-2
2.119614982E1,7.528692484E-2,-1.230857223E-1,-7.788302377E-3
2.120530211E1,7.941014320E-2,-1.020114943E-1,-4.734066315E-3
2.121445440E1,8.108997345E-2,-8.750387281E-2,-1.068982761E-3
2.122360669E1,7.925742865E-2,-8.399149776E-2,-1.679830020E-3
2.123275898E1,7.681404054E-2,-8.994726092E-2,-5.344913341E-3
2.124191127E1,8.002099395E-2,-9.910997003E-2,-7.177455351E-3
2.125106357E1,9.055810422E-2,-1.085781008E-1,-7.635590620E-3
2.126021586E1,9.865183383E-2,-1.200314835E-1,-8.857285604E-3
2.126936815E1,9.208522737E-2,-1.351499557E-1,-1.679829881E-2
2.127852044E1,7.803573459E-2,-1.502684206E-1,-2.489202656E-2
2.128767273E1,7.085828483E-2,-1.624853760E-1,-3.405473381E-2
2.129682502E1,7.024743408E-2,-1.637070626E-1,-3.833066672E-2
2.130597737E1,6.520794332E-2,-1.516428292E-1,-4.199574888E-2
2.131512966E1,4.596625641E-2,-1.340809762E-1,-4.764608666E-2
2.132428195E1,1.634016447E-2,-1.227803007E-1,-5.451811850E-2
2.133343424E1,-1.130067464E-2,-1.247655526E-1,-5.909947306E-2
2.134258653E1,-2.916795574E-2,-1.349972486E-1,-5.986303091E-2
2.135173882E1,-3.268032894E-2,-1.470614821E-1,-6.047387794E-2
2.136089112E1,-2.764083818E-2,-1.601946950E-1,-5.909947306E-2
2.137004341E1,-1.389677543E-2,-1.818797737E-1,-5.604523420E-2
2.137919570E1,4.123218823E-3,-2.035648525E-1,-5.161659420E-2
2.138834799E1,2.015795931E-2,-2.150182426E-1,-4.718795046E-2
2.139750028E1,3.237490356E-2,-2.089097649E-1,-4.275930673E-2
2.140665258E1,4.031591862E-2,-1.889045089E-1,-3.787253052E-2
2.141580487E1,4.734066129E-2,-1.559187621E-1,-3.542914242E-2
2.142495716E1,4.886778072E-2,-1.148392856E-1,-3.054236248E-2
2.143410945E1,4.779879749E-2,-7.146912813E-2,-2.443389036E-2
2.144326179E1,4.504998401E-2,-3.100049868E-2,-1.786728203E-2
2.145241409E1,3.802524135E-2,-5.039489828E-3,-1.542389300E-2
2.146156638E1,3.100049868E-2,6.261184346E-3,-1.618745178E-2
2.147071867E1,2.794626169E-2,9.315420873E-3,-1.801999472E-2
2.147987096E1,2.733541466E-2,3.206948051E-3,-1.801999472E-2
2.148902325E1,3.115320951E-2,-8.093725890E-3,-1.359135192E-2
2.149817554E1,3.374931216E-2,-2.443389036E-2,-1.053711493E-2
2.150732784E1,3.695625812E-2,-3.405473381E-2,-1.114796288E-2
2.151648013E1,3.023693897E-2,-3.833066672E-2,-1.359135192E-2
2.152563242E1,1.603474095E-2,-3.710897267E-2,-1.679829881E-2
2.153478471E1,6.108472589E-4,-2.870982140E-2,-1.756185852E-2
2.154393700E1,-1.359135192E-2,-2.153236605E-2,-2.000524849E-2
2.155308929E1,-2.535016090E-2,-2.275406010E-2,-2.015795931E-2
2.156224164E1,-2.718270384E-2,-2.932066843E-2,-2.199050039E-2
2.157139393E1,-2.580829710E-2,-3.833066672E-2,-2.015795931E-2
2.158054622E1,-2.641914412E-2,-4.077405483E-2,-1.954711229E-2
2.158969851E1,-3.084778599E-2,-3.481829539E-2,-1.893626526E-2
2.159885080E1,-3.527642787E-2,-2.932066843E-2,-1.847812906E-2
2.160800310E1,-3.283303976E-2,-2.397575416E-2,-1.710372418E-2
2.161715539E1,-3.100049868E-2,-1.130067464E-2,-1.466033421E-2
2.162630768E1,-2.870982140E-2,7.635590737E-4,-1.221694518E-2
2.163545997E1,-2.519745007E-2,1.832541823E-2,-5.497625098E-3
2.164461226E1,-2.718270384E-2,3.634541109E-2,-4.886778072E-3
2.165376456E1,-3.344388679E-2,5.085303262E-2,-2.596100792E-3
2.166291685E1,-3.665083647E-2,6.413896382E-2,-1.985253533E-3
2.167206914E1,-3.619270027E-2,7.925742865E-2,-2.596100792E-3
2.168122143E1,-3.145863488E-2,9.116895497E-2,-3.817795310E-3
2.169037377E1,-2.473931387E-2,9.910997003E-2,-3.206948051E-3
2.169952606E1,-2.779355086E-2,1.032331884E-1,-3.817795310E-3
2.170867836E1,-3.894151375E-2,9.956810623E-2,-3.817795310E-3
2.171783065E1,-5.421269313E-2,8.811471611E-2,-6.413896102E-3
2.172698294E1,-6.200099736E-2,6.826218218E-2,-1.007897966E-2
2.173613523E1,-6.230641901E-2,4.245388508E-2,-1.007897966E-2
2.174528752E1,-5.848862603E-2,2.305948362E-2,-1.313321572E-2
2.175443982E1,-5.894676223E-2,1.404948719E-2,-1.679829881E-2
2.176359211E1,-6.200099736E-2,1.099525020E-2,-1.863084175E-2
2.177274440E1,-6.887302548E-2,1.511846948E-2,-1.924168877E-2
2.178189669E1,-7.513421029E-2,1.939439960E-2,-2.000524849E-2