"Time (s)","Gyroscope x (rad/s)","Gyroscope y (rad/s)","Gyroscope z (rad/s)"
9.662120975E0,8.994726092E-2,-1.721062213E-1,-3.390202299E-2
9.671273319E0,6.413896382E-2,-1.727170646E-1,-3.771981969E-2
9.680425715E0,3.252761811E-2,-1.546970755E-1,-3.497100621E-2
9.689578058E0,1.481304597E-2,-1.070509851E-1,-3.451287001E-2
9.698730402E0,1.313321572E-2,-4.199574888E-2,-3.878879920E-2
9.707882746E0,1.084253844E-2,3.206948051E-3,-4.871506989E-2
9.717035090E0,9.162708884E-4,1.099525020E-2,-5.054761097E-2
9.726187486E0,-7.635590620E-3,6.719320081E-3,-4.703523964E-2
9.735339829E0,-9.162708884E-4,1.985253533E-3,-3.710897267E-2
9.744492173E0,3.970507067E-3,9.315420873E-3,-2.367033064E-2
9.753644517E0,-3.054236295E-3,2.260134928E-2,-9.009997360E-3
9.762796861E0,-1.053711493E-2,3.222219273E-2,-1.221694518E-3
9.771949204E0,-1.038440317E-2,2.015795931E-2,4.275931045E-3
9.781101600E0,-6.719320081E-3,1.725643501E-2,3.665083554E-3
9.790253944E0,-1.557660475E-2,3.833066672E-2,4.275931045E-3
9.799406288E0,-3.542914242E-2,6.291726977E-2,9.620844387E-3
9.808558631E0,-5.711421743E-2,7.742489129E-2,1.191152167E-2
9.817710975E0,-8.307522535E-2,8.338065445E-2,8.704573847E-3
9.826863371E0,-1.053711548E-1,9.773556143E-2,1.832541777E-3
9.836015715E0,-1.049130186E-1,1.206423342E-1,-9.315420873E-3
9.845168058E0,-8.964183182E-2,1.423274130E-1,-2.260134928E-2
9.854320402E0,-7.635590434E-2,1.718007922E-1,-3.176405653E-2
9.863472746E0,-8.536590636E-2,2.211267054E-1,-3.970507160E-2
9.872625090E0,-1.233911440E-1,2.638860047E-1,-5.344913527E-2
9.881777486E0,-1.667613089E-1,3.028275371E-1,-7.391251624E-2
9.890929829E0,-2.064663768E-1,3.437542915E-1,-9.132166207E-2
9.900082173E0,-2.257080674E-1,3.726168275E-1,-1.018587798E-1
9.909234517E0,-2.228065431E-1,3.820849657E-1,-1.079672500E-1
9.918386861E0,-2.017323077E-1,3.726168275E-1,-1.151447073E-1
9.927539204E0,-1.711899489E-1,3.405473530E-1,-1.178935245E-1
9.936691600E0,-1.504211426E-1,3.026748300E-1,-1.220167428E-1
9.945843944E0,-1.456870735E-1,2.617480457E-1,-1.287360638E-1
9.954996288E0,-1.557660550E-1,2.116585821E-1,-1.385096163E-1
9.964148631E0,-1.743968874E-1,1.652341783E-1,-1.453816444E-1
9.973300975E0,-2.055501044E-1,1.296523362E-1,-1.449235082E-1
9.982453371E0,-2.348707765E-1,1.006370857E-1,-1.414111406E-1
9.991605715E0,-2.495311052E-1,7.528692484E-2,-1.348445266E-1
1.000075806E1,-2.467822880E-1,4.642439261E-2,-1.293469071E-1
1.000991040E1,-2.385358512E-1,1.206423342E-2,-1.261399537E-1
1.001906275E1,-2.252499312E-1,-1.068982668E-2,-1.259872466E-1
1.002821514E1,-2.115058601E-1,-3.665083647E-2,-1.252236813E-1
1.003736749E1,-1.971509457E-1,-6.978929788E-2,-1.221694499E-1
1.004651983E1,-1.789782494E-1,-9.743013978E-2,-1.146865711E-1
1.005567217E1,-1.623326540E-1,-1.099525094E-1,-1.029277667E-1
1.006482452E1,-1.426328421E-1,-1.087308154E-1,-8.628217876E-2
1.007397686E1,-1.145338640E-1,-9.773556143E-2,-6.474980712E-2
1.008312926E1,-8.215895295E-2,-7.467607409E-2,-4.306473210E-2
1.009228160E1,-5.726693198E-2,-4.504998401E-2,-2.702999115E-2
1.010143394E1,-3.710897267E-2,-1.481304597E-2,-1.603474095E-2
1.011058629E1,-2.092151903E-2,2.672456764E-2,-4.886778072E-3
1.011973863E1,-3.512371797E-3,7.498150319E-2,5.497625098E-3
1.012889103E1,3.512371797E-3,1.107160673E-1,1.160609815E-2
1.013804337E1,-2.137965523E-3,1.311794519E-1,1.404948719E-2
1.014719572E1,-1.649287529E-2,1.383569092E-1,1.389677543E-2
1.015634806E1,-2.626643144E-2,1.353026628E-1,1.145338640E-2
1.016550040E1,-2.993151546E-2,1.291942000E-1,5.955760833E-3
1.017465280E1,-3.283303976E-2,1.171299592E-1,-3.817795310E-3
1.018380514E1,-3.497100621E-2,9.544488788E-2,-1.298050396E-2
1.019295749E1,-3.542914242E-2,7.437065244E-2,-1.847812906E-2
1.020210983E1,-3.787253052E-2,6.704048812E-2,-2.458660305E-2
1.021126217E1,-4.214845970E-2,6.872031838E-2,-3.329117596E-2
1.022041457E1,-4.092676565E-2,7.788302749E-2,-3.863608837E-2
1.022956691E1,-4.107947648E-2,8.811471611E-2,-4.046862945E-2
1.023871926E1,-5.100574717E-2,9.651386738E-2,-4.367557913E-2
1.024787160E1,-6.642963737E-2,1.102579311E-1,-4.688252881E-2
1.025702394E1,-8.078455180E-2,1.247655526E-1,-5.115845799E-2
1.026617634E1,-8.643488586E-2,1.385096163E-1,-5.375456065E-2
1.027532868E1,-8.353336155E-2,1.487413049E-1,-5.558710173E-2
1.028448103E1,-7.421794534E-2,1.530172378E-1,-5.238015205E-2
1.029363337E1,-6.383354217E-2,1.524063945E-1,-4.749337584E-2
1.030278572E1,-5.146388337E-2,1.495048702E-1,-4.062134400E-2
1.031193811E1,-3.848337755E-2,1.459924877E-1,-3.329117596E-2
1.032109045E1,-2.687728032E-2,1.472141892E-1,-2.947338112E-2
1.033024280E1,-1.649287529E-2,1.543916464E-1,-2.458660305E-2
1.033939514E1,-9.773556143E-3,1.646233350E-1,-2.260134928E-2
1.034854749E1,-4.275931045E-3,1.756185889E-1,-1.954711229E-2
1.035769988E1,-6.872031838E-3,1.809635013E-1,-1.404948719E-2
1.036685222E1,-1.298050396E-2,1.756185889E-1,-9.315420873E-3
1.037600457E1,-2.214321308E-2,1.611109674E-1,-3.817795310E-3
1.038515691E1,-2.870982140E-2,1.424801201E-1,1.068982761E-3
1.039430931E1,-2.550287358E-2,1.275143623E-1,2.290677279E-3
1.040346165E1,-7.482878864E-3,9.972081333E-2,2.443389036E-3
1.041261400E1,1.511846948E-2,6.123743951E-2,2.596100792E-3
1.042176634E1,3.390202299E-2,2.748812735E-2,-1.527118147E-3
1.043091868E1,4.214845970E-2,7.635590620E-3,-5.650337320E-3
1.044007108E1,4.153761268E-2,-1.527118147E-3,-6.872031838E-3
1.044922342E1,3.237490356E-2,-6.413896102E-3,-1.007897966E-2
1.045837577E1,2.000524849E-2,-9.926267900E-3,-1.191152167E-2
1.046752811E1,1.282779220E-2,-1.893626526E-2,-1.328592747E-2
1.047668045E1,1.099525020E-2,-2.504473738E-2,-1.328592747E-2
1.048583285E1,9.773556143E-3,-2.687728032E-2,-1.206423342E-2
1.049498519E1,8.551862091E-3,-2.565558441E-2,-1.389677543E-2
1.050413754E1,1.588202827E-2,-2.504473738E-2,-1.252236869E-2
1.051328988E1,3.191677108E-2,-2.260134928E-2,-1.053711493E-2
1.052244222E1,4.795150831E-2,-2.137965336E-2,-7.482878864E-3
1.053159462E1,5.467082933E-2,-2.428117767E-2,-5.039489828E-3
1.054074696E1,5.039490014E-2,-2.855710872E-2,-4.428642802E-3
1.054989931E1,4.062134400E-2,-3.466558084E-2,-6.261184346E-3
1.055905165E1,3.069507517E-2,-3.405473381E-2,-7.635590620E-3
1.056820405E1,3.008422814E-2,-2.855710872E-2,-3.359660041E-3
1.057735639E1,2.947338112E-2,-3.038965166E-2,2.748812549E-3
1.058650874E1,2.657185495E-2,-4.657710344E-2,5.803049076E-3
1.059566108E1,2.733541466E-2,-7.437065244E-2,6.413896102E-3
1.060481342E1,3.497100621E-2,-1.020114943E-1,7.177455351E-3
1.061396582E1,5.008947477E-2,-1.267508119E-1,1.038440317E-2
1.062311816E1,6.383354217E-2,-1.550024897E-1,8.093725890E-3
1.063227051E1,7.391251624E-2,-1.730224788E-1,6.872031838E-3
1.064142285E1,7.757759839E-2,-1.785201132E-1,5.039489828E-3
1.065057519E1,7.070557028E-2,-1.652341783E-1,-4.734066315E-3
1.065972759E1,6.062658876E-2,-1.394258887E-1,-7.330167107E-3
1.066887993E1,4.871506989E-2,-1.050657257E-1,-6.719320081E-3
1.067803228E1,3.252761811E-2,-8.032641560E-2,-9.926267900E-3
1.068718462E1,1.878355257E-2,-6.719319522E-2,-1.313321572E-2
1.069633702E1,6.413896102E-3,-6.062658876E-2,-1.634016447E-2
1.070548936E1,1.374406274E-3,-5.528167635E-2,-1.878355257E-2
1.071464170E1,5.039489828E-3,-4.856235534E-2,-2.122694254E-2
1.072379405E1,1.664558798E-2,-4.138490185E-2,-2.290677279E-2
1.073294644E1,3.023693897E-2,-3.955236077E-2,-1.985253580E-2
1.074209879E1,3.451287001E-2,-3.894151375E-2,-1.847812906E-2
1.075125113E1,3.390202299E-2,-4.795150831E-2,-1.481304597E-2
1.076040348E1,2.855710872E-2,-6.413896382E-2,-1.007897966E-2
1.076955587E1,2.122694254E-2,-7.864658535E-2,-2.748812549E-3
1.077870822E1,1.023169141E-2,-9.361234307E-2,2.137965523E-3
1.078786056E1,-7.635590737E-4,-9.727742523E-2,4.428642802E-3
1.079701290E1,-7.024743594E-3,-9.009996802E-2,6.261184346E-3
1.080616525E1,-3.054236295E-4,-7.986827940E-2,6.261184346E-3
1.081531759E1,1.191152167E-2,-6.536065787E-2,6.413896102E-3
1.082446999E1,2.596100792E-2,-5.451811850E-2,7.024743594E-3
1.083362233E1,3.313846514E-2,-3.817795217E-2,8.246437646E-3
1.084277467E1,3.374931216E-2,-2.000524849E-2,9.468132630E-3
1.085192707E1,2.489202656E-2,-3.206948051E-3,1.130067464E-2
1.086107941E1,8.093725890E-3,9.468132630E-3,9.926267900E-3
1.087023176E1,-6.719320081E-3,1.420219894E-2,4.275931045E-3
1.087938410E1,-1.893626526E-2,1.466033421E-2,-4.275931045E-3
1.088853644E1,-2.458660305E-2,2.076880634E-2,-8.093725890E-3
1.089768884E1,-2.779355086E-2,3.878879920E-2,-1.053711493E-2
1.090684118E1,-3.405473381E-2,5.558710173E-2,-1.236965694E-2
1.091599353E1,-4.275930673E-2,6.948387623E-2,-1.801999472E-2
1.092514587E1,-5.528167635E-2,7.849387079E-2,-2.351761982E-2
1.093429827E1,-6.872031838E-2,7.605048269E-2,-2.794626169E-2
1.094345061E1,-7.910472155E-2,6.337540597E-2,-2.855710872E-2
1.095260295E1,-8.200624585E-2,4.825693369E-2,-2.977880463E-2
1.096175530E1,-7.635590434E-2,3.145863488E-2,-3.038965166E-2
1.097090769E1,-7.116370648E-2,1.267508045E-2,-3.145863488E-2
1.098006004E1,-5.680879578E-2,-4.123218823E-3,-3.268032894E-2
1.098921238E1,-3.894151375E-2,-1.969982497E-2,-3.130592033E-2
1.099836472E1,-2.214321308E-2,-3.115320951E-2,-2.932066843E-2
1.100751712E1,-1.298050396E-2,-3.359659761E-2,-2.809897438E-2
1.101666947E1,-6.872031838E-3,-1.847812906E-2,-2.672456764E-2
1.102582181E1,-5.344913341E-3,2.000524849E-2,-2.748812735E-2
1.103497415E1,-1.084253844E-2,7.727217674E-2,-3.054236248E-2
1.104412650E1,-1.191152167E-2,1.339282542E-1,-3.115320951E-2
1.105327889E1,-7.482878864E-3,1.893626451E-1,-2.993151546E-2
1.106243124E1,-8.551862091E-3,2.382304370E-1,-3.069507517E-2
1.107158358E1,-2.367033064E-2,2.820587158E-1,-3.436015919E-2
1.108073592E1,-4.489727318E-2,3.176405728E-1,-4.077405483E-2
1.108988832E1,-5.558710173E-2,3.393256664E-1,-4.566083103E-2
1.109904066E1,-5.680879578E-2,3.422271907E-1,-5.115845799E-2
1.110819301E1,-5.665608495E-2,3.278722763E-1,-5.665608495E-2
1.111734535E1,-5.635065958E-2,2.945810854E-1,-6.459710002E-2
1.112649775E1,-6.398624927E-2,2.542651594E-1,-7.009471953E-2
1.113565009E1,-6.856760383E-2,2.162399292E-1,-7.009471953E-2
1.114480243E1,-6.398624927E-2,1.812689304E-1,-6.581879407E-2
1.115395478E1,-5.253286287E-2,1.446180940E-1,-5.772506446E-2
1.116310717E1,-3.695625812E-2,1.114796251E-1,-4.657710344E-2
1.117225952E1,-2.748812735E-2,8.261708915E-2,-3.008422814E-2
1.118141186E1,-2.305948362E-2,5.803048983E-2,-1.236965694E-2
1.119056420E1,-1.496575773E-2,4.550812021E-2,1.832541777E-3
1.119971655E1,3.054236295E-4,4.795150831E-2,1.359135192E-2
1.120886894E1,2.244863659E-2,5.528167635E-2,2.107422985E-2
1.121802129E1,4.504998401E-2,7.467607409E-2,2.611372061E-2
1.122717363E1,7.009471953E-2,1.113269106E-1,2.748812735E-2
1.123632603E1,8.811471611E-2,1.536280811E-1,2.626643144E-2
1.124547837E1,9.834641218E-2,1.826433241E-1,2.993151546E-2
1.125463072E1,1.049130186E-1,2.067717910E-1,3.420744836E-2
1.126378306E1,1.127013192E-1,2.247917950E-1,3.924693540E-2
1.127293545E1,1.250709742E-1,2.302894145E-1,4.107947648E-2
1.128208780E1,1.417165697E-1,2.194468826E-1,4.001049697E-2
1.129124014E1,1.580567211E-1,1.947075576E-1,3.955236077E-2
1.130039249E1,1.792836636E-1,1.580567211E-1,4.459185153E-2
1.130954488E1,2.035648525E-1,1.128540337E-1,5.528167635E-2
1.131869723E1,2.275405973E-1,6.841489673E-2,6.642963737E-2
1.132784957E1,2.518217862E-1,2.565558441E-2,7.879929990E-2
1.133700191E1,2.768665254E-1,-2.305948362E-2,8.826743066E-2
1.134615431E1,3.087832928E-1,-6.933116168E-2,9.834641218E-2
1.135530665E1,3.533751369E-1,-1.137702987E-1,1.108687744E-1
1.136445900E1,4.066715539E-1,-1.522536725E-1,1.264453828E-1
1.137361134E1,4.709632397E-1,-1.791309565E-1,1.472141892E-1
1.138276374E1,5.375455618E-1,-1.921114624E-1,1.733279079E-1
1.139191608E1,6.100836992E-1,-1.925695986E-1,2.049392611E-1
1.140106842E1,6.872031689E-1,-2.031067163E-1,2.403683960E-1
1.141022077E1,7.727217674E-1,-2.209739983E-1,2.892361879E-1
1.141937316E1,8.669449687E-1,-2.344126403E-1,3.527642787E-1
1.142852551E1,9.672766328E-1,-2.476985604E-1,4.297310412E-1
1.143767785E1,1.075396657E0,-2.593046725E-1,5.343386531E-1
1.144683025E1,1.200314879E0,-2.899997234E-1,6.433748603E-1
1.145598259E1,1.342184186E0,-3.538332880E-1,7.511894107E-1
1.146513493E1,1.503905892E0,-4.439332485E-1,8.758022785E-1
1.147428728E1,1.681357026E0,-5.137225389E-1,1.025459886E0
1.148343967E1,1.888739705E0,-5.375455618E-1,1.164885759E0
1.149257926E1,2.121930599E0,-5.331169367E-1,1.265522838E0
1.150174436E1,2.372225285E0,-5.590779781E-1,1.325996637E0
1.151089670E1,2.598544121E0,-6.633801460E-1,1.350125194E0
1.152003634E1,2.759349823E0,-9.156600237E-1,1.330119848E0
1.152920144E1,2.843799353E0,-1.251320601E0,1.291331053E0
1.153835379E1,2.891598225E0,-1.488176584E0,1.280183196E0
1.154749337E1,2.921376944E0,-1.589882731E0,1.300035715E0
1.155665853E1,2.889154911E0,-1.445722699E0,1.328440070E0
1.156581087E1,2.803025246E0,-1.061499834E0,1.348292589E0
1.157495045E1,2.706511497E0,-6.656708121E-1,1.336991906E0
1.158411556E1,2.594115496E0,-4.237752855E-1,1.307824016E0
1.159326795E1,2.475764036E0,-3.396310806E-1,1.291178346E0
1.160242030E1,2.416206360E0,-2.878617644E-1,1.285222650E0
1.161157264E1,2.420482159E0,-2.347180545E-1,1.305380583E0
1.162072499E1,2.398339033E0,-2.425063550E-1,1.339282632E0
1.162986462E1,2.314805746E0,-3.733803928E-1,1.368145108E0
1.163902972E1,2.206074953E0,-6.253548861E-1,1.395633221E0
1.164818207E1,2.121625185E0,-8.327375054E-1,1.389066696E0
1.165733446E1,2.086654186E0,-9.775083065E-1,1.351804972E0
1.166648681E1,2.106048584E0,-1.122431874E0,1.301257372E0
1.167563915E1,2.132773161E0,-1.256971002E0,1.232537031E0
1.168477879E1,2.124221325E0,-1.307213187E0,1.176949978E0
1.169394389E1,2.057486296E0,-1.217571259E0,1.155722976E0
1.170309624E1,1.959598064E0,-1.015838981E0,1.165191174E0
1.171224858E1,1.866291046E0,-7.966975570E-1,1.181531310E0
1.172140092E1,1.811620235E0,-6.725428104E-1,1.193137407E0
1.173055332E1,1.781688690E0,-6.293253899E-1,1.173437595E0
1.173970566E1,1.756491303E0,-6.084038615E-1,1.125027895E0
1.174885801E1,1.730377555E0,-5.664080977E-1,1.071120620E0
1.175801040E1,1.713884711E0,-5.474718809E-1,1.007439852E0
1.176716275E1,1.681662560E0,-5.647283196E-1,9.345963001E-1
1.177631509E1,1.624090195E0,-5.818319917E-1,8.602256775E-1
1.178546743E1,1.554759026E0,-5.793886185E-1,7.736380696E-1
1.179461983E1,1.488940239E0,-5.460974574E-1,6.821636558E-1
1.180377217E1,1.428619027E0,-4.451549351E-1,6.016845703E-1
1.181292452E1,1.376697063E0,-3.251234591E-1,5.175403357E-1
1.182207686E1,1.323095202E0,-2.754921019E-1,4.384356141E-1
1.183122926E1,1.257276416E0,-2.686200738E-1,3.781144619E-1
1.184038160E1,1.179087877E0,-2.544178963E-1,3.361186981E-1
1.184953394E1,1.090515018E0,-2.005106062E-1,3.011476994E-1
1.185868634E1,1.004843712E0,-1.020114943E-1,2.528907657E-1
1.186783868E1,9.167290330E-1,-1.435491070E-2,2.015796006E-1
1.187699103E1,8.350282311E-1,6.062658876E-2,1.478250325E-1
1.188614337E1,7.631009221E-1,1.247655526E-1,9.391776472E-2
1.189529577E1,6.803311110E-1,1.046075895E-1,5.131116882E-2
1.190444811E1,5.830537081E-1,2.901524492E-2,1.710372418E-2
1.191360045E1,4.723376334E-1,-5.741964281E-2,1.679830020E-3
1.192275280E1,3.538332880E-1,-1.117850468E-1,9.468132630E-3
1.193190519E1,2.305948436E-1,-1.336228400E-1,2.443389036E-2
1.194105754E1,1.172826737E-1,-1.513374150E-1,2.061609551E-2
1.195020988E1,2.351761982E-2,-1.913478971E-1,-1.985253533E-3
1.195936228E1,-2.840439789E-2,-2.426590770E-1,-2.122694254E-2
1.196851462E1,-7.391251624E-2,-2.528907657E-1,-1.969982497E-2
1.197766697E1,-1.446180940E-1,-2.125748396E-1,-9.315420873E-3
1.198681931E1,-2.339545041E-1,-1.320957243E-1,-8.704573847E-3
1.199597170E1,-3.167243004E-1,-5.024218559E-2,-1.435491070E-2
1.200512405E1,-3.775036037E-1,-1.298050396E-2,-5.497625098E-3
1.201427639E1,-4.239279926E-1,-4.581354558E-3,2.473931387E-2
1.202342879E1,-4.752391577E-1,9.468132630E-3,6.093201414E-2
1.203258113E1,-5.540384650E-1,3.955236077E-2,8.964183182E-2
1.204173348E1,-6.436802745E-1,7.085828483E-2,1.065928489E-1
1.205088587E1,-7.227849960E-1,8.460234851E-2,1.140757278E-1
1.206003822E1,-7.835643291E-1,6.459710002E-2,1.166718230E-1
1.206919056E1,-8.283088803E-1,2.596100792E-2,1.145338640E-1
1.207834290E1,-8.674030900E-1,-1.572931744E-2,1.168245375E-1
1.208749530E1,-9.071081877E-1,-6.215370819E-2,1.238492802E-1
1.209664764E1,-9.535325766E-1,-1.116323397E-1,1.278197914E-1
1.210579999E1,-1.008508801E0,-1.496575773E-1,1.165191159E-1
1.211495238E1,-1.041800022E0,-1.408002973E-1,9.727742523E-2
1.212409197E1,-9.990406632E-1,-8.414421231E-2,7.986827940E-2
1.213325707E1,-9.211576581E-1,-3.283303976E-2,7.177454978E-2
1.214240941E1,-8.631271720E-1,-3.512371704E-2,5.818320066E-2
1.215154905E1,-7.470661998E-1,-5.909947306E-2,4.367557913E-2
1.216071415E1,-5.421269536E-1,-4.001049697E-2,6.902574003E-2
1.216986650E1,-2.845021188E-1,1.939439960E-2,7.986827940E-2
1.217900613E1,-6.826218218E-2,1.082726792E-1,6.429167092E-2
1.218817124E1,1.038440317E-2,2.168507725E-1,4.337015375E-2
1.219732358E1,1.985253533E-3,2.936648130E-1,-2.687728032E-2
1.220646322E1,5.955760833E-3,2.641914487E-1,-1.704263836E-1
1.221562832E1,-3.268032894E-2,1.050657257E-1,-3.306210935E-1
1.222478066E1,-2.270824611E-1,-8.612946421E-2,-4.355340898E-1
1.223392030E1,-4.882196784E-1,-1.614163816E-1,-4.770717025E-1
1.224308540E1,-7.189671993E-1,-5.940489471E-2,-4.940227270E-1
1.225223775E1,-8.692356348E-1,2.067717910E-1,-4.989095032E-1
1.226137733E1,-9.791881442E-1,6.345176101E-1,-4.688252807E-1
1.227054249E1,-1.038745761E0,1.014922738E0,-4.140017331E-1
1.227969483E1,-9.713998437E-1,1.166412830E0,-3.642176688E-1
1.228883441E1,-8.699992299E-1,9.220739603E-1,-3.388675153E-1
1.229799952E1,-8.451071978E-1,3.487937748E-1,-3.932329118E-1
1.230715191E1,-8.849649429E-1,-3.474193811E-1,-5.694623590E-1
1.231629150E1,-8.814526200E-1,-7.982246280E-1,-7.449282408E-1
1.232545660E1,-8.428165317E-1,-8.356390595E-1,-7.708892226E-1
1.233460900E1,-8.289197087E-1,-5.819846988E-1,-6.409314871E-1
1.234374858E1,-8.619054556E-1,-1.444653720E-1,-4.576773047E-1
1.235291368E1,-9.442171454E-1,3.019112647E-1,-3.206948042E-1
1.236206608E1,-1.099830508E0,6.604785919E-1,-2.443388999E-1
1.237121842E1,-1.256971002E0,9.750649333E-1,-1.811162084E-1
1.238037077E1,-1.327829242E0,1.227497578E0,-1.395785958E-1
1.238952311E1,-1.268729806E0,1.234369636E0,-1.232384369E-1
1.239866275E1,-1.158929944E0,1.086391807E0,-1.328592747E-1
1.240782785E1,-1.111436605E0,8.144121170E-1,-1.792836636E-1
1.241698025E1,-1.076771021E0,4.188885093E-1,-2.397575527E-1
1.242611983E1,-9.848384857E-1,1.386623234E-1,-2.756448388E-1
1.243528493E1,-8.780929446E-1,-7.696675509E-2,-2.857238054E-1
1.244443728E1,-8.067765236E-1,-3.312319219E-1,-2.916795611E-1
1.245358967E1,-7.886037827E-1,-5.757235289E-1,-2.864873707E-1
1.246274202E1,-7.814263701E-1,-6.919372082E-1,-2.625116110E-1
1.247189436E1,-7.611156702E-1,-7.105680704E-1,-2.476985604E-1
1.248103400E1,-7.379034758E-1,-6.754443645E-1,-2.444916219E-1
1.249019910E1,-7.006418109E-1,-5.760289431E-1,-2.486148328E-1
1.249935144E1,-6.526902914E-1,-4.115583301E-1,-2.612899244E-1
1.250849108E1,-6.390989423E-1,-2.078407854E-1,-2.704526186E-1
1.251765618E1,-6.494833231E-1,6.566607859E-3,-2.736595869E-1
1.252680853E1,-6.713211536E-1,2.350234836E-1,-2.588465214E-1
1.253596087E1,-6.968240142E-1,4.581354558E-1,-2.371614426E-1
1.254511327E1,-6.916317940E-1,5.708367825E-1,-2.389939874E-1
1.255426561E1,-6.755970716E-1,6.395570636E-1,-2.548760176E-1
1.256341795E1,-6.209262609E-1,6.600204706E-1,-2.684673667E-1
1.257257035E1,-5.754181147E-1,6.755970716E-1,-2.834331393E-1
1.258172269E1,-5.975613594E-1,7.020162344E-1,-3.135173619E-1
1.259087504E1,-6.282563806E-1,7.030851841E-1,-3.486410677E-1
1.260002743E1,-6.281036735E-1,7.004891038E-1,-3.755183518E-1
1.260917978E1,-6.366555691E-1,6.956022978E-1,-3.956763148E-1
1.261833212E1,-6.665870547E-1,6.726955175E-1,-4.165978432E-1
1.262748452E1,-6.537593007E-1,6.291726828E-1,-4.463766217E-1
1.263663686E1,-6.233696342E-1,6.314633489E-1,-4.883723855E-1
1.264578920E1,-6.216897964E-1,6.662816405E-1,-5.231906772E-1
1.265494155E1,-6.218425035E-1,7.643226385E-1,-5.592306852E-1
1.266409394E1,-6.392516494E-1,8.672503829E-1,-6.027535200E-1
1.267324629E1,-6.549809575E-1,9.393303990E-1,-6.383354068E-1
1.268239863E1,-6.621584296E-1,1.051878929E0,-6.653653979E-1
1.269155103E1,-6.794148684E-1,1.052489877E0,-6.661289334E-1
1.270070337E1,-7.140804529E-1,1.142131686E0,-6.597150564E-1
1.270985572E1,-7.290462255E-1,1.221236348E0,-6.452074051E-1
1.271900811E1,-7.111788988E-1,1.275601745E0,-6.207735538E-1
1.272816045E1,-7.082774043E-1,1.366007209E0,-6.024481058E-1
1.273731280E1,-7.189671993E-1,1.452136636E0,-6.013791561E-1
1.274646519E1,-7.044596076E-1,1.481151938E0,-5.920637250E-1
1.275561754E1,-6.812474132E-1,1.498255610E0,-5.578562617E-1
1.276476988E1,-6.876612902E-1,1.514595747E0,-5.236487985E-1
1.277392223E1,-7.117897868E-1,1.521773219E0,-5.176930428E-1
1.278307462E1,-7.464553714E-1,1.462673783E0,-5.263976455E-1
1.279222697E1,-7.621846795E-1,1.375780702E0,-5.424323678E-1
1.280137936E1,-7.434011102E-1,1.338977218E0,-5.457920432E-1
1.281053170E1,-7.030851841E-1,1.225359559E0,-5.161659122E-1
1.281968405E1,-7.117897868E-1,1.159082651E0,-4.911212027E-1
1.282883639E1,-7.725690603E-1,1.116934180E0,-4.732539058E-1
1.283798879E1,-7.971556783E-1,9.681929350E-1,-4.592044353E-1
1.284714113E1,-7.779139876E-1,7.953231335E-1,-4.419479966E-1
1.285629353E1,-7.363763452E-1,6.200099587E-1,-4.219427407E-1
1.286544587E1,-7.136223316E-1,4.898995161E-1,-4.150707126E-1
1.287459822E1,-7.366818190E-1,3.855973184E-1,-4.278984964E-1
1.288375056E1,-7.792884111E-1,2.582356930E-1,-4.483618736E-1
1.289290295E1,-7.519529462E-1,9.666658193E-2,-4.662291706E-1
1.290205530E1,-6.806365848E-1,-7.635590737E-4,-4.883723855E-1
1.291120764E1,-6.484143734E-1,-8.108997345E-2,-5.118899941E-1
1.292034728E1,-6.345176101E-1,-1.093416587E-1,-5.306735635E-1
1.292951238E1,-6.164975762E-1,-5.940489471E-2,-5.464028716E-1
1.293866472E1,-6.607840061E-1,2.351761982E-2,-5.780141950E-1
1.294781712E1,-7.246175408E-1,1.690519750E-1,-6.462764144E-1
1.295696946E1,-7.404996157E-1,2.507528067E-1,-7.050704360E-1
1.296612181E1,-7.287407517E-1,3.348970115E-1,-7.576032877E-1
1.297526144E1,-6.919372082E-1,3.744493723E-1,-8.049439788E-1
1.298442655E1,-6.560499668E-1,4.437805414E-1,-8.225058317E-1
1.299357889E1,-6.340594292E-1,5.283828974E-1,-8.064711094E-1
1.300273129E1,-6.317687631E-1,6.163448691E-1,-7.968502641E-1
1.301188363E1,-6.085565686E-1,7.032378912E-1,-7.991409302E-1
1.302103598E1,-5.288410187E-1,6.798729897E-1,-7.905890942E-1
1.303017561E1,-4.179722369E-1,5.216635466E-1,-7.499676943E-1
1.303934072E1,-3.031329513E-1,2.689255178E-1,-6.733064055E-1
1.304849306E1,-1.600419879E-1,-8.154810965E-2,-5.517477989E-1
1.305763269E1,5.772506446E-2,-4.524851143E-1,-4.081986845E-1
1.306679780E1,3.042019308E-1,-8.499939442E-1,-2.878617644E-1
1.307595014E1,5.007420182E-1,-1.019809484E0,-1.867665499E-1
1.308508978E1,6.896465421E-1,-9.672766328E-1,-7.742489129E-2
1.309425488E1,8.979454637E-1,-7.374453545E-1,5.283828825E-2
1.310340723E1,1.107924223E0,-4.274403751E-1,1.768402755E-1
1.311254686E1,1.332868695E0,-2.622061968E-1,2.814478874E-1
1.312171197E1,1.560562015E0,-2.304421216E-1,4.486673176E-1
1.313086431E1,1.673416018E0,-3.588727713E-1,7.120952010E-1
1.314000394E1,1.703500271E0,-8.379297256E-1,9.856020808E-1
1.314916905E1,1.832541823E0,-1.361273170E0,1.190846682E0
1.315832139E1,2.042062283E0,-1.661657214E0,1.352568507E0
1.316747379E1,2.251430273E0,-1.754811406E0,1.468782187E0
1.317662613E1,2.463241577E0,-1.745190620E0,1.510014415E0
1.318577848E1,2.667264462E0,-1.669140100E0,1.483900666E0
1.319491811E1,2.773857355E0,-1.574458838E0,1.454121947E0
1.320408322E1,2.737359285E0,-1.563005447E0,1.475196123E0
1.321323556E1,2.585105658E0,-1.678608298E0,1.551246643E0
1.322237519E1,2.412999392E0,-1.781688690E0,1.635543585E0
1.323154030E1,2.290829897E0,-1.796654463E0,1.705485582E0
1.324069264E1,2.236617327E0,-1.805053592E0,1.741067410E0
1.324983228E1,2.220429897E0,-1.780925155E0,1.736791492E0
1.325899738E1,2.243336678E0,-1.570182920E0,1.689145327E0
1.326814978E1,2.274337053E0,-1.077992678E0,1.638292313E0
1.327728936E1,2.281819820E0,-6.091674566E-1,1.648982167E0
1.328645446E1,2.266243219E0,-2.606790662E-1,1.690825224E0
1.329560681E1,2.204547644E0,9.315420873E-3,1.754200578E0
1.330474644E1,2.104826927E0,1.722589284E-1,1.817576051E0
1.331391155E1,2.022515297E0,1.679829955E-1,1.878660798E0
1.332306394E1,1.998234153E0,3.084778599E-2,1.929819226E0
1.333220353E1,2.037481070E0,-2.185306102E-1,1.919282079E0
1.334136863E1,2.086348772E0,-5.346440673E-1,1.817881465E0
1.335052103E1,2.083905458E0,-8.232693672E-1,1.682578802E0
1.335967337E1,2.041604280E0,-1.069593549E0,1.565143347E0
1.336882572E1,2.006938696E0,-1.285833478E0,1.453969240E0
1.337797811E1,1.979755998E0,-1.426786542E0,1.339129925E0
1.338711769E1,1.942188859E0,-1.455496311E0,1.247197390E0
1.339628285E1,1.913020849E0,-1.393800735E0,1.140146375E0
1.340543519E1,1.836970448E0,-1.228108406E0,1.018587828E0
1.341457483E1,1.706249118E0,-1.032331824E0,9.045121074E-1
1.342373993E1,1.555675268E0,-8.322793841E-1,8.044858575E-1
1.343289228E1,1.392273664E0,-6.395570636E-1,7.163711190E-1
1.344203191E1,1.217418551E0,-4.953971207E-1,6.418477297E-1
1.345119702E1,1.048824787E0,-4.121691883E-1,5.642701387E-1
1.346034936E1,8.704573512E-1,-3.274141252E-1,4.456130862E-1
1.346948900E1,6.995728016E-1,-2.516690791E-1,3.191677034E-1
1.347865410E1,5.267030597E-1,-1.685938388E-1,2.110477239E-1
1.348780644E1,3.321481943E-1,-7.162184268E-2,1.229330078E-1
1.349695884E1,1.192679256E-1,3.023693897E-2,7.116370648E-2
1.350611118E1,-9.315420687E-2,9.620844573E-2,4.581354558E-2
1.351526353E1,-2.987042964E-1,1.246128380E-1,1.695101149E-2
1.352441587E1,-4.834856093E-1,1.398840249E-1,-1.863084175E-2
1.353356827E1,-6.271874309E-1,1.611109674E-1,-6.123743951E-2
1.354272061E1,-7.505785823E-1,1.980672181E-1,-1.218640283E-1
1.355186025E1,-8.875610828E-1,2.499892414E-1,-1.968455315E-1
1.356102535E1,-1.106397152E0,3.023693860E-1,-2.985515893E-1
1.357017769E1,-1.349056125E0,3.567348123E-1,-4.584408700E-1
1.357931733E1,-1.335312128E0,4.427115619E-1,-6.781931520E-1
1.358848243E1,-8.272398710E-1,1.043785214E0,-8.209787011E-1
1.359763483E1,-1.606528312E-1,1.941272616E0,-7.192726731E-1
1.360677441E1,-5.688515306E-1,1.496881247E0,-4.636330605E-1
1.361593952E1,-1.750535488E0,4.598152637E-1,-4.625640810E-1
1.362509191E1,-2.582356691E0,5.173876286E-1,-6.615476012E-1
1.363423150E1,-2.463241577E0,4.767662883E-1,-6.239804626E-1
1.364339660E1,-1.814979911E0,7.061394453E-1,-3.032856584E-1
1.365254900E1,-1.320346355E0,7.669187188E-1,-2.209739983E-1
1.366168858E1,-1.445417285E0,1.183516532E-1,-5.059342384E-1
1.367085368E1,-1.744274378E0,-2.370087355E-1,-6.525375843E-1
1.368000608E1,-1.840482831E0,-2.573194206E-1,-5.586197972E-1
1.368914566E1,-1.745648742E0,-1.609582454E-1,-4.737120569E-1
1.369831082E1,-1.565754294E0,-3.590254784E-1,-4.760027230E-1
1.370746316E1,-1.533073902E0,-5.422796607E-1,-5.207473040E-1
1.371661551E1,-1.651578307E0,-4.395045936E-1,-5.448757410E-1
1.372576790E1,-1.690519810E0,-3.516952991E-1,-5.531222224E-1
1.373492025E1,-1.583621502E0,-2.509055138E-1,-5.610632300E-1
1.374407259E1,-1.450609565E0,-1.550024897E-1,-5.931326747E-1
1.375322499E1,-1.384943485E0,-9.529217333E-2,-6.378772259E-1
1.376237733E1,-1.344627500E0,-1.140757278E-1,-6.723901033E-1
1.377152967E1,-1.300951958E0,-9.956810623E-2,-6.708629727E-1
1.378068207E1,-1.293774486E0,-7.330167107E-3,-6.549809575E-1
1.378983441E1,-1.278197885E0,1.018587798E-1,-6.360446811E-1
1.379898681E1,-1.223374367E0,1.801999360E-1,-6.442911625E-1
1.380813915E1,-1.189625025E0,2.916795611E-1,-6.789567471E-1
1.381729150E1,-1.201689243E0,3.939964771E-1,-7.047650218E-1
1.382644389E1,-1.205354333E0,4.766135812E-1,-7.140804529E-1
1.383559624E1,-1.198024154E0,5.567872524E-1,-7.085828185E-1
1.384474858E1,-1.189319611E0,6.604785919E-1,-6.762079000E-1
1.385390098E1,-1.163358569E0,7.088882327E-1,-6.424586177E-1
1.386305332E1,-1.127013206E0,7.018635273E-1,-6.079457402E-1
1.387220572E1,-1.116628766E0,6.905628443E-1,-5.767925382E-1
1.388135806E1,-1.120446563E0,6.846070886E-1,-5.554128885E-1
1.389051045E1,-1.075243831E0,6.671979427E-1,-5.532749295E-1
1.389966280E1,-1.040578246E0,6.438329816E-1,-5.438067913E-1
1.390881514E1,-1.058445573E0,7.154548764E-1,-5.372401476E-1
1.391796754E1,-1.095096469E0,8.160919547E-1,-5.357130170E-1
1.392711988E1,-1.069746256E0,8.686248064E-1,-5.160132051E-1
1.393627223E1,-1.016755223E0,8.554915786E-1,-4.973823726E-1
1.394542462E1,-9.622371197E-1,7.652388811E-1,-5.018110275E-1
1.395457697E1,-9.338327646E-1,6.844543815E-1,-5.161659122E-1
1.396372931E1,-9.483403563E-1,6.736118197E-1,-5.383091569E-1
1.397288170E1,-9.561286569E-1,7.204943299E-1,-5.512896776E-1
1.398203405E1,-9.477295280E-1,8.162446618E-1,-5.573981404E-1
1.399118644E1,-9.388722181E-1,1.016297102E0,-5.677825212E-1
1.400033879E1,-9.535325766E-1,1.199398637E0,-5.746545792E-1
1.400949113E1,-9.894198179E-1,1.287818789E0,-5.841227174E-1
1.401864353E1,-1.020420313E0,1.390288353E0,-5.758762360E-1
1.402779587E1,-1.015380859E0,1.421136141E0,-5.544965863E-1
1.403694822E1,-9.269607067E-1,1.331494331E0,-5.459447503E-1
1.404610061E1,-8.228112459E-1,1.192526579E0,-5.396835804E-1
1.405525295E1,-7.359182239E-1,1.043174386E0,-5.328115225E-1
1.406440535E1,-7.233958840E-1,1.031720996E0,-5.558710098E-1
1.407355769E1,-7.976137996E-1,1.088529825E0,-6.236750484E-1
1.408271004E1,-8.347227573E-1,1.056460381E0,-6.647545099E-1
1.409186243E1,-7.569924593E-1,1.039814711E0,-6.549809575E-1
1.410101478E1,-6.554391384E-1,1.059209108E0,-6.452074051E-1
1.411016717E1,-6.734591126E-1,1.021031141E0,-6.826218367E-1
1.411931952E1,-7.577560544E-1,9.544488192E-1,-7.337802649E-1
1.412847186E1,-7.942541242E-1,9.875873327E-1,-7.469134927E-1
1.413762426E1,-7.501204610E-1,9.998042583E-1,-7.240067124E-1
1.414677660E1,-6.847597957E-1,9.746068120E-1,-6.942279339E-1
1.415592900E1,-6.427640319E-1,8.982508779E-1,-6.772769094E-1
1.416508134E1,-6.114581227E-1,7.681404352E-1,-6.653653979E-1
1.417423368E1,-6.109999418E-1,7.024743557E-1,-6.562026739E-1
1.418338608E1,-6.198572516E-1,6.465818286E-1,-6.343649030E-1
1.419253842E1,-6.044333577E-1,5.606050491E-1,-5.870242119E-1
1.420169077E1,-5.560237169E-1,5.590779781E-1,-5.341859460E-1
1.421083040E1,-5.016583204E-1,6.152759194E-1,-5.155550838E-1
1.421999551E1,-4.428642690E-1,5.911474228E-1,-5.279247165E-1
1.422914790E1,-3.394783735E-1,5.376983285E-1,-5.436540842E-1
1.423828749E1,-1.954711229E-1,4.300364852E-1,-5.254813433E-1
1.424745259E1,-3.603998944E-2,2.290677279E-1,-4.931064546E-1
1.425660499E1,1.204896197E-1,-2.443389036E-3,-4.613423944E-1
1.426575733E1,2.600682080E-1,-1.721062213E-1,-4.387410581E-1
1.427490972E1,3.915531039E-1,-2.104368806E-1,-4.213318825E-1
1.428406207E1,5.251759291E-1,-1.285833418E-1,-3.758237660E-1
1.429321441E1,6.716265678E-1,-1.466033421E-2,-2.667875290E-1
1.430236681E1,8.292251825E-1,-3.054236295E-3,-1.021642014E-1
1.431151915E1,9.936957955E-1,-1.430909634E-1,6.765133142E-2
1.432065879E1,1.126402378E0,-3.837648034E-1,2.325800955E-1
1.432982389E1,1.220778227E0,-6.096255779E-1,3.946073353E-1
1.433897624E1,1.325996637E0,-6.113054156E-1,5.705313683E-1
1.434811587E1,1.434269309E0,-6.662816405E-1,7.649334669E-1
1.435728098E1,1.532157660E0,-1.040272832E0,9.735378027E-1
1.436643337E1,1.643637300E0,-1.483900666E0,1.192068458E0
1.437558572E1,1.797112584E0,-1.776343822E0,1.368603230E0
1.438473811E1,1.960972428E0,-1.869803429E0,1.455343604E0
1.439389045E1,2.112615347E0,-1.800930381E0,1.447708011E0
1.440303004E1,2.248223305E0,-1.693726778E0,1.387539506E0
1.441219519E1,2.351150990E0,-1.659977436E0,1.324164152E0
1.442134754E1,2.415900946E0,-1.733431816E0,1.308740258E0
1.443048717E1,2.469350100E0,-1.808413267E0,1.355622768E0
1.443965228E1,2.493783951E0,-1.817728758E0,1.442515850E0
1.444880462E1,2.439418554E0,-1.795280099E0,1.537349820E0
1.445794426E1,2.325190067E0,-1.792683959E0,1.625159144E0
1.446710936E1,2.232952118E0,-1.780467033E0,1.684258580E0
1.447626176E1,2.223942041E0,-1.602710485E0,1.696322799E0
1.448540134E1,2.315111160E0,-1.247044683E0,1.691283345E0
1.449456644E1,2.395437479E0,-8.241856694E-1,1.634016395E0
1.450371884E1,2.413151979E0,-4.972296655E-1,1.560714722E0
1.451285842E1,2.386274815E0,-2.310529798E-1,1.509709001E0
1.452202358E1,2.303504944E0,7.314895838E-2,1.502073407E0
1.453117592E1,2.175227165E0,3.220692277E-1,1.596907496E0
1.454031556E1,2.079476833E0,4.285093546E-1,1.735417008E0
1.454948066E1,2.047559977E0,3.776563108E-1,1.813300133E0
1.455863301E1,2.059166193E0,1.762294322E-1,1.800777674E0
1.456777264E1,2.084821701E0,-9.468132257E-2,1.703347564E0
1.457693775E1,2.096427679E0,-4.482091665E-1,1.581025362E0
1.458609009E1,2.103452444E0,-7.644753456E-1,1.445111871E0
1.459522973E1,2.108033895E0,-9.796462655E-1,1.267049909E0
1.460439483E1,2.081920147E0,-1.077992678E0,1.091584086E0
1.461354723E1,2.033663273E0,-1.068524599E0,9.434536099E-1
1.462268681E1,1.949213624E0,-1.013548255E0,8.420529366E-1
1.463185197E1,1.832694530E0,-9.814788103E-1,7.783721089E-1
1.464100431E1,1.723810911E0,-9.721634388E-1,7.207997441E-1
1.465014394E1,1.618592501E0,-9.720106721E-1,6.717792749E-1
1.465930905E1,1.486649513E0,-9.469659925E-1,6.207735538E-1
1.466846139E1,1.342184186E0,-8.735115528E-1,5.121954083E-1
1.467760103E1,1.172674060E0,-7.256865501E-1,3.466558158E-1
1.468676613E1,9.660549164E-1,-5.812211633E-1,2.162399292E-1
1.469591848E1,7.626428008E-1,-4.727957845E-1,1.261399537E-1
1.470505811E1,5.816792846E-1,-3.932329118E-1,5.696150661E-2
1.471422322E1,4.083513916E-1,-3.365768492E-1,-9.009997360E-3
1.472337561E1,2.287622988E-1,-2.785463631E-1,-7.131642103E-2
1.473251519E1,5.940489471E-2,-2.157817930E-1,-1.238492802E-1
1.474168035E1,-9.651386738E-2,-1.324011385E-1,-1.556133330E-1
1.475083269E1,-2.464768738E-1,-3.756710514E-2,-1.805053651E-1
1.475998504E1,-3.762819171E-1,1.450762246E-2,-2.064663768E-1
1.476913743E1,-4.880669713E-1,-1.038440317E-2,-2.371614426E-1
1.477828978E1,-5.911474228E-1,-6.261184067E-2,-2.666348219E-1
1.478742941E1,-7.305732965E-1,-2.672456764E-2,-2.925958335E-1
1.479659452E1,-9.373451471E-1,9.269607067E-2,-3.429907262E-1
1.480574691E1,-1.211462855E0,1.954711229E-1,-4.372139275E-1
1.481489926E1,-1.395938754E0,2.043284029E-1,-5.758762360E-1
1.482405165E1,-1.278350592E0,3.564293683E-1,-7.064448595E-1
1.483320400E1,-9.616262913E-1,1.050351858E0,-7.957812548E-1
1.484234358E1,-1.084406614E0,1.369214177E0,-7.284353375E-1
1.485150874E1,-1.548497796E0,4.308000207E-1,-5.265503526E-1
1.486066108E1,-1.630809426E0,-1.404948719E-2,-2.391466945E-1
1.486980072E1,-1.844606042E0,6.336013079E-1,-1.756185852E-2
1.487896582E1,-1.917755008E0,1.726712465E0,-5.497625098E-3
1.488811816E1,-1.563158154E0,1.504822254E0,-1.878355294E-1
1.489725780E1,-1.101968408E0,-9.315420687E-2,-5.002838969E-1
1.490642290E1,-9.590302110E-1,-8.170081973E-1,-5.714476109E-1
1.491557530E1,-1.326912999E0,-1.928750277E-1,-3.119902313E-1
1.492471488E1,-1.643179178E0,2.684673667E-1,-1.093416587E-1
1.493388004E1,-1.592478752E0,3.054236248E-2,-7.162184268E-2
1.494303238E1,-1.554606318E0,-5.401417017E-1,-9.712471068E-2
1.495217202E1,-1.730224848E0,-7.924215794E-1,-1.562241912E-1
1.496133712E1,-1.807955146E0,-7.017107606E-1,-1.977618039E-1
1.497048947E1,-1.653105378E0,-6.198572516E-1,-2.718270421E-1
1.497962910E1,-1.388913989E0,-6.281036735E-1,-3.341334462E-1
1.498879420E1,-1.249335408E0,-5.935907960E-1,-3.287885487E-1
1.499794660E1,-1.261705041E0,-4.124746025E-1,-2.631224692E-1
1.500708618E1,-1.269340634E0,-1.918060333E-1,-2.292204350E-1
1.501625129E1,-1.227802992E0,-1.527118147E-4,-2.386885732E-1
1.502540368E1,-1.185654521E0,1.896680743E-1,-2.739650011E-1
1.503455603E1,-1.149461865E0,2.544178963E-1,-3.475720882E-1
1.504370842E1,-1.107618809E0,2.287622988E-1,-4.364503622E-1
1.505286077E1,-1.060430884E0,2.202104330E-1,-4.966188073E-1
1.506201316E1,-1.021031141E0,2.454078794E-1,-5.421269536E-1
1.507116551E1,-1.013242841E0,3.013004065E-1,-5.891621709E-1
1.508031790E1,-9.729269743E-1,3.471139669E-1,-5.986303091E-1
1.508947025E1,-9.698727131E-1,4.732539058E-1,-5.664080977E-1
1.509862259E1,-1.012021184E0,6.180247068E-1,-5.332696438E-1
1.510777499E1,-1.004538298E0,6.621584296E-1,-4.990622103E-1
1.511692733E1,-1.004691005E0,7.519529462E-1,-4.856235683E-1
1.512607972E1,-1.015533566E0,7.976137996E-1,-4.967715442E-1
1.513523207E1,-1.012326598E0,7.896727920E-1,-5.205945969E-1
1.514438447E1,-9.926267862E-1,7.408050299E-1,-5.581616759E-1
1.515353681E1,-9.683456421E-1,7.244648337E-1,-5.903838873E-1
1.516268920E1,-1.007439852E0,6.978929639E-1,-6.151232123E-1
1.517184155E1,-1.066081166E0,7.127060294E-1,-6.288672686E-1
1.518099389E1,-1.020114899E0,7.566870451E-1,-6.438329816E-1
1.519014629E1,-9.738432169E-1,7.646280527E-1,-6.636855602E-1
1.519929863E1,-9.872818589E-1,7.553126216E-1,-7.090409398E-1
1.520845103E1,-1.031415582E0,7.533273697E-1,-7.568397522E-1
1.521760337E1,-1.036760569E0,8.104416132E-1,-7.747070193E-1
1.522675577E1,-1.015533566E0,9.955283403E-1,-7.728744745E-1
1.523590811E1,-1.032179117E0,1.189625025E0,-7.463026643E-1
1.524506045E1,-1.059514523E0,1.345696568E0,-7.270609736E-1
1.525421285E1,-1.069135427E0,1.385401607E0,-7.253811359E-1
1.526336519E1,-1.056002140E0,1.367381573E0,-7.343910933E-1
1.527251759E1,-1.045465112E0,1.366770744E0,-7.427902818E-1
1.528166993E1,-1.051115394E0,1.459466815E0,-7.545490861E-1
1.529082233E1,-1.026528835E0,1.543763757E0,-7.800519466E-1
1.529997467E1,-1.015075445E0,1.576138616E0,-8.099834919E-1
1.530912707E1,-1.020267606E0,1.548345089E0,-8.386932611E-1
1.531827941E1,-1.004232883E0,1.492299795E0,-8.617527485E-1
1.532743176E1,-9.666658044E-1,1.432589531E0,-8.858812451E-1
1.533658415E1,-9.344435930E-1,1.350736022E0,-8.904625773E-1
1.534573650E1,-9.692618847E-1,1.322331548E0,-8.948912621E-1
1.535488889E1,-1.027445078E0,1.287207842E0,-9.118422270E-1
1.536404124E1,-1.035080671E0,1.184738278E0,-9.100096822E-1
1.537322025E1,-1.032789946E0,1.101052165E0,-8.707627654E-1
1.538237254E1,-1.071884274E0,1.046992183E0,-8.209787011E-1
1.539149837E1,-1.068982720E0,9.037485123E-1,-7.847860456E-1
1.540065072E1,-1.009883285E0,5.598415136E-1,-7.518002391E-1
1.540980311E1,-9.840749502E-1,1.959292591E-1,-7.391251922E-1
1.541895545E1,-9.608627558E-1,-1.072036922E-1,-7.533273697E-1
1.542810785E1,-9.101623893E-1,-3.193204105E-1,-7.950177193E-1
1.543726019E1,-8.661814332E-1,-3.936910629E-1,-8.434273601E-1
1.544639983E1,-8.324320912E-1,-4.311054647E-1,-8.675557971E-1
1.545556493E1,-7.916580439E-1,-3.965925872E-1,-8.441908956E-1
1.546471728E1,-7.383615971E-1,-2.359397560E-1,-7.852441669E-1
1.547385691E1,-6.682668924E-1,-3.008422814E-2,-7.207997441E-1
1.548302202E1,-5.300627351E-1,1.317902952E-1,-6.644490957E-1
1.549217441E1,-3.461976945E-1,2.203631550E-1,-6.235223413E-1
1.550131400E1,-1.218640283E-1,2.744231224E-1,-5.786250830E-1
1.551047910E1,1.276670843E-1,3.156553209E-1,-4.871506989E-1
1.551963150E1,3.814741075E-1,3.400892019E-1,-3.313846290E-1
1.552877113E1,6.630746722E-1,3.949127495E-1,-1.371352077E-1
1.553793624E1,1.009577751E0,4.790569544E-1,1.052184403E-1
1.554708858E1,1.380667567E0,5.806103349E-1,3.387148082E-1
1.555622822E1,1.708692551E0,5.928272605E-1,5.479300022E-1
1.556539332E1,1.966775417E0,5.241069198E-1,7.482879162E-1
1.557454572E1,2.072604656E0,3.336753249E-1,8.993198872E-1
1.558368530E1,2.101009130E0,1.240019947E-1,1.046381354E0
1.559285045E1,2.212946892E0,-6.612421572E-2,1.206575990E0
1.560200280E1,2.412235737E0,-3.701734245E-1,1.357302666E0
1.561114243E1,2.592435837E0,-7.298097610E-1,1.500393629E0
1.562030754E1,2.710787535E0,-1.003316641E0,1.621799469E0
1.562945988E1,2.721019030E0,-1.134954214E0,1.668987393E0
1.563859952E1,2.613509893E0,-1.247350097E0,1.670667291E0
1.564776462E1,2.426438093E0,-1.510777950E0,1.690977931E0
1.565691702E1,2.296327591E0,-1.936233044E0,1.752673507E0
1.566605665E1,2.285179615E0,-2.217680931E0,1.776496530E0
1.567522176E1,2.293884277E0,-2.284721375E0,1.745496035E0
1.568437410E1,2.251277685E0,-2.191872597E0,1.719534993E0
1.569351374E1,2.188207626E0,-1.823226333E0,1.719993114E0
1.570267884E1,2.123457670E0,-1.338824511E0,1.744885206E0
1.571183124E1,2.075811625E0,-8.475505710E-1,1.776038408E0
1.572097082E1,2.052446842E0,-3.316900730E-1,1.810856700E0
1.573013598E1,2.030914307E0,8.903098851E-2,1.836054206E0
1.573928832E1,2.005258799E0,3.271087110E-1,1.869803429E0
1.574842795E1,1.982962966E0,3.814741075E-1,1.908744931E0
1.575759306E1,1.988613248E0,2.255553454E-1,1.932720780E0
1.576674545E1,2.032288790E0,-5.711421743E-2,1.927681208E0
1.577588504E1,2.103757858E0,-3.735330999E-1,1.876522779E0
1.578505014E1,2.172783613E0,-6.589514613E-1,1.766723037E0
1.579420254E1,2.188360214E0,-8.913788795E-1,1.636917949E0
1.580334217E1,2.180877447E0,-1.113574505E0,1.511236072E0
1.581250728E1,2.166675329E0,-1.263537526E0,1.397160411E0
1.582165962E1,2.128649950E0,-1.302631736E0,1.286291599E0
1.583079926E1,2.053668499E0,-1.277128935E0,1.178324342E0
1.583996436E1,1.947686434E0,-1.227650285E0,1.071884274E0
1.584911676E1,1.828876734E0,-1.136175871E0,9.604045749E-1
1.585825639E1,1.713426590E0,-9.962918758E-1,8.623636365E-1
1.586742150E1,1.582705259E0,-8.745805621E-1,7.679877281E-1
1.587657384E1,1.439919710E0,-7.876875401E-1,6.814001203E-1
1.588571348E1,1.276976228E0,-7.322531343E-1,6.021426916E-1
1.589487858E1,1.111894727E0,-6.985038519E-1,5.331169367E-1
1.590403098E1,9.420791864E-1,-6.326850653E-1,4.628695250E-1
1.591317061E1,7.435538173E-1,-5.050179958E-1,3.593308926E-1
1.592233572E1,5.361711979E-1,-3.558185399E-1,2.392994165E-1
1.593148806E1,3.228327632E-1,-2.203631550E-1,1.327065676E-1
1.594064045E1,1.091889441E-1,-1.542389393E-1,6.215370819E-2
1.594979280E1,-8.338065445E-2,-1.919587553E-1,4.550812021E-2
1.595894519E1,-2.553341687E-1,-2.770192325E-1,6.749862432E-2
1.596809754E1,-3.968980014E-1,-3.723114133E-1,8.857285231E-2
1.597724993E1,-5.205945969E-1,-3.834593594E-1,7.192726433E-2
1.598640228E1,-6.481089592E-1,-3.020639718E-1,1.466033421E-2
1.599554191E1,-7.928797603E-1,-2.037175596E-1,-5.848862603E-2
1.600470702E1,-9.701781869E-1,-1.061347127E-1,-1.519482583E-1
1.601385941E1,-1.180309653E0,1.053711493E-2,-2.756448388E-1
1.602299900E1,-1.411209822E0,1.235438585E-1,-4.391991794E-1
1.603216415E1,-1.465117097E0,2.690782249E-1,-6.484143734E-1
1.604131650E1,-1.061499834E0,6.216897964E-1,-7.795938253E-1
1.605045613E1,-3.947600424E-1,1.108687758E0,-7.478297353E-1
1.605962124E1,-4.344651103E-1,1.059819937E0,-5.764871240E-1
1.606877363E1,-1.251931429E0,9.756757617E-1,-4.979932308E-1
1.607791322E1,-2.117960215E0,1.188861489E0,-6.629219651E-1
1.608707837E1,-2.250972033E0,9.243646264E-1,-8.860339522E-1
1.609623072E1,-1.878813505E0,1.220778227E0,-7.424848676E-1
1.610537035E1,-1.688992620E0,1.743816257E0,-5.034908652E-1
1.611453545E1,-1.389524817E0,1.853157878E0,-5.636593103E-1
1.612368785E1,-1.251015186E0,1.595533013E0,-7.023216486E-1
1.613282743E1,-1.430298805E0,1.369825006E0,-7.021689415E-1
1.614199259E1,-1.604237556E0,7.459971905E-1,-6.693359017E-1
1.615114493E1,-1.632642031E0,1.388150454E-1,-7.221741676E-1
1.616028457E1,-1.587133884E0,-1.534753740E-1,-7.840224504E-1
1.616944967E1,-1.491536260E0,-3.733803928E-1,-7.934905887E-1
1.617860207E1,-1.417318344E0,-6.297835112E-1,-7.684458494E-1
1.618774165E1,-1.365854502E0,-7.751652002E-1,-6.757497787E-1
1.619690681E1,-1.320499063E0,-8.829796910E-1,-5.335750580E-1
1.620605915E1,-1.288276911E0,-8.324320912E-1,-3.918585181E-1
1.621519879E1,-1.268424392E0,-6.073349118E-1,-3.075616062E-1
1.622436389E1,-1.233453274E0,-3.854446113E-1,-2.886253297E-1
1.623351629E1,-1.216807723E0,-2.443388999E-1,-2.886253297E-1
1.624266863E1,-1.208408594E0,-1.401894391E-1,-3.020639718E-1
1.625182103E1,-1.192984700E0,-7.391251624E-2,-3.190149665E-1
1.626097337E1,-1.133885264E0,1.343864016E-2,-3.345915973E-1
1.627012577E1,-1.089598775E0,1.105633527E-1,-3.489464819E-1
1.627927811E1,-1.084712029E0,1.856975704E-1,-3.813214004E-1
1.628843051E1,-1.083337665E0,2.704526186E-1,-4.217900336E-1
1.629758290E1,-1.091889501E0,3.330644667E-1,-4.285093546E-1
1.630673525E1,-1.126707792E0,3.596363366E-1,-4.233171642E-1
1.631588759E1,-1.122126460E0,3.289412558E-1,-4.141544402E-1
1.632503999E1,-1.105175376E0,3.042019308E-1,-4.237752855E-1
1.633419238E1,-1.097997904E0,3.193204105E-1,-4.366030693E-1
1.634334472E1,-1.071426034E0,3.162661791E-1,-4.338542521E-1
1.635249712E1,-1.043785214E0,3.313846290E-1,-4.391991794E-1
1.636164946E1,-1.066233873E0,3.686463237E-1,-4.564556181E-1
1.637080186E1,-1.097539783E0,3.787252903E-1,-4.787515402E-1
1.637995420E1,-1.128540277E0,4.443913698E-1,-4.752391577E-1
1.638910660E1,-1.138008475E0,4.949389994E-1,-4.924955964E-1
1.639825894E1,-1.134496093E0,5.189147592E-1,-5.236487985E-1
1.640741134E1,-1.164427638E0,5.833591223E-1,-5.396835804E-1
1.641656368E1,-1.177408099E0,6.568135023E-1,-5.515950918E-1
1.642571608E1,-1.164274931E0,7.104153633E-1,-5.581616759E-1
1.643486842E1,-1.145796776E0,7.922688723E-1,-5.862606764E-1
1.644402082E1,-1.147476554E0,9.187142849E-1,-6.192464232E-1
1.645317316E1,-1.190693974E0,1.012479305E0,-6.470399499E-1
1.646232556E1,-1.229788303E0,1.061194420E0,-6.827745438E-1
1.647147795E1,-1.240325332E0,1.147171140E0,-7.246175408E-1
1.648063030E1,-1.198176861E0,1.232078910E0,-7.780666947E-1
1.648978269E1,-1.121057391E0,1.316223145E0,-8.385405540E-1
1.649893504E1,-1.102884769E0,1.388303161E0,-9.136747718E-1
1.650808743E1,-1.106244445E0,1.401741743E0,-1.009577751E0
1.651723978E1,-1.075396657E0,1.420219898E0,-1.081963181E0
1.652639217E1,-1.024696231E0,1.501462579E0,-1.127471328E0
1.653554452E1,-1.026986957E0,1.700140595E0,-1.156944752E0
1.654468415E1,-1.030193925E0,1.786880970E0,-1.159388065E0
1.655384926E1,-9.707890153E-1,1.745037913E0,-1.144422293E0
1.656300165E1,-9.555178285E-1,1.688381791E0,-1.120446563E0
1.657214129E1,-1.002705812E0,1.582247138E0,-1.119377613E0
1.658130639E1,-9.949174523E-1,1.546054363E0,-1.128540277E0
1.659045879E1,-1.003622055E0,1.267813444E0,-1.113116384E0
1.659961113E1,-1.048824787E0,8.359444737E-1,-1.025765300E0
1.660876353E1,-1.100899458E0,6.717792749E-1,-9.148964882E-1
1.661791587E1,-1.094180107E0,5.751127005E-1,-8.452599049E-1
1.662706827E1,-1.048672080E0,2.835858464E-1,-8.018897176E-1
1.663622061E1,-1.029583097E0,8.063183725E-2,-7.850914598E-1
1.664537301E1,-9.709417224E-1,4.413371533E-2,-7.505785823E-1
1.665451264E1,-8.625163436E-1,1.023169160E-1,-6.923953891E-1
1.666367775E1,-7.673768401E-1,1.745496094E-1,-6.129852533E-1
1.667283014E1,-6.699467301E-1,2.599155009E-1,-5.201364160E-1
1.668196973E1,-5.010474920E-1,2.985515893E-1,-4.396573007E-1
1.669113488E1,-2.386885732E-1,2.267770469E-1,-3.943018913E-1
1.670028722E1,8.002099395E-2,6.841489673E-2,-3.486410677E-1
1.670942686E1,4.037700295E-1,-2.716743052E-1,-2.478512824E-1
1.671859196E1,6.678087711E-1,-6.617003083E-1,-7.467607409E-2
1.672774436E1,8.582404256E-1,-8.107470274E-1,1.154501289E-1
1.673688400E1,1.079977989E0,-7.218687534E-1,2.733541429E-1
1.674604910E1,1.359745979E0,-3.170297146E-1,4.369085133E-1
1.675520150E1,1.630198598E0,5.833591148E-2,5.929799676E-1
1.676434108E1,1.931804419E0,2.901524603E-1,7.719582319E-1
1.677350624E1,2.176295996E0,1.951656938E-1,1.013242841E0
1.678265858E1,2.259676695E0,-2.362451702E-1,1.307824016E0
1.679179822E1,2.285485029E0,-6.274928451E-1,1.567739487E0
1.680096337E1,2.364895105E0,-8.973346353E-1,1.734653473E0
1.681011572E1,2.476222038E0,-1.076923728E0,1.854684949E0
1.681925535E1,2.567085505E0,-1.135412335E0,1.922489047E0
1.682842045E1,2.621145487E0,-1.255291104E0,1.927833915E0
1.683757285E1,2.604041815E0,-1.476570487E0,1.893168330E0
1.684671249E1,2.569070816E0,-1.678761005E0,1.856364846E0
1.685587759E1,2.580371618E0,-1.972273111E0,1.831625462E0
1.686502999E1,2.631682634E0,-2.332520247E0,1.835901380E0
1.687416957E1,2.665737391E0,-2.566780090E0,1.855906725E0
1.688333472E1,2.629391909E0,-2.449344873E0,1.871330619E0
1.689248707E1,2.548913002E0,-2.053515673E0,1.869956136E0
1.690162670E1,2.476374865E0,-1.507723689E0,1.823837161E0
1.691079181E1,2.458049297E0,-9.385668039E-1,1.782910466E0
1.691994420E1,2.453162670E0,-3.739912212E-1,1.773442268E0
1.692909660E1,2.396506548E0,3.268032894E-2,1.763516068E0
1.693824894E1,2.310377121E0,1.663031727E-1,1.768402815E0
1.694740134E1,2.242878437E0,1.664558798E-1,1.834374309E0
1.695654098E1,2.214779377E0,8.597674966E-2,1.922794461E0
1.696570608E1,2.214473963E0,-1.127013192E-1,1.978534222E0
1.697485848E1,2.241809368E0,-4.158342779E-1,1.961888671E0
1.698399806E1,2.268075943E0,-7.499676943E-1,1.849187374E0
1.699316322E1,2.251124859E0,-1.056765795E0,1.689450860E0
1.700231556E1,2.207449198E0,-1.281557560E0,1.539029717E0
1.701145519E1,2.194010735E0,-1.420219898E0,1.363258362E0
1.702062030E1,2.143004894E0,-1.496881247E0,1.198024154E0
1.702977269E1,2.034884930E0,-1.539182425E0,1.064706802E0
1.703891233E1,1.898055196E0,-1.559645772E0,9.660549164E-1
1.704807743E1,1.774358630E0,-1.545138121E0,8.748859763E-1
1.705722983E1,1.655701518E0,-1.459619522E0,7.646280527E-1
1.706636946E1,1.501309872E0,-1.286749721E0,6.314633489E-1
1.707553457E1,1.300646544E0,-1.043021679E0,4.979932308E-1
1.708468696E1,1.066539288E0,-7.956285477E-1,3.790307343E-1
1.709382655E1,8.351809382E-1,-5.830537081E-1,2.629697323E-1
1.710299170E1,6.019899845E-1,-4.253024161E-1,1.476723254E-1
1.711214405E1,3.605526090E-1,-2.701472044E-1,4.016320780E-2
1.712128368E1,1.168245375E-1,-6.841489673E-2,-4.596625641E-2
1.713044884E1,-1.203369126E-1,1.635543555E-1,-1.052184403E-1
1.713960118E1,-3.555130959E-1,3.588727713E-1,-1.369825006E-1
1.714875358E1,-5.680879354E-1,4.242334068E-1,-1.653869003E-1
1.715790598E1,-7.317950130E-1,3.466558158E-1,-2.037175596E-1
1.716705832E1,-8.461761475E-1,2.203631550E-1,-2.606790662E-1
1.717619795E1,-9.503256083E-1,1.757712960E-1,-3.413109183E-1
1.718536306E1,-1.125180602E0,2.889307439E-1,-4.787515402E-1
1.719451545E1,-1.342642307E0,4.527905285E-1,-6.930062175E-1
1.720365509E1,-1.349667072E0,6.627692580E-1,-9.564340711E-1
1.721282019E1,-9.060391784E-1,1.381278396E0,-1.108840466E0
1.722197259E1,-4.175141156E-1,2.198897362E0,-1.023474574E0
1.723111222E1,-8.777875304E-1,1.737860441E0,-8.072346449E-1
1.724027733E1,-1.709608793E0,8.365553021E-1,-7.464553714E-1
1.724942973E1,-2.353899956E0,5.567872524E-1,-8.419002295E-1
1.725856936E1,-2.214321375E0,8.099834919E-1,-7.067502737E-1
1.726773446E1,-1.654021621E0,1.379598498E0,-4.314108789E-1
1.727688686E1,-1.356080890E0,1.311183691E0,-4.860817194E-1
1.728602644E1,-1.500240922E0,7.087355256E-1,-6.905628443E-1
1.729519160E1,-1.653563499E0,1.322484314E-1,-7.145385742E-1
1.730434394E1,-1.616301894E0,-3.028275371E-1,-5.954233408E-1
1.731348358E1,-1.501309872E0,-3.848337829E-1,-4.914266169E-1
1.732264874E1,-1.440225124E0,-5.347967744E-1,-5.066977739E-1
1.733180108E1,-1.479930162E0,-7.466080785E-1,-5.697677732E-1
1.734094072E1,-1.544985414E0,-8.408312798E-1,-5.822901726E-1
1.735010587E1,-1.508792758E0,-7.754706144E-1,-5.173876286E-1
1.735925822E1,-1.378529549E0,-5.778614879E-1,-4.286620617E-1
1.736841061E1,-1.263842940E0,-4.599680007E-1,-3.680354655E-1
1.737756295E1,-1.243990421E0,-3.538332880E-1,-3.552076817E-1
1.738671535E1,-1.247655511E0,-2.838912606E-1,-3.645231128E-1
1.739586775E1,-1.262468576E0,-1.261399537E-1,-3.713951409E-1
1.740502009E1,-1.268424392E0,7.391251624E-2,-4.033119082E-1
1.741417249E1,-1.209324837E0,1.678302884E-1,-4.475983381E-1
1.742332488E1,-1.160151601E0,2.075353563E-1,-4.943281412E-1
1.743247722E1,-1.180462360E0,2.910687327E-1,-5.390726924E-1
1.744162962E1,-1.199398637E0,3.649812341E-1,-5.648810267E-1
1.745078196E1,-1.191763043E0,3.921639323E-1,-5.502206683E-1
1.745993436E1,-1.205201626E0,4.391991794E-1,-5.398362875E-1
1.746908676E1,-1.230551839E0,5.134171247E-1,-5.187620521E-1
1.747823910E1,-1.247808218E0,5.737382770E-1,-4.938700199E-1
1.748739150E1,-1.253764033E0,6.142069101E-1,-4.885250926E-1
1.749654389E1,-1.254527569E0,6.925480962E-1,-4.873034060E-1
1.750569624E1,-1.242768764E0,7.641699314E-1,-5.062396526E-1
1.751484863E1,-1.196955204E0,8.280034661E-1,-5.297572613E-1
1.752400103E1,-1.175117373E0,8.785510659E-1,-5.517477989E-1
1.753315337E1,-1.198482275E0,8.796200752E-1,-5.700731874E-1
1.754230577E1,-1.246891975E0,8.597674966E-1,-5.777087808E-1
1.755145816E1,-1.274380088E0,8.982508779E-1,-5.755708218E-1
1.756061051E1,-1.266133666E0,9.223793745E-1,-5.621321797E-1
1.756976290E1,-1.243685007E0,9.501729012E-1,-5.393781066E-1
1.757891530E1,-1.244295835E0,1.014770031E0,-5.173876286E-1
1.758806764E1,-1.256818295E0,1.099219680E0,-4.955498278E-1
1.759722004E1,-1.287513256E0,1.161831498E0,-4.866925478E-1
1.760637243E1,-1.309198380E0,1.107007980E0,-4.947862923E-1
1.761552478E1,-1.257581830E0,1.068982720E0,-5.260922313E-1
1.762467717E1,-1.176339149E0,1.034622550E0,-5.786250830E-1
1.763382957E1,-1.160915256E0,1.072800517E0,-6.670452356E-1
1.764298191E1,-1.176644564E0,1.085017443E0,-7.631009221E-1
1.765213431E1,-1.138924718E0,1.041952729E0,-8.422056437E-1
1.766128670E1,-1.024696231E0,1.096318126E0,-8.817580342E-1
1.767043905E1,-9.373451471E-1,1.193442822E0,-8.884773254E-1
1.767959144E1,-9.385668039E-1,1.266286373E0,-8.872556686E-1
1.768874384E1,-9.578084946E-1,1.209019423E0,-8.855758309E-1
1.769789618E1,-9.097042680E-1,1.062110662E0,-8.869501948E-1
1.770704858E1,-8.336538076E-1,8.278507590E-1,-8.857285380E-1
1.771620098E1,-7.907418013E-1,6.273401380E-1,-8.528954983E-1
1.772535332E1,-7.467607856E-1,4.401154518E-1,-8.005153537E-1
1.773450572E1,-7.290462255E-1,3.071034551E-1,-7.844805717E-1
1.774365811E1,-7.469134927E-1,2.377723008E-1,-7.911999226E-1
1.775281045E1,-7.475243211E-1,1.737860441E-1,-8.034168482E-1
1.776196285E1,-7.472189069E-1,8.093725890E-2,-8.209787011E-1
1.777111525E1,-7.351546884E-1,-2.153236605E-2,-8.422056437E-1
1.778026759E1,-6.927008033E-1,-1.534753740E-1,-8.234221339E-1
1.778941999E1,-6.097782850E-1,-2.108950168E-1,-7.685985565E-1
1.779857238E1,-4.976878166E-1,-1.779092699E-1,-6.957550049E-1
1.780771197E1,-4.081986845E-1,-1.485885978E-1,-6.181774139E-1
1.781687712E1,-3.011476994E-1,-1.673721522E-1,-5.331169367E-1
1.782602952E1,-1.319430023E-1,-1.948602796E-1,-4.072824121E-1
1.783516915E1,1.101052165E-1,-2.044811249E-1,-1.925695986E-1
1.784433426E1,3.755183518E-1,-1.423274130E-1,4.504998401E-2
1.785348665E1,6.392516494E-1,-7.498150319E-2,2.099787444E-1
1.786262629E1,9.026795626E-1,3.512371797E-3,2.997733057E-1
1.787179139E1,1.169161677E0,-4.046862945E-2,3.455868363E-1
1.788094379E1,1.453816533E0,-2.174616307E-1,4.275930822E-1
1.789008342E1,1.724421859E0,-2.898470163E-1,5.932853818E-1
1.789924853E1,1.887059927E0,-1.827960461E-1,8.057075143E-1
1.790840092E1,1.943257809E0,-2.049392611E-1,9.868237376E-1
1.791754056E1,2.044200420E0,-4.136963189E-1,1.169619799E0
1.792670566E1,2.251888514E0,-6.380299330E-1,1.347070932E0
1.793585806E1,2.466448545E0,-7.798992395E-1,1.495354056E0
1.794501045E1,2.637333155E0,-8.449544907E-1,1.624242902E0
1.795416280E1,2.739650011E0,-8.854231238E-1,1.701209664E0
1.796331519E1,2.737359285E0,-9.877400398E-1,1.722589254E0
1.797245483E1,2.647870064E0,-1.174811959E0,1.696628213E0
1.798161993E1,2.526311636E0,-1.485580564E0,1.644095421E0
1.799077233E1,2.438502312E0,-1.909050345E0,1.569266558E0
1.799991197E1,2.410708666E0,-2.157970667E0,1.533226609E0
1.800907712E1,2.408265352E0,-2.087570429E0,1.530630469E0
1.801822946E1,2.377264738E0,-1.865985632E0,1.518108130E0
1.802736910E1,2.343362808E0,-1.497186661E0,1.500393629E0
1.803653426E1,2.315874577E0,-1.041189194E0,1.505433083E0
1.804568660E1,2.280903578E0,-5.801522136E-1,1.534753680E0
1.805483900E1,2.218444586E0,-2.454078794E-1,1.594464064E0
1.806399139E1,2.140561581E0,-2.962609194E-2,1.647607803E0
1.807314379E1,2.058860779E0,7.040014863E-2,1.679371834E0
1.808228337E1,1.979297876E0,1.270562261E-1,1.705027461E0
1.809144853E1,1.918365836E0,1.745496094E-1,1.726407051E0
1.810060092E1,1.897596955E0,7.146912813E-2,1.739234805E0
1.810974056E1,1.925390601E0,-1.829487532E-1,1.693115830E0
1.811890566E1,1.955474734E0,-4.755446017E-1,1.578123927E0
1.812805806E1,1.946922898E0,-7.737907767E-1,1.448318839E0
1.813719769E1,1.918823957E0,-1.079214454E0,1.311489105E0
1.814636280E1,1.885838151E0,-1.313779712E0,1.149614573E0
1.815551519E1,1.826433301E0,-1.432589531E0,9.972081780E-1
1.816465483E1,1.740303874E0,-1.441141367E0,8.446490765E-1
1.817381999E1,1.630045891E0,-1.388761282E0,7.021689415E-1
1.818297233E1,1.515053868E0,-1.298966646E0,5.888567567E-1
1.819211197E1,1.394106150E0,-1.169925213E0,5.042544007E-1
1.820127712E1,1.238950968E0,-1.007745266E0,4.262186885E-1
1.821042952E1,1.037982225E0,-8.336538076E-1,3.518480062E-1
1.821958186E1,8.171609044E-1,-6.397097707E-1,2.764083743E-1
1.822873426E1,6.053496599E-1,-4.298837483E-1,2.087570578E-1
1.823788665E1,3.909422457E-1,-2.713688910E-1,1.484358907E-1
1.824703905E1,1.681357026E-1,-1.968455315E-1,8.032641560E-2
1.825619139E1,-1.924168877E-2,-1.670667231E-1,1.908897609E-2
1.826534379E1,-1.521009654E-1,-1.169772521E-1,-4.107947648E-2
1.827449618E1,-2.913741469E-1,-4.734066315E-3,-1.033858955E-1
1.828364858E1,-5.019637346E-1,2.145601064E-1,-1.714953631E-1
1.829280092E1,-7.965448499E-1,3.907895386E-1,-2.811424434E-1
1.830194056E1,-1.116781473E0,5.760289431E-1,-4.569137394E-1
1.831110572E1,-1.386012435E0,8.002098799E-1,-6.452074051E-1
1.832025811E1,-1.533226609E0,1.065623045E0,-8.028060198E-1
1.832941045E1,-1.417165637E0,1.459314108E0,-9.512419105E-1
1.833856285E1,-6.601731777E-1,1.952115178E0,-9.885035753E-1
1.834771525E1,-5.048652887E-1,1.235438585E0,-6.271874309E-1
1.835685488E1,-1.919282079E0,2.173089087E-1,-2.822114229E-1
1.836602004E1,-2.836774588E0,1.160151601E0,-2.948864996E-1
1.837517238E1,-2.537612200E0,1.566670537E0,-4.830274582E-1
1.838431202E1,-1.390135646E0,6.575770974E-1,-5.584670901E-1
1.839347717E1,-9.478822351E-1,-3.222219348E-1,-7.574505806E-1
1.840262952E1,-1.401741743E0,-5.325061083E-1,-8.635852933E-1
1.841178191E1,-1.681967974E0,2.936648130E-1,-4.387410581E-1
1.842093431E1,-1.478861213E0,3.329117596E-1,-3.069507517E-2
1.843008670E1,-1.057376623E0,-3.726168349E-2,6.780404598E-2
1.843922634E1,-1.080588818E0,-6.187883019E-1,-8.215895295E-2
1.844839144E1,-1.383416295E0,-7.887565494E-1,-2.698417902E-1
1.845754384E1,-1.452442050E0,-5.946598053E-1,-3.871244490E-1
1.846668348E1,-1.256665468E0,-5.971031785E-1,-4.711159468E-1
1.847584863E1,-1.000415087E0,-6.241331697E-1,-5.401417017E-1
1.848500098E1,-9.127585292E-1,-5.470137000E-1,-5.975613594E-1
1.849414061E1,-9.385668039E-1,-3.205420971E-1,-6.332958937E-1
1.850330577E1,-9.449806809E-1,1.068982761E-3,-6.604785919E-1
1.851245816E1,-9.040539265E-1,3.258870244E-1,-6.733064055E-1
1.852161056E1,-8.765658140E-1,7.038487792E-1,-6.739172339E-1
1.853076290E1,-8.628217578E-1,1.030499339E0,-6.783458591E-1
1.853991530E1,-8.130376935E-1,1.113574505E0,-6.872031689E-1
1.854905493E1,-8.009734750E-1,1.153432369E0,-6.774296165E-1
1.855822009E1,-7.916580439E-1,1.118614078E0,-6.418477297E-1
1.856737243E1,-7.598940134E-1,1.064554095E0,-6.068767309E-1
1.857651207E1,-7.459971905E-1,1.021336675E0,-5.798467398E-1
1.858567722E1,-7.269082665E-1,9.364288449E-1,-5.601469278E-1
1.859482962E1,-7.067502737E-1,8.046385646E-1,-5.152496696E-1
1.860398197E1,-7.116370797E-1,7.168292403E-1,-4.914266169E-1
1.861313436E1,-7.359182239E-1,6.769714952E-1,-4.873034060E-1
1.862228676E1,-7.513421178E-1,6.041279435E-1,-4.789042473E-1
1.863143915E1,-7.831062078E-1,5.654918551E-1,-4.698942602E-1
1.864059155E1,-8.139539957E-1,5.034908652E-1,-4.682144225E-1
1.864974394E1,-8.397622705E-1,4.918847680E-1,-4.866925478E-1
1.865889629E1,-8.388460279E-1,4.624113739E-1,-4.811949134E-1
1.866804868E1,-8.226585388E-1,4.263713956E-1,-4.419479966E-1
1.867720108E1,-8.512156606E-1,5.016583204E-1,-4.239279926E-1
1.868635348E1,-9.329164624E-1,5.376983285E-1,-4.251496792E-1
1.869550582E1,-1.012326598E0,5.424323678E-1,-4.286620617E-1
1.870465822E1,-1.010646820E0,5.657972693E-1,-4.482091665E-1
1.871381061E1,-9.723161459E-1,6.334486008E-1,-4.706578255E-1
1.872296301E1,-1.017213345E0,6.971294284E-1,-4.906630516E-1
1.873211540E1,-1.077381849E0,7.499676943E-1,-5.099047422E-1
1.874126775E1,-1.027139664E0,7.988355160E-1,-5.328115225E-1
1.875042014E1,-9.237537384E-1,7.553126216E-1,-5.674771070E-1
1.875957254E1,-8.716790676E-1,6.739172339E-1,-6.073349118E-1
1.876872493E1,-9.388722181E-1,6.291726828E-1,-6.529957056E-1
1.877787733E1,-1.045617819E0,7.270609736E-1,-6.995728016E-1
1.878702967E1,-1.086086392E0,8.689302206E-1,-7.330167294E-1
1.879618207E1,-1.036302328E0,9.720106721E-1,-7.748597264E-1
1.880533446E1,-9.871291518E-1,1.079061627E0,-8.154810667E-1
1.881448686E1,-9.668185115E-1,1.150683522E0,-8.374716043E-1
1.882363926E1,-9.744541049E-1,1.122889996E0,-8.582404256E-1
1.883279165E1,-9.915578365E-1,1.124569774E0,-8.912261724E-1
1.884194400E1,-9.793408513E-1,1.220320106E0,-9.211576581E-1
1.885109639E1,-9.254335761E-1,1.263079405E0,-9.403993487E-1
1.886024879E1,-8.341119289E-1,1.131289124E0,-9.628480077E-1
1.886940118E1,-7.673768401E-1,9.739959836E-1,-9.891144037E-1
1.887855353E1,-7.869240046E-1,8.309049606E-1,-1.014770031E0
1.888770592E1,-8.400676847E-1,7.188144922E-1,-1.037065983E0
1.889685832E1,-8.623636365E-1,6.752916574E-1,-1.058598280E0
1.890601072E1,-8.473978639E-1,6.620057225E-1,-1.082268596E0
1.891516311E1,-8.298360109E-1,5.738909841E-1,-1.108382344E0
1.892431545E1,-8.356390595E-1,4.008685052E-1,-1.113727212E0
1.893346785E1,-8.583931327E-1,2.220429778E-1,-1.067455530E0
1.894262025E1,-8.617527485E-1,7.773031294E-2,-9.762866497E-1
1.895177264E1,-8.252546191E-1,8.231166750E-2,-8.874083757E-1
1.896092504E1,-7.605048418E-1,2.014268786E-1,-8.192988634E-1
1.897007743E1,-7.091936469E-1,2.896943092E-1,-7.469134927E-1
1.897922978E1,-6.137487888E-1,2.283041626E-1,-6.247440577E-1
1.898836941E1,-3.898732662E-1,6.978929788E-2,-4.381301999E-1
1.899753457E1,-9.987352788E-2,-1.472141892E-1,-2.415900975E-1
1.900668696E1,2.090624720E-1,-2.333436459E-1,-6.169557199E-2
1.901582660E1,5.438067913E-1,-1.194206402E-1,1.298050433E-1
1.902499170E1,8.863393664E-1,1.878355257E-2,3.367295563E-1
1.903414410E1,1.174506545E0,-4.520269856E-2,5.196782947E-1
1.904328374E1,1.413500547E0,-2.292204350E-1,6.704048514E-1
1.905244889E1,1.599503517E0,-2.629697323E-1,7.682931423E-1
1.906160129E1,1.741525531E0,-1.815743446E-1,8.516737819E-1
1.907074092E1,1.974105597E0,-3.523061574E-1,1.016449809E0
1.907990603E1,2.281361818E0,-6.282563806E-1,1.237423778E0
1.908905842E1,2.544484138E0,-8.536590338E-1,1.413500547E0
1.909819806E1,2.716284990E0,-1.045159698E0,1.552162886E0
1.910736322E1,2.789433956E0,-1.134496093E0,1.646233320E0
1.911651561E1,2.754157543E0,-1.052489877E0,1.650814772E0
1.912565525E1,2.618396759E0,-1.147476554E0,1.617523551E0
1.913482035E1,2.447817564E0,-1.600725293E0,1.632642031E0
1.914397275E1,2.377417564E0,-2.074437380E0,1.661046386E0
1.915311238E1,2.373446941E0,-2.252346516E0,1.655090690E0
1.916227754E1,2.320303202E0,-2.021599054E0,1.624701023E0
1.917142993E1,2.262731075E0,-1.632031202E0,1.600114346E0
1.918058228E1,2.238602400E0,-1.398840189E0,1.572320819E0
1.918973467E1,2.208976507E0,-1.250251651E0,1.561020136E0
1.919888707E1,2.161788464E0,-1.010341406E0,1.578887463E0
1.920802670E1,2.100398302E0,-7.162184119E-1,1.636154413E0
1.921719186E1,2.025416851E0,-4.217900336E-1,1.720298648E0
1.922634426E1,1.941578031E0,-1.681357026E-1,1.775122166E0
1.923549660E1,1.877744436E0,-9.819369763E-2,1.828876734E0
1.924464900E1,1.875911951E0,-1.714953631E-1,1.855143070E0
1.925380139E1,1.920198321E0,-2.944283783E-1,1.829945683E0
1.926294103E1,1.965553761E0,-4.410317242E-1,1.787033677E0
1.927210618E1,1.991667509E0,-5.906893015E-1,1.716480851E0
1.928125858E1,2.011519909E0,-8.296833038E-1,1.612331390E0
1.929039822E1,2.018239260E0,-1.103801012E0,1.464811683E0
1.929956332E1,2.006175041E0,-1.335159421E0,1.314848781E0
1.930871572E1,1.984337330E0,-1.446639061E0,1.177866220E0
1.931785535E1,1.945548534E0,-1.474279881E0,1.057376623E0
1.932702051E1,1.868734479E0,-1.441752195E0,9.347490072E-1
1.933617290E1,1.765043139E0,-1.364021897E0,8.215895891E-1
1.934531254E1,1.659672022E0,-1.256665468E0,7.107207775E-1
1.935447764E1,1.559798479E0,-1.139688253E0,6.116108298E-1
1.936363004E1,1.443737507E0,-9.975135922E-1,5.245651007E-1
1.937278243E1,1.303089857E0,-8.177717924E-1,4.534013867E-1
1.938193483E1,1.137703061E0,-6.085565686E-1,3.830012381E-1
1.939108717E1,9.599464536E-1,-4.133908749E-1,3.064926267E-1
1.940023957E1,7.614210844E-1,-2.386885732E-1,2.200577259E-1
1.940939196E1,5.474718809E-1,-1.128540337E-1,1.244601309E-1
1.941854436E1,3.419217467E-1,-3.817795217E-2,3.313846514E-2
1.942769676E1,1.432436854E-1,2.321219631E-2,-4.947862774E-2
1.943684915E1,-5.833591148E-2,1.215586066E-1,-1.017060652E-1
1.944600150E1,-2.518217862E-1,2.550287247E-1,-1.081199646E-1
1.945514118E1,-4.205683470E-1,3.764346242E-1,-9.773556143E-2
1.946430629E1,-5.825955868E-1,4.466820657E-1,-1.081199646E-1
1.947345868E1,-7.821899056E-1,4.466820657E-1,-1.681357026E-1
1.948259832E1,-1.047297597E0,3.735330999E-1,-2.774773538E-1
1.949176348E1,-1.292094707E0,3.978142738E-1,-4.526378214E-1
1.950091587E1,-1.336533785E0,6.453601122E-1,-6.636855602E-1
1.951006822E1,-1.165343881E0,1.103342891E0,-8.777875304E-1
1.951922061E1,-8.541171551E-1,1.875148416E0,-1.017213345E0
1.952837301E1,-7.759287357E-1,1.543305635E0,-8.612946272E-1
1.953751264E1,-1.832847238E0,1.603474095E-2,-4.824166298E-1
1.954667780E1,-2.777675152E0,2.550287247E-1,-1.435490996E-1
1.955583019E1,-2.660850763E0,1.747786760E0,1.608055383E-1
1.956496983E1,-1.588050127E0,2.340766668E0,3.475720882E-1
1.957413493E1,-8.880192041E-1,1.331799746E0,1.345391124E-1
1.958328733E1,-9.098569751E-1,-4.451549351E-1,-4.431696832E-1
1.959242696E1,-1.332257867E0,-1.090973258E0,-5.378510356E-1
1.960159212E1,-1.353179336E0,-9.016105533E-1,-1.803526580E-1
1.961074452E1,-9.410101771E-1,-7.024743557E-1,2.382304333E-2
1.961988415E1,-7.154548764E-1,-9.011524320E-1,-1.221694518E-3
1.962904926E1,-1.012021184E0,-1.101052165E0,-1.510319859E-1
1.963820165E1,-1.280335903E0,-1.003163934E0,-2.896943092E-1
1.964735405E1,-1.136939406E0,-8.718317747E-1,-3.822376728E-1
1.965650644E1,-9.237537384E-1,-7.353073955E-1,-5.028799772E-1
1.966565884E1,-8.670976758E-1,-6.000047326E-1,-6.271874309E-1
1.967479848E1,-9.025267959E-1,-4.660764635E-1,-7.014053464E-1
1.968396358E1,-9.217684865E-1,-1.629435122E-1,-7.053758502E-1
1.969311598E1,-8.829796910E-1,3.150444627E-1,-6.804838181E-1
1.970225561E1,-8.298360109E-1,7.207997441E-1,-6.681141853E-1
1.971142077E1,-7.740961909E-1,9.487984776E-1,-6.319214702E-1
1.972057316E1,-7.670714259E-1,1.112352848E0,-5.830537081E-1
1.972971280E1,-8.255600929E-1,1.229177356E0,-5.769452453E-1
1.973887790E1,-8.475505710E-1,1.209172130E0,-5.880932212E-1
1.974803030E1,-8.011261821E-1,1.125486016E0,-5.961869359E-1
1.975716993E1,-8.128849864E-1,9.988879561E-1,-6.145123243E-1
1.976633509E1,-8.516737819E-1,8.571714163E-1,-6.207735538E-1
1.977548749E1,-8.547280431E-1,6.963658929E-1,-5.969504714E-1
1.978463983E1,-8.339592218E-1,6.261184216E-1,-5.428904891E-1
1.979379222E1,-8.115105629E-1,6.516213417E-1,-4.897467792E-1
1.980294462E1,-8.138012886E-1,7.385143638E-1,-4.463766217E-1
1.981209702E1,-8.394568563E-1,7.754706144E-1,-4.081986845E-1
1.982124941E1,-8.623636365E-1,7.104153633E-1,-3.973561525E-1
1.983040181E1,-9.049702287E-1,6.626165509E-1,-4.085040987E-1
1.983955415E1,-9.504783154E-1,5.919110179E-1,-4.344651103E-1
1.984870655E1,-9.588775039E-1,4.943281412E-1,-4.399627447E-1
1.985785894E1,-9.593356252E-1,4.587462842E-1,-4.185830951E-1
1.986701134E1,-9.768974781E-1,4.172086716E-1,-3.839175105E-1
1.987616374E1,-9.721634388E-1,4.065188468E-1,-3.501681983E-1
1.988531613E1,-9.700254202E-1,4.602734149E-1,-3.442124426E-1
1.989446853E1,-9.646805525E-1,4.868452549E-1,-3.556658030E-1
1.990362087E1,-9.729269743E-1,5.686988235E-1,-3.527642787E-1
1.991277327E1,-9.791881442E-1,6.555918455E-1,-3.382566571E-1
1.992192566E1,-9.889616966E-1,7.719582319E-1,-3.249707520E-1
1.993107806E1,-1.020267606E0,8.272398710E-1,-3.287885487E-1
1.994023045E1,-1.025001645E0,8.898517489E-1,-3.649812341E-1
1.994938285E1,-1.029124975E0,9.504783154E-1,-3.955236077E-1
1.995853519E1,-1.036302328E0,9.359707236E-1,-4.268295169E-1
1.996768759E1,-1.014006495E0,8.742751479E-1,-4.674508572E-1
1.997683999E1,-9.781191945E-1,8.026533127E-1,-4.750864506E-1
1.998599238E1,-9.730796814E-1,7.899782062E-1,-4.671454430E-1
1.999514478E1,-9.570449591E-1,7.882983685E-1,-4.706578255E-1
2.000429717E1,-9.185615778E-1,8.472451568E-1,-5.053234100E-1
2.001344957E1,-9.355126023E-1,9.097042680E-1,-5.505260825E-1
2.002260191E1,-9.970554113E-1,9.081771374E-1,-5.919110179E-1
2.003175431E1,-1.099525094E0,8.704573512E-1,-6.329904795E-1
2.004090670E1,-1.111283898E0,7.499676943E-1,-6.568135023E-1
2.005005910E1,-9.872818589E-1,6.820109487E-1,-6.624638438E-1
2.005921150E1,-8.999307156E-1,6.284091473E-1,-6.930062175E-1
2.006836389E1,-8.953493834E-1,4.926483035E-1,-7.392778993E-1
2.007751624E1,-8.883246183E-1,3.446705639E-1,-7.855495811E-1
2.008666863E1,-8.255600929E-1,2.362451702E-1,-8.162446618E-1
2.009582103E1,-7.487460375E-1,1.278197914E-1,-8.272398710E-1
2.010497342E1,-6.847597957E-1,4.856235534E-2,-8.192988634E-1
2.011412582E1,-6.299362183E-1,5.161659420E-2,-8.037222624E-1
2.012327822E1,-6.296308041E-1,1.542389300E-2,-8.035695553E-1
2.013243061E1,-6.971294284E-1,6.261184346E-3,-8.280034661E-1
2.014157025E1,-7.574505806E-1,8.261708915E-2,-8.608365059E-1
2.015073535E1,-7.272136807E-1,2.162399292E-1,-8.710681796E-1
2.015988775E1,-6.540647149E-1,4.430169761E-1,-8.687775135E-1
2.016902738E1,-5.845808387E-1,6.632274389E-1,-8.556442857E-1
2.017819254E1,-5.044071078E-1,8.020424247E-1,-8.394568563E-1
2.018734493E1,-3.871244490E-1,8.270871639E-1,-8.098307252E-1
2.019648457E1,-2.579302490E-1,7.623373866E-1,-7.484406233E-1
2.020564967E1,-1.070509851E-1,5.960342288E-1,-6.600204706E-1
2.021480207E1,8.338065445E-2,4.260659516E-1,-5.686988235E-1
2.022394170E1,3.058817685E-1,2.983988822E-1,-4.643966258E-1
2.023310686E1,5.554128885E-1,1.849340051E-1,-3.326063454E-1
2.024225926E1,8.084563613E-1,1.044548824E-1,-2.293731421E-1
2.025139889E1,1.057376623E0,1.603474021E-1,-1.977618039E-1
2.026056405E1,1.350583315E0,2.243336588E-1,-1.430909634E-1
2.026971639E1,1.645164371E0,3.787253052E-2,-1.679830020E-3
2.027885603E1,1.891030431E0,-1.905843467E-1,1.931804419E-1
2.028802118E1,2.084058046E0,-1.707318127E-1,4.045335948E-1
2.029717358E1,2.223636627E0,-8.292251825E-2,5.972558856E-1
2.030631322E1,2.344889879E0,-1.634016447E-2,7.788302302E-1
2.031547837E1,2.459270954E0,2.886253223E-2,9.341381788E-1
2.032463077E1,2.539597511E0,-1.319430023E-1,1.078908920E0
2.033377040E1,2.590908766E0,-4.375193417E-1,1.205354333E0
2.034293551E1,2.637027502E0,-7.412631512E-1,1.299883008E0
2.035208790E1,2.622978210E0,-9.875873327E-1,1.348750710E0
2.036122754E1,2.497754335E0,-1.183669329E0,1.349208832E0
2.037039269E1,2.312209606E0,-1.394258857E0,1.362189412E0
2.037954509E1,2.194468737E0,-1.616607308E0,1.376086116E0
2.038868472E1,2.200577259E0,-1.673874259E0,1.371352077E0
2.039784983E1,2.251277685E0,-1.473210931E0,1.359440565E0
2.040700223E1,2.253873587E0,-1.071884274E0,1.372573733E0
2.041614186E1,2.194010735E0,-6.076403260E-1,1.430298805E0
2.042530702E1,2.119792700E0,-1.940967143E-1,1.513832211E0
2.043445941E1,2.091082811E0,1.363716573E-1,1.611109614E0
2.044361181E1,2.081462145E0,3.506263196E-1,1.700598717E0
2.045276420E1,2.044353008E0,4.785988331E-1,1.752826214E0
2.046191655E1,1.986169815E0,5.015056133E-1,1.762752533E0
2.047105624E1,1.921420097E0,4.271349311E-1,1.768402815E0
2.048022134E1,1.869498014E0,3.115321100E-1,1.780925155E0
2.048937374E1,1.843995214E0,6.673506647E-2,1.775427580E0
2.049851337E1,1.862931371E0,-3.112266660E-1,1.723963618E0
2.050767853E1,1.895153642E0,-7.032378912E-1,1.617065430E0
2.051683092E1,1.907981396E0,-1.041189194E0,1.487871170E0
2.052597056E1,1.886907220E0,-1.261705041E0,1.365701795E0
2.053513566E1,1.828571320E0,-1.353179336E0,1.237729311E0
2.054428806E1,1.775274873E0,-1.402657986E0,1.092042208E0
2.055342769E1,1.712357521E0,-1.412278891E0,9.720106721E-1
2.056259285E1,1.626686215E0,-1.360356808E0,8.730534315E-1
2.057174525E1,1.513679504E0,-1.223527074E0,7.841751575E-1
2.058088488E1,1.365549088E0,-1.024696231E0,6.951441765E-1
2.059005004E1,1.200314879E0,-8.510629535E-1,6.224533319E-1
2.059920243E1,1.018282413E0,-7.256865501E-1,5.563291311E-1
2.060835478E1,8.434273601E-1,-6.471926570E-1,4.987567961E-1
2.061750717E1,6.868977547E-1,-5.464028716E-1,4.396573007E-1
2.062665957E1,5.367820263E-1,-4.126273096E-1,3.742966652E-1
2.063581197E1,3.607053161E-1,-2.553341687E-1,2.922904193E-1
2.064496436E1,1.574458778E-1,-1.047603041E-1,2.076880634E-1
2.065411676E1,-4.169032723E-2,-9.468132630E-3,1.568350345E-1
2.066326915E1,-2.137965411E-1,5.344913341E-3,1.568350345E-1
2.067242150E1,-3.683409095E-1,-2.367033064E-2,1.734806150E-1
2.068157389E1,-5.163186193E-1,-8.399149403E-3,1.632489264E-1
2.069071353E1,-6.603258848E-1,6.963659078E-2,1.169772521E-1
2.069987868E1,-8.174663186E-1,1.594311297E-1,4.184303805E-2
2.070903108E1,-9.962918758E-1,2.226538211E-1,-6.566607952E-2
2.071817072E1,-1.236202121E0,2.389939874E-1,-2.328855246E-1
2.072733587E1,-1.393342614E0,3.578037918E-1,-4.801259339E-1
2.073648827E1,-1.111589313E0,8.606837988E-1,-6.794148684E-1
2.074562790E1,-4.175141156E-1,1.827960372E0,-6.453601122E-1
2.075479301E1,-1.585148573E-1,1.684716702E0,-3.851391971E-1
2.076394540E1,-8.467870355E-1,2.762556672E-1,-1.238492802E-1
2.077308504E1,-2.187138557E0,4.440859556E-1,-9.865183383E-2
2.078225019E1,-2.553341627E0,4.952444136E-1,-3.278722763E-1
2.079140259E1,-1.794974685E0,-1.382041872E-1,-3.524588645E-1
2.080054222E1,-1.190083146E0,-1.710372269E-1,-2.108950168E-1
2.080970738E1,-1.062874198E0,-4.275931045E-3,-1.502684206E-1
2.081885973E1,-1.316986680E0,9.804098308E-2,-1.869192570E-1
2.082801212E1,-1.446944475E0,-8.689302206E-2,-1.253764033E-1
2.083716452E1,-1.386775970E0,-3.164188862E-1,-3.359660041E-3
2.084631691E1,-1.245670319E0,-4.775298536E-1,3.878879920E-2
2.085545655E1,-1.191610336E0,-6.482616663E-1,-1.756185852E-2
2.086462170E1,-1.166260123E0,-7.455390692E-1,-1.168245375E-1
2.087377410E1,-1.174201131E0,-7.272136807E-1,-1.931804419E-1
2.088292650E1,-1.204590797E0,-6.320741773E-1,-1.818797737E-1
2.089207884E1,-1.162900448E0,-3.545968235E-1,-1.244601309E-1
2.090123124E1,-1.070204377E0,-1.301104724E-1,-9.101624042E-2
2.091038363E1,-1.013548255E0,3.741439432E-2,-1.029277667E-1
2.091953603E1,-1.021794796E0,2.180724740E-1,-1.397313178E-1
2.092868842E1,-1.045465112E0,3.275668323E-1,-1.705790907E-1
2.093784082E1,-1.044854283E0,4.052971601E-1,-1.772984117E-1
2.094699322E1,-1.015228152E0,3.950654566E-1,-1.801999360E-1
2.095614556E1,-9.491039515E-1,2.528907657E-1,-1.979145110E-1
2.096529795E1,-8.765658140E-1,1.504211426E-1,-2.333436459E-1
2.097445035E1,-8.260182142E-1,9.727742523E-2,-2.817533016E-1
2.098360275E1,-7.724163532E-1,4.001049697E-2,-3.032856584E-1
2.099275514E1,-7.588250041E-1,4.489727318E-2,-3.063398898E-1
2.100190754E1,-7.617265582E-1,3.649812192E-2,-3.167243004E-1
2.101105993E1,-7.870767117E-1,4.779879749E-2,-3.431434333E-1
2.102021233E1,-8.041804433E-1,4.398100078E-2,-3.738385141E-1
2.102936467E1,-7.695148587E-1,-2.611372061E-2,-4.162923992E-1
2.103851707E1,-7.484406233E-1,-2.489202656E-2,-4.497362971E-1
2.104766947E1,-7.838697433E-1,8.521319181E-2,-4.659237564E-1
2.105682186E1,-7.806627750E-1,1.551551968E-1,-4.793623984E-1
2.106597426E1,-7.618792653E-1,2.521272004E-1,-4.665345848E-1
2.107512665E1,-7.927270532E-1,3.854446113E-1,-4.454603493E-1
2.108427905E1,-8.339592218E-1,5.137225389E-1,-4.427115619E-1
2.109343144E1,-8.480086923E-1,5.799994469E-1,-4.624113739E-1
2.110258379E1,-8.649597168E-1,5.413633585E-1,-4.552339315E-1
2.111173618E1,-8.991671801E-1,5.781669021E-1,-4.388937652E-1
2.112088858E1,-9.759812355E-1,6.160394549E-1,-4.388937652E-1
2.113004098E1,-1.041189194E0,6.827745438E-1,-4.460712075E-1
2.113919337E1,-1.044243336E0,7.398887277E-1,-4.559974670E-1
2.114834577E1,-9.904888272E-1,8.098307252E-1,-4.873034060E-1
2.115749816E1,-9.741486907E-1,8.626690507E-1,-5.215108395E-1
2.116665056E1,-9.930849075E-1,8.590039611E-1,-5.424323678E-1
2.117580295E1,-9.909469485E-1,9.089407325E-1,-5.564818382E-1
2.118495530E1,-9.501729012E-1,9.619317055E-1,-5.653391480E-1
2.119410769E1,-9.541434050E-1,9.837695360E-1,-5.587725043E-1
2.120326009E1,-9.991934299E-1,1.001025915E0,-5.633538961E-1
2.121241249E1,-1.028361320E0,1.023932695E0,-5.720584393E-1
2.122156488E1,-1.024848938E0,1.040883780E0,-5.696150661E-1
2.123071728E1,-1.004538298E0,1.053558826E0,-5.694623590E-1
2.123986967E1,-9.820896983E-1,1.009577751E0,-5.754181147E-1
2.124902207E1,-9.979717135E-1,9.396358132E-1,-5.900784731E-1
2.125817441E1,-1.024085402E0,8.484668136E-1,-6.134433746E-1
2.126732681E1,-1.022405624E0,8.585458398E-1,-6.274928451E-1
2.127647920E1,-9.749122262E-1,8.605310917E-1,-6.247440577E-1
2.128563160E1,-9.284878373E-1,8.281561732E-1,-6.109999418E-1
2.129478400E1,-9.373451471E-1,7.828007340E-1,-6.134433746E-1
2.130393639E1,-9.642223716E-1,6.936170459E-1,-6.300889254E-1
2.131308879E1,-9.764393568E-1,5.590779781E-1,-6.531484127E-1
2.132224118E1,-9.570449591E-1,3.950654566E-1,-6.841489077E-1
2.133139353E1,-9.153546095E-1,2.269297540E-1,-7.050704360E-1
2.134054592E1,-8.420529366E-1,9.681928903E-2,-7.191199064E-1
2.134969832E1,-7.773031592E-1,3.237490356E-2,-7.258392572E-1
2.135885072E1,-7.656970620E-1,-2.733541466E-2,-7.386670709E-1
2.136800311E1,-7.777612805E-1,-5.253286287E-2,-7.484406233E-1
2.137715551E1,-7.502731681E-1,-9.422318637E-2,-7.586722970E-1
2.138630790E1,-6.894938350E-1,-1.249182671E-1,-7.826480269E-1
2.139546030E1,-6.148177385E-1,-4.245388508E-2,-8.170081973E-1
2.140461264E1,-5.201364160E-1,1.366770715E-1,-8.469397426E-1
2.141376504E1,-4.190412164E-1,3.475720882E-1,-8.481613994E-1
2.142291743E1,-3.216110766E-1,4.650074840E-1,-8.031114340E-1
2.143205707E1,-2.112004459E-1,4.008685052E-1,-7.160657048E-1
2.144122222E1,-7.864658535E-2,2.069245130E-1,-6.142069101E-1
2.145037462E1,7.742489129E-2,-1.226275861E-1,-5.085303187E-1
2.145951426E1,2.693836391E-1,-6.189410090E-1,-3.895678520E-1
2.146867941E1,5.157077909E-1,-1.080894232E0,-2.660239935E-1
2.147783181E1,7.427902818E-1,-1.227650285E0,-1.348445266E-1
2.148697144E1,9.187142849E-1,-1.034622550E0,-7.941014133E-3
2.149613655E1,1.096623540E0,-5.520532131E-1,5.405998230E-2
2.150528894E1,1.289498568E0,-2.052446753E-1,7.711946964E-2
2.151442858E1,1.474738002E0,-6.413896102E-3,1.437018216E-1
2.152359374E1,1.650203824E0,1.834068894E-1,2.272351831E-1
2.153274613E1,1.827196836E0,3.226800561E-1,3.414636254E-1
2.154188577E1,2.006938696E0,4.098785222E-1,5.257867575E-1
2.155105092E1,2.187596798E0,5.183038712E-1,7.131641507E-1
2.156020332E1,2.328855276E0,4.370612204E-1,8.785510659E-1
2.156934295E1,2.403073072E0,4.734066129E-2,1.043632507E0
2.157850811E1,2.486912012E0,-4.323271513E-1,1.174659252E0
2.158766045E1,2.581593275E0,-7.055285573E-1,1.198634982E0
2.159681285E1,2.619771242E0,-8.226585388E-1,1.158166409E0
2.160596525E1,2.573194027E0,-8.884773254E-1,1.113269091E0
2.161511764E1,2.510124207E0,-9.381086826E-1,1.097539783E0
2.162425728E1,2.461103678E0,-1.050809979E0,1.127165914E0
2.163342243E1,2.394063234E0,-1.089140654E0,1.187334418E0
2.164257483E1,2.310682535E0,-9.481876493E-1,1.222610831E0
2.165171446E1,2.256469727E0,-7.493568659E-1,1.230551839E0
2.166087962E1,2.224553108E0,-5.022691488E-1,1.257123709E0
2.167003202E1,2.164842606E0,-1.708845198E-1,1.291789293E0
2.167918436E1,2.100551128E0,9.926267713E-2,1.342489600E0
2.168833676E1,2.047101974E0,2.622061968E-1,1.420067191E0
2.169748915E1,2.011214495E0,4.191939235E-1,1.542542100E0
2.170662879E1,2.017170429E0,6.132906675E-1,1.659672022E0
2.171579394E1,2.048476219E0,7.382088900E-1,1.702584028E0
2.172494634E1,2.064816475E0,6.374191046E-1,1.673416018E0
2.173408598E1,2.033357859E0,3.410054743E-1,1.565296054E0
2.174325113E1,1.968913436E0,-2.305948362E-2,1.405712247E0
2.175240353E1,1.903858185E0,-3.413109183E-1,1.254069448E0
2.176154316E1,1.856517553E0,-6.352811456E-1,1.131289124E0
2.177070827E1,1.809635043E0,-8.677085042E-1,1.032789946E0
2.177986066E1,1.752673507E0,-1.007287145E0,9.671239257E-1
2.178900030E1,1.691894174E0,-1.094943762E0,9.228374958E-1
2.179816545E1,1.628976941E0,-1.145796776E0,8.845068216E-1
2.180731785E1,1.561783671E0,-1.131594539E0,8.492304087E-1
2.181647025E1,1.496728539E0,-1.062568784E0,7.882983685E-1
2.182562264E1,1.409988165E0,-9.558232427E-1,7.056813240E-1
2.183477504E1,1.283542752E0,-8.273926377E-1,6.088619828E-1
2.184392743E1,1.131441832E0,-7.539382577E-1,5.222744346E-1
2.185307983E1,9.794935584E-1,-7.466080785E-1,4.582881629E-1
2.186223222E1,8.502993584E-1,-7.620319724E-1,4.091149569E-1
2.187138457E1,7.447755337E-1,-7.214106321E-1,3.539859951E-1
2.188053696E1,6.323796511E-1,-5.731274486E-1,2.791571915E-1
2.188968936E1,4.880669713E-1,-3.880407214E-1,1.902789176E-1
2.189884176E1,3.193204105E-1,-2.307475507E-1,1.166718230E-1
2.190799415E1,1.537808031E-1,-1.220167428E-1,8.429691941E-2
2.191714655E1,1.588202827E-2,-6.016845629E-2,9.437590092E-2
2.192629894E1,-8.704573661E-2,-2.443389036E-3,1.039967462E-1
2.193545134E1,-1.664558798E-1,5.818320066E-2,8.994726092E-2
2.194460374E1,-2.206685692E-1,6.291726977E-2,6.810946763E-2
2.195375613E1,-2.661767006E-1,-1.145338640E-2,4.413371533E-2
2.196290853E1,-3.162661791E-1,-1.200314835E-1,1.634016447E-2
2.197206087E1,-3.750602305E-1,-2.148655206E-1,-1.389677543E-2
2.198121327E1,-4.350759685E-1,-2.959555089E-1,-5.894676223E-2
2.199036566E1,-5.117372870E-1,-3.304683566E-1,-1.113269106E-1
2.199951806E1,-6.213843822E-1,-2.996205688E-1,-1.695101112E-1
2.200867045E1,-7.653915882E-1,-2.391466945E-1,-2.127275616E-1
2.201782285E1,-9.196305275E-1,-2.118112892E-1,-2.376195788E-1
2.202697525E1,-1.073105931E0,-2.000524700E-1,-2.447970361E-1
2.203612764E1,-1.213295341E0,-1.774511337E-1,-2.501419485E-1
2.204528004E1,-1.352721214E0,-1.505738497E-1,-2.681619525E-1
2.205443243E1,-1.488482118E0,-1.220167428E-1,-3.095468581E-1
2.206358483E1,-1.605612040E0,-7.177454978E-2,-3.738385141E-1
2.207273717E1,-1.734500766E0,3.863608837E-2,-4.523324072E-1
2.208188957E1,-1.887823462E0,1.481304616E-1,-5.708367825E-1
2.209102926E1,-1.983268380E0,2.600682080E-1,-7.137750387E-1
2.210019436E1,-1.730682969E0,5.958815217E-1,-7.824953198E-1
2.210934676E1,-6.870504618E-1,1.117850542E0,-5.789304972E-1
2.211848639E1,4.141544402E-1,1.323095202E0,-1.866138428E-1
2.212765155E1,-3.313846514E-2,4.830274582E-1,2.153236605E-2
2.213680394E1,-1.124722481E0,6.134433746E-1,-1.023169160E-1
2.214594358E1,-1.516581059E0,1.362494826E0,-5.402944088E-1
2.215510874E1,-1.483595252E0,-1.055238619E-1,-1.047755718E0
2.216426113E1,-1.397160411E0,-1.261552334E0,-1.147018433E0
2.217340077E1,-1.236049414E0,-4.563029110E-1,-6.908682585E-1
2.218256587E1,-1.226734042E0,1.040272832E0,-3.231382072E-1
2.219171827E1,-1.480388284E0,1.548497796E0,-3.032856584E-1
2.220085795E1,-1.735264301E0,1.501157165E0,-2.929012477E-1
2.221002306E1,-1.755727768E0,1.139840961E0,-2.133384049E-1
2.221917545E1,-1.666849494E0,4.511106908E-1,-2.489202619E-1
2.222831509E1,-1.583774209E0,-2.967190444E-1,-4.187358022E-1
2.223748025E1,-1.569113851E0,-9.597937465E-1,-6.264238358E-1
2.224663264E1,-1.538266063E0,-1.260025144E0,-7.065975666E-1
2.225577228E1,-1.419456363E0,-1.169008970E0,-6.007682681E-1
2.226493743E1,-1.304158926E0,-9.573503733E-1,-4.492781460E-1
2.227408983E1,-1.272089362E0,-7.249229550E-1,-3.607053161E-1
2.228322946E1,-1.340809703E0,-3.526115716E-1,-3.132119179E-1
2.229239457E1,-1.422357798E0,5.955760833E-3,-2.828222811E-1
2.230154696E1,-1.469545841E0,3.095468581E-1,-2.816005945E-1
2.231069936E1,-1.448013425E0,5.392253995E-1,-2.987042964E-1
2.231985176E1,-1.380209327E0,6.873558760E-1,-3.471139669E-1
2.232900415E1,-1.340809703E0,7.203416228E-1,-4.031592011E-1
2.233815655E1,-1.328592777E0,6.792621613E-1,-4.439332485E-1
2.234730894E1,-1.287207842E0,6.387935281E-1,-4.808894992E-1
2.235646134E1,-1.175422788E0,6.685723066E-1,-4.805840850E-1
2.236561374E1,-1.070509791E0,7.916580439E-1,-4.744756222E-1
2.237476613E1,-1.032331824E0,8.695410490E-1,-4.804313779E-1
2.238391853E1,-1.014159203E0,9.104678631E-1,-4.822639227E-1
2.239307092E1,-1.007897973E0,9.623898268E-1,-4.686725736E-1
2.240222327E1,-9.941539168E-1,1.003316641E0,-4.595098495E-1
2.241137566E1,-9.788827300E-1,1.015533566E0,-4.411844313E-1
2.242052806E1,-9.888089895E-1,1.012479305E0,-4.405735731E-1
2.242968045E1,-1.003163934E0,9.781191945E-1,-4.546230733E-1
2.243883285E1,-1.002094984E0,9.219212532E-1,-4.729484916E-1
2.244798525E1,-9.817842841E-1,8.820634484E-1,-4.898995161E-1
2.245713764E1,-9.594883323E-1,8.568660021E-1,-4.865398407E-1
2.246629004E1,-9.289459586E-1,8.153283596E-1,-4.753918648E-1
2.247544243E1,-9.049702287E-1,7.479824424E-1,-4.683671296E-1
2.248459483E1,-8.852704167E-1,6.907155514E-1,-4.718795121E-1
2.249374722E1,-8.609892130E-1,6.671979427E-1,-4.784461260E-1
2.250289962E1,-8.533536196E-1,7.093463540E-1,-4.924955964E-1
2.251205196E1,-8.405258060E-1,7.250757217E-1,-4.984513521E-1
2.252120436E1,-8.313631415E-1,7.478297353E-1,-5.173876286E-1
2.253035676E1,-8.451071978E-1,7.785248160E-1,-5.364766121E-1
2.253950915E1,-8.764131069E-1,7.718055248E-1,-5.464028716E-1
2.254866155E1,-9.220739603E-1,7.747070193E-1,-5.497625470E-1
2.255781394E1,-9.561286569E-1,7.301151752E-1,-5.598415136E-1
2.256696634E1,-9.457442760E-1,6.053496599E-1,-5.607577562E-1
2.257611874E1,-9.057337642E-1,4.535540938E-1,-5.537330508E-1
2.258527113E1,-8.785510659E-1,3.089359999E-1,-5.546492934E-1
2.259442353E1,-8.912261724E-1,2.275405973E-1,-5.735855699E-1
2.260357592E1,-9.112313986E-1,2.032594234E-1,-5.963396430E-1
2.261272832E1,-8.782456517E-1,1.568350345E-1,-6.070294380E-1
2.262188072E1,-8.122741580E-1,8.704573661E-2,-5.986303091E-1
2.263103311E1,-7.409577370E-1,1.267508045E-2,-5.680879354E-1
2.264018551E1,-6.959077120E-1,-6.245913357E-2,-5.311316848E-1
2.264933785E1,-7.027797699E-1,-7.207997888E-2,-4.975350797E-1
2.265849025E1,-7.482879162E-1,-2.504473738E-2,-4.760027230E-1
2.266764264E1,-8.099834919E-1,-2.031067200E-2,-4.683671296E-1
2.267679504E1,-8.463288546E-1,-3.481829539E-2,-4.588989913E-1
2.268594743E1,-8.215895891E-1,-4.718795046E-2,-4.398100376E-1
2.269509983E1,-7.440119386E-1,-4.230117425E-2,-4.259132445E-1
2.270425222E1,-6.736118197E-1,1.206423342E-2,-4.301891923E-1
2.271340462E1,-6.575770974E-1,7.589777559E-2,-4.356867969E-1
2.272255702E1,-6.777350307E-1,1.211004704E-1,-4.285093546E-1
2.273170941E1,-6.920899153E-1,1.427855492E-1,-4.146125913E-1
2.274086181E1,-6.733064055E-1,1.627907902E-1,-4.010212123E-1
2.275001420E1,-6.113054156E-1,2.038702667E-1,-4.019374847E-1
2.275916660E1,-5.399889946E-1,3.067980409E-1,-4.337015450E-1
2.276831900E1,-5.279247165E-1,4.207210541E-1,-4.666872919E-1
2.277747139E1,-5.505260825E-1,4.755446017E-1,-4.724903405E-1
2.278662379E1,-5.757235289E-1,5.225798488E-1,-4.677563012E-1
2.279577613E1,-5.876350403E-1,4.833329022E-1,-4.543176591E-1
2.280491582E1,-5.606050491E-1,3.257342875E-1,-3.979669809E-1
2.281408092E1,-5.537330508E-1,1.270562261E-1,-3.251234591E-1
2.282323332E1,-5.880932212E-1,-1.256818175E-1,-2.573194206E-1
2.283238572E1,-6.282563806E-1,-4.358395338E-1,-1.798945218E-1
2.284153811E1,-6.835380793E-1,-6.870504618E-1,-1.201841980E-1
2.285069051E1,-7.681404352E-1,-8.750386834E-1,-1.036913246E-1
2.285983014E1,-8.605310917E-1,-9.500201941E-1,-1.163664013E-1
2.286899530E1,-9.236010313E-1,-9.153546095E-1,-1.534753740E-1
2.287814769E1,-9.655967951E-1,-8.095253110E-1,-2.215848416E-1
2.288728733E1,-9.536852837E-1,-6.543701291E-1,-2.993151546E-1
2.289645249E1,-9.084826112E-1,-4.353813827E-1,-3.875826001E-1
2.290560488E1,-8.657232523E-1,-1.957765520E-1,-4.839437306E-1
2.291475728E1,-8.464815617E-1,4.550812021E-2,-5.706840754E-1
2.292390967E1,-8.434273601E-1,2.822114229E-1,-6.245913506E-1
2.293306207E1,-8.316685557E-1,4.859289825E-1,-6.253548861E-1
2.294221447E1,-8.014315963E-1,5.946598053E-1,-5.799994469E-1
2.295136681E1,-7.574505806E-1,6.039752364E-1,-5.179984570E-1
2.296051920E1,-6.946860552E-1,5.302154422E-1,-4.668400288E-1
2.296967160E1,-6.074876189E-1,4.033119082E-1,-4.123218954E-1
2.297882400E1,-4.903576374E-1,2.331909388E-1,-3.374931216E-1
2.298797639E1,-3.658975065E-1,4.153761268E-2,-2.449497581E-1
2.299712879E1,-2.707580328E-1,-8.521319181E-2,-1.794363856E-1
2.300628118E1,-2.118112892E-1,-1.571404636E-1,-1.325538605E-1
2.301543358E1,-1.718007922E-1,-1.624853760E-1,-9.009996802E-2
2.302458598E1,-1.385096163E-1,-1.108687744E-1,-4.352286831E-2
2.303373837E1,-1.081199646E-1,-1.801999472E-2,-9.773556143E-3
2.304289077E1,-7.925742865E-2,7.253811508E-2,2.596100792E-3
2.305204316E1,-4.459185153E-2,1.243074164E-1,-2.748812549E-3
2.306119556E1,4.581354442E-4,1.171299592E-1,-1.160609815E-2
2.307034795E1,4.795150831E-2,3.833066672E-2,-1.985253533E-3
2.307950035E1,9.468132257E-2,-8.796200156E-2,2.412846684E-2
2.308865275E1,1.240019947E-1,-2.258607745E-1,4.398100078E-2
2.309780514E1,1.264453828E-1,-3.457395434E-1,5.253286287E-2
2.310695754E1,1.081199646E-1,-4.422534108E-1,5.558710173E-2
2.311610993E1,8.582404256E-2,-4.982986450E-1,5.421269313E-2
2.312526228E1,6.963659078E-2,-4.880669713E-1,4.856235534E-2
2.313441467E1,5.299099907E-2,-4.037700295E-1,4.107947648E-2
2.314356707E1,3.084778599E-2,-2.664821148E-1,2.443389036E-2
2.315271946E1,6.108472589E-4,-1.123958975E-1,5.192201585E-3
2.316187186E1,-2.336490713E-2,3.084778599E-2,-2.015795931E-2
2.317102426E1,-4.382828996E-2,1.343863904E-1,-4.917320609E-2
2.318017665E1,-6.276455522E-2,1.945548505E-1,-7.620319724E-2
2.318932905E1,-6.978929788E-2,2.330382317E-1,-9.590301663E-2
2.319848144E1,-5.955760926E-2,2.594573796E-1,-1.079672500E-1
2.320763384E1,-4.825693369E-2,2.522799075E-1,-1.145338640E-1
2.321678624E1,-4.199574888E-2,2.257080674E-1,-1.145338640E-1
2.322593863E1,-4.046862945E-2,1.998997629E-1,-1.120904684E-1
2.323509103E1,-4.902049154E-2,1.818797737E-1,-1.041494608E-1
2.324424342E1,-6.490252167E-2,1.649287641E-1,-9.575030953E-2
2.325339582E1,-7.085828483E-2,1.426328421E-1,-8.842013776E-2
2.326254822E1,-6.444438547E-2,9.636115283E-2,-8.399149776E-2
2.327170061E1,-5.390727147E-2,2.825168520E-2,-8.032641560E-2
2.328085301E1,-4.107947648E-2,-3.313846514E-2,-6.917845458E-2
2.329000540E1,-2.412846684E-2,-7.223268598E-2,-5.131116882E-2
2.329915780E1,2.443389036E-3,-1.058292910E-1,-2.779355086E-2
2.330831019E1,3.542914242E-2,-1.484358907E-1,-1.175880991E-2
2.331746259E1,5.741964281E-2,-1.997470558E-1,-3.054236295E-3
2.332661499E1,6.383354217E-2,-2.279987335E-1,3.817795310E-3
2.333576733E1,5.635065958E-2,-2.212794125E-1,7.330167107E-3
2.334491972E1,4.367557913E-2,-1.772984117E-1,7.941014133E-3
2.335407212E1,2.092151903E-2,-1.111742035E-1,4.581354558E-3
2.336322452E1,-1.160609815E-2,-4.428642616E-2,-6.566607859E-3
2.337237691E1,-3.924693540E-2,1.282779220E-2,-2.275406010E-2
2.338152931E1,-5.803048983E-2,5.070032179E-2,-3.939964995E-2
2.339068170E1,-6.062658876E-2,6.749862432E-2,-5.405998230E-2
2.339983410E1,-5.360184610E-2,5.665608495E-2,-6.688777357E-2
2.340898650E1,-3.726168349E-2,3.313846514E-2,-7.223268598E-2
2.341813889E1,-1.374406368E-2,1.267508045E-2,-7.574506104E-2
2.342729129E1,1.420219894E-2,-1.832541777E-3,-7.360709459E-2
2.343644368E1,3.634541109E-2,-6.566607859E-3,-6.490252167E-2
2.344559608E1,4.413371533E-2,5.039489828E-3,-5.146388337E-2
2.345474848E1,3.726168349E-2,1.527118124E-2,-3.558185324E-2
2.346390087E1,1.939439960E-2,1.527118124E-2,-2.412846684E-2
2.347305327E1,7.635590737E-4,6.261184346E-3,-1.572931744E-2
2.348220566E1,-3.970507067E-3,-7.482878864E-3,-7.177455351E-3
2.349135806E1,1.068982761E-3,-2.076880634E-2,2.596100792E-3
2.350051045E1,1.160609815E-2,-3.100049868E-2,9.926267900E-3
2.350966285E1,1.664558798E-2,-4.413371533E-2,1.374406368E-2
2.351881525E1,1.863084175E-2,-5.864133686E-2,1.068982668E-2
2.352796764E1,2.168507688E-2,-6.536065787E-2,6.413896102E-3
2.353712004E1,2.840439789E-2,-5.268557742E-2,9.162708884E-4
2.354627243E1,3.191677108E-2,-2.794626169E-2,-2.748812549E-3
2.355542483E1,2.550287358E-2,1.527118147E-3,-8.246437646E-3
2.356457722E1,9.926267900E-3,3.038965166E-2,-1.328592747E-2
2.357372962E1,-7.635590620E-3,5.864133686E-2,-1.954711229E-2
2.358288197E1,-1.710372418E-2,8.154810965E-2,-2.076880634E-2
2.359203436E1,-2.031067200E-2,9.422318637E-2,-2.397575416E-2
2.360118676E1,-1.664558798E-2,1.020114943E-1,-2.397575416E-2
2.361033915E1,-1.038440317E-2,9.956810623E-2,-2.260134928E-2
2.361949155E1,-2.290677279E-3,8.887827396E-2,-2.015795931E-2
2.362864394E1,3.970507067E-3,7.864658535E-2,-1.588202827E-2
2.363779634E1,5.192201585E-3,7.437065244E-2,-1.023169141E-2
2.364694874E1,-2.137965523E-3,6.001574174E-2,-6.719320081E-3
2.365610113E1,-8.857285604E-3,4.856235534E-2,-4.275931045E-3
2.366525353E1,-1.007897966E-2,4.306473210E-2,0.000000000E0
2.367440592E1,-7.024743594E-3,4.245388508E-2,3.054236295E-3
2.368355832E1,-1.985253533E-3,3.833066672E-2,6.108472589E-3
2.369271072E1,-0.000000000E0,2.748812735E-2,7.330167107E-3
2.370186311E1,0.000000000E0,1.893626526E-2,7.941014133E-3
2.371101551E1,3.665083554E-3,1.832541823E-2,9.315420873E-3
2.372016790E1,1.175880991E-2,2.015795931E-2,9.926267900E-3
2.372932030E1,2.031067200E-2,2.626643144E-2,8.704573847E-3
2.373847269E1,2.565558441E-2,3.588727489E-2,1.007897966E-2
2.374762509E1,3.054236248E-2,4.504998401E-2,1.191152167E-2
2.375677749E1,3.176405653E-2,5.772506446E-2,1.313321572E-2
2.376592988E1,2.672456764E-2,7.024743408E-2,1.313321572E-2
2.377508228E1,2.229592577E-2,7.391251624E-2,1.236965694E-2
2.378423467E1,2.000524849E-2,6.429167092E-2,1.236965694E-2
2.379338707E1,1.756185852E-2,5.940489471E-2,1.481304597E-2
2.380253947E1,1.374406368E-2,6.490252167E-2,1.298050396E-2
2.381169186E1,1.435491070E-2,7.574506104E-2,1.114796288E-2
2.382084426E1,2.031067200E-2,9.147437662E-2,1.175880991E-2
2.382999665E1,2.336490713E-2,1.021642014E-1,8.704573847E-3
2.383914905E1,1.954711229E-2,1.058292910E-1,5.039489828E-3
2.384830144E1,1.099525020E-2,1.064401343E-1,1.985253533E-3
2.385745384E1,4.123218823E-3,1.062874198E-1,1.832541777E-3
2.386660618E1,3.054236295E-3,9.681928903E-2,1.832541777E-3
2.387575863E1,3.359660041E-3,7.391251624E-2,3.054236295E-3
2.388491098E1,4.734066315E-3,4.917320609E-2,2.596100792E-3
2.389406337E1,7.941014133E-3,2.993151546E-2,3.206948051E-3
2.390321577E1,1.481304597E-2,2.260134928E-2,3.817795310E-3
2.391236816E1,1.786728203E-2,2.015795931E-2,5.039489828E-3
2.392152056E1,2.153236605E-2,2.015795931E-2,5.803049076E-3
2.393067295E1,2.764083818E-2,2.626643144E-2,8.857285604E-3
2.393982535E1,3.313846514E-2,3.298575059E-2,1.007897966E-2
2.394897775E1,3.619270027E-2,3.420744836E-2,1.313321572E-2
2.395813014E1,3.436015919E-2,2.993151546E-2,1.374406368E-2
2.396728254E1,2.947338112E-2,2.443389036E-2,1.435491070E-2
2.397643493E1,2.397575416E-2,1.603474095E-2,1.435491070E-2
2.398558733E1,1.969982497E-2,1.542389300E-2,1.114796288E-2
2.399473973E1,1.618745178E-2,8.246437646E-3,6.872031838E-3
2.400389212E1,1.252236869E-2,1.527118147E-3,3.206948051E-3
2.401304452E1,1.435491070E-2,-1.527118147E-3,1.374406274E-3
2.402219691E1,2.290677279E-2,3.970507067E-3,3.970507067E-3
2.403134931E1,2.657185495E-2,7.635590620E-3,3.970507067E-3
2.404050170E1,2.168507688E-2,8.704573847E-3,2.748812549E-3
2.404965410E1,1.618745178E-2,5.192201585E-3,7.635590737E-4
2.405880650E1,1.068982668E-2,2.137965523E-3,1.985253533E-3
2.406795889E1,1.130067464E-2,3.359660041E-3,3.817795310E-3
2.407711129E1,1.618745178E-2,3.054236295E-4,3.817795310E-3
2.408626368E1,1.695101149E-2,-9.315420873E-3,1.985253533E-3
2.409541608E1,1.572931744E-2,-1.649287529E-2,1.527118147E-4
2.410456848E1,1.221694518E-2,-2.977880463E-2,-1.679830020E-3
2.411372087E1,1.160609815E-2,-3.833066672E-2,-3.512371797E-3
2.412287327E1,1.359135192E-2,-4.245388508E-2,-2.290677279E-3
2.413202566E1,1.847812906E-2,-4.734066129E-2,-9.162708884E-4
2.414117806E1,2.107422985E-2,-5.207473040E-2,-3.054236295E-4
2.415033045E1,2.290677279E-2,-5.573981255E-2,2.137965523E-3
2.415948285E1,2.351761982E-2,-5.925218388E-2,5.192201585E-3
2.416863525E1,2.107422985E-2,-6.047387794E-2,5.803049076E-3
2.417778764E1,2.168507688E-2,-6.230641901E-2,6.413896102E-3
2.418694004E1,2.107422985E-2,-6.169557199E-2,6.413896102E-3
2.419609243E1,2.107422985E-2,-6.047387794E-2,7.635590620E-3
2.420524483E1,1.603474095E-2,-5.818320066E-2,8.246437646E-3
2.421439723E1,1.236965694E-2,-5.818320066E-2,6.872031838E-3
2.422354962E1,1.298050396E-2,-5.879404768E-2,3.359660041E-3
2.423270202E1,1.801999472E-2,-6.047387794E-2,3.970507067E-3
2.424185441E1,2.535016090E-2,-6.047387794E-2,4.581354558E-3
2.425100681E1,2.916795574E-2,-6.352811307E-2,3.359660041E-3
2.426015920E1,2.916795574E-2,-6.780404598E-2,4.581354558E-3
2.426931160E1,2.733541466E-2,-6.948387623E-2,4.581354558E-3
2.427846400E1,2.672456764E-2,-6.841489673E-2,3.970507067E-3
2.428761639E1,2.412846684E-2,-6.474980712E-2,2.137965523E-3
2.429676879E1,1.801999472E-2,-5.940489471E-2,9.162708884E-4
2.430592118E1,1.298050396E-2,-5.512896553E-2,9.162708884E-4
2.431507358E1,9.315420873E-3,-5.268557742E-2,1.374406274E-3
2.432422598E1,9.926267900E-3,-5.696150661E-2,-4.581354442E-4
2.433337837E1,8.704573847E-3,-5.696150661E-2,1.527118147E-4
2.434253077E1,8.704573847E-3,-5.268557742E-2,1.527118147E-4
2.435168316E1,1.053711493E-2,-4.917320609E-2,1.527118147E-4
2.436083556E1,9.926267900E-3,-4.917320609E-2,-1.679830020E-3
2.436998795E1,7.482878864E-3,-5.161659420E-2,-2.901524538E-3
2.437914035E1,7.482878864E-3,-4.856235534E-2,-2.290677279E-3
2.438829275E1,8.704573847E-3,-4.611896724E-2,-1.068982761E-3
2.439744514E1,1.175880991E-2,-4.428642616E-2,-4.581354442E-4
2.440659754E1,1.038440317E-2,-4.306473210E-2,1.985253533E-3
2.441574993E1,6.719320081E-3,-4.428642616E-2,2.596100792E-3
2.442490233E1,8.551862091E-3,-4.306473210E-2,1.985253533E-3
2.443405473E1,8.551862091E-3,-4.062134400E-2,1.985253533E-3
2.444320712E1,1.099525020E-2,-3.405473381E-2,3.817795310E-3
2.445235952E1,1.084253844E-2,-2.794626169E-2,7.482878864E-3
2.446151191E1,1.023169141E-2,-2.794626169E-2,1.053711493E-2
2.447066431E1,1.206423342E-2,-2.321219631E-2,1.175880991E-2
2.447981670E1,1.450762246E-2,-1.832541823E-2,1.359135192E-2
2.448896910E1,1.756185852E-2,-1.710372418E-2,1.298050396E-2
2.449812150E1,1.939439960E-2,-1.771457121E-2,1.130067464E-2
2.450727389E1,1.817270555E-2,-1.404948719E-2,1.068982668E-2
2.451642629E1,1.191152167E-2,-6.872031838E-3,9.315420873E-3
2.452557868E1,1.374406274E-3,-1.527118147E-3,6.261184346E-3
2.453473108E1,-3.512371797E-3,1.527118147E-3,3.054236295E-3
2.454388348E1,-5.344913341E-3,6.261184346E-3,2.443389036E-3
2.455303587E1,-6.108472589E-4,1.420219894E-2,1.374406274E-3
2.456218827E1,3.054236295E-3,1.954711229E-2,3.206948051E-3
2.457134066E1,6.108472589E-3,2.382304333E-2,3.817795310E-3
2.458049306E1,1.221694518E-3,2.137965336E-2,2.596100792E-3
2.458964545E1,-4.275931045E-3,1.466033421E-2,-6.108472589E-4
2.459879785E1,-2.443389036E-3,1.481304597E-2,-2.443389036E-3
2.460795025E1,-1.068982761E-3,9.315420873E-3,0.000000000E0
2.461710269E1,-2.290677279E-3,5.650337320E-3,1.832541777E-3
2.462625509E1,-9.009997360E-3,-9.162708884E-4,1.221694518E-3
2.463540749E1,-1.756185852E-2,-8.857285604E-3,6.108472589E-4
2.464455988E1,-2.183778957E-2,-1.068982668E-2,-1.221694518E-3
2.465371228E1,-2.321219631E-2,-6.413896102E-3,-3.665083554E-3
2.466286467E1,-2.076880634E-2,-1.527118147E-3,-3.665083554E-3
2.467201707E1,-1.649287529E-2,2.596100792E-3,-5.497625098E-3
2.468116946E1,-1.206423342E-2,1.985253533E-3,-6.719320081E-3
2.469032186E1,-9.620844387E-3,2.596100792E-3,-6.719320081E-3
2.469947426E1,-7.177455351E-3,9.315420873E-3,-8.551862091E-3
2.470862665E1,-6.108472589E-3,1.466033421E-2,-7.941014133E-3
2.471777905E1,-4.275931045E-3,2.076880634E-2,-6.719320081E-3
2.472693144E1,-4.275931045E-3,2.504473738E-2,-4.886778072E-3
2.473608384E1,-8.093725890E-3,2.855710872E-2,-3.665083554E-3
2.474523624E1,-1.114796288E-2,3.100049868E-2,-2.443389036E-3
2.475438863E1,-1.481304597E-2,2.611372061E-2,-1.832541777E-3
2.476354103E1,-1.588202827E-2,1.832541823E-2,-4.275931045E-3
2.477269342E1,-1.160609815E-2,1.236965694E-2,-6.719320081E-3
2.478184582E1,-2.290677279E-3,5.039489828E-3,-6.566607859E-3
2.479099822E1,7.635590620E-3,-3.054236295E-4,-5.344913341E-3
2.480015061E1,1.313321572E-2,-3.359660041E-3,-4.123218823E-3
2.480930301E1,1.313321572E-2,-3.970507067E-3,-1.679830020E-3
2.481845540E1,8.246437646E-3,-2.748812549E-3,1.374406274E-3
2.482760785E1,3.206948051E-3,9.162708884E-4,3.817795310E-3
2.483676025E1,1.374406274E-3,8.704573847E-3,5.650337320E-3
2.484591264E1,3.206948051E-3,1.114796288E-2,6.261184346E-3