"Time (s)","Gyroscope x (rad/s)","Gyroscope y (rad/s)","Gyroscope z (rad/s)"
7.622411909E0,3.817795217E-2,6.872031838E-3,-6.108472589E-3
7.631564617E0,3.176405653E-2,1.893626526E-2,-4.275931045E-3
7.640717274E0,2.611372061E-2,3.100049868E-2,-6.719320081E-3
7.649869982E0,2.367033064E-2,4.306473210E-2,-1.343864016E-2
7.659022638E0,3.145863488E-2,5.512896553E-2,-1.527118124E-2
7.668175295E0,4.306473210E-2,7.024743408E-2,-9.773556143E-3
7.677328003E0,5.161659420E-2,8.521319181E-2,-4.734066315E-3
7.686480659E0,5.451811850E-2,9.743013978E-2,-1.679830020E-3
7.695633367E0,5.818320066E-2,1.039967462E-1,-4.581354442E-4
7.704786024E0,6.306997687E-2,1.113269106E-1,3.206948051E-3
7.713938680E0,7.284353673E-2,1.148392856E-1,6.261184346E-3
7.723091388E0,8.643488586E-2,1.143811494E-1,8.857285604E-3
7.732244045E0,1.012479365E-1,1.131594554E-1,1.145338640E-2
7.741396701E0,1.148392856E-1,1.078145429E-1,1.206423342E-2
7.750549409E0,1.209477559E-1,1.023169160E-1,1.160609815E-2
7.759702065E0,1.223221645E-1,9.636115283E-2,1.160609815E-2
7.768854774E0,1.186570823E-1,8.903098851E-2,9.773556143E-3
7.778007430E0,1.094943732E-1,8.002099395E-2,5.344913341E-3
7.787160086E0,9.910997003E-2,7.207997888E-2,1.068982761E-3
7.796312795E0,8.933641016E-2,6.184828654E-2,-2.596100792E-3
7.805465451E0,8.780929446E-2,4.123219103E-2,-9.315420873E-3
7.814618159E0,9.116895497E-2,1.298050396E-2,-1.053711493E-2
7.823770815E0,1.000262350E-1,-1.771457121E-2,-8.704573847E-3
7.832923472E0,1.113269106E-1,-5.085303262E-2,-4.886778072E-3
7.842076180E0,1.214058921E-1,-7.849387079E-2,2.596100792E-3
7.851228836E0,1.307213157E-1,-9.345962852E-2,1.114796288E-2
7.860381492E0,1.461452097E-1,-9.468132257E-2,2.046338283E-2
7.869534201E0,1.632489264E-1,-8.490777016E-2,3.145863488E-2
7.878686857E0,1.801999360E-1,-5.589252338E-2,4.260659590E-2
7.887839565E0,1.945548505E-1,-1.420219894E-2,5.497625470E-2
7.896992222E0,2.028012872E-1,2.916795574E-2,6.474980712E-2
7.906144878E0,2.073826492E-1,6.719319522E-2,7.207997888E-2
7.915297586E0,2.089097649E-1,1.003316641E-1,7.391251624E-2
7.924450242E0,2.130329758E-1,1.214058921E-1,7.391251624E-2
7.933602899E0,2.252499312E-1,1.298050433E-1,7.452336699E-2
7.942755607E0,2.461714447E-1,1.299577504E-1,7.650861889E-2
7.951908263E0,2.666348219E-1,1.256818175E-1,8.154810965E-2
7.961060972E0,2.846548259E-1,1.136175916E-1,8.658760041E-2
7.970213628E0,2.994678617E-1,9.391776472E-2,9.223793447E-2
7.979366284E0,3.089359999E-1,7.040014863E-2,9.773556143E-2
7.988518992E0,3.145863414E-1,4.932591692E-2,1.027750522E-1
7.997671649E0,3.190149665E-1,3.436015919E-2,1.058292910E-1
8.006824357E0,3.228327632E-1,2.473931387E-2,1.101052165E-1
8.015977013E0,3.252761662E-1,1.863084175E-2,1.125486046E-1
8.025129670E0,3.316900730E-1,5.955760833E-3,1.169772521E-1
8.034282378E0,3.399364948E-1,-2.107422985E-2,1.206423342E-1
8.043435034E0,3.549022675E-1,-5.955760926E-2,1.250709742E-1
8.052587742E0,3.732276857E-1,-1.047603041E-1,1.288887709E-1
8.061740399E0,3.903313875E-1,-1.553079188E-1,1.314848661E-1
8.070893055E0,4.072824121E-1,-1.968455315E-1,1.353026628E-1
8.080045763E0,4.193466306E-1,-2.275405973E-1,1.391204596E-1
8.089198420E0,4.262186885E-1,-2.504473627E-1,1.482831687E-1
8.098351128E0,4.369085133E-1,-2.797680497E-1,1.649287641E-1
8.107503784E0,4.304946065E-1,-3.399364948E-1,1.918060333E-1
8.116656440E0,3.767400384E-1,-4.117110670E-1,2.255553454E-1
8.125809149E0,2.909159958E-1,-4.587462842E-1,2.312056869E-1
8.134961805E0,1.937913001E-1,-4.107947946E-1,2.090624720E-1
8.144114513E0,1.276670843E-1,-2.386885732E-1,1.846285909E-1
8.153267170E0,1.206423342E-1,-7.177454978E-2,1.789782494E-1
8.162419826E0,1.685938388E-1,-5.909947306E-2,1.780619770E-1
8.171572534E0,2.269297540E-1,-1.591257155E-1,1.449235082E-1
8.180725190E0,2.593046725E-1,-2.316638231E-1,7.070557028E-2
8.189877899E0,2.730487287E-1,-2.675510943E-1,-2.611372061E-2
8.199030555E0,2.545706034E-1,-2.968717813E-1,-1.240019947E-1
8.208183211E0,1.748550236E-1,-3.087832928E-1,-1.971509457E-1
8.217335920E0,3.420744836E-2,-2.886253297E-1,-2.397575527E-1
8.226488576E0,-1.353026628E-1,-2.028012872E-1,-2.550287247E-1
8.235641232E0,-2.851129472E-1,-5.238015205E-2,-2.470877171E-1
8.244793940E0,-3.944546282E-1,1.047603041E-1,-2.217375487E-1
8.253946597E0,-4.685198367E-1,2.270824611E-1,-1.930277348E-1
8.263099305E0,-5.196782947E-1,2.933593988E-1,-1.702736765E-1
8.272251961E0,-5.606050491E-1,3.078670204E-1,-1.595838517E-1
8.281404617E0,-5.848862529E-1,2.788517773E-1,-1.632489264E-1
8.290557326E0,-5.913001299E-1,2.299840003E-1,-1.797417998E-1
8.299709982E0,-5.839699507E-1,1.792836636E-1,-1.998997629E-1
8.308862690E0,-5.674771070E-1,1.322484314E-1,-2.162399292E-1
8.318015347E0,-5.428904891E-1,8.536590636E-2,-2.252499312E-1
8.327168055E0,-5.085303187E-1,3.771981969E-2,-2.249445021E-1
8.336320711E0,-4.688252807E-1,-3.665083554E-3,-2.179197669E-1
8.345473367E0,-4.181249440E-1,-3.374931216E-2,-2.064663768E-1
8.354626076E0,-3.588727713E-1,-4.016320780E-2,-1.927223057E-1
8.363778732E0,-3.023693860E-1,-1.847812906E-2,-1.769929975E-1
8.372931440E0,-2.541124523E-1,1.420219894E-2,-1.608055383E-1
8.382084097E0,-2.144073844E-1,4.214845970E-2,-1.415638477E-1
8.391236753E0,-1.745496094E-1,6.154286116E-2,-1.218640283E-1
8.400389461E0,-1.314848661E-1,6.887302548E-2,-1.014006436E-1
8.409542117E0,-8.536590636E-2,6.902574003E-2,-8.093725890E-2
8.418694826E0,-3.176405653E-2,6.627693027E-2,-6.337540597E-2
8.427847482E0,2.672456764E-2,6.520794332E-2,-5.085303262E-2
8.437000138E0,8.948912472E-2,7.009471953E-2,-4.245388508E-2
8.446152847E0,1.608055383E-1,7.635590434E-2,-3.390202299E-2
8.455305503E0,2.392994165E-1,6.322269142E-2,-2.122694254E-2
8.464458211E0,3.177932799E-1,2.901524492E-2,7.635590737E-4
8.473610867E0,3.895678520E-1,-1.893626526E-2,2.702999115E-2
8.482763524E0,4.422534108E-1,-6.749862432E-2,5.604523420E-2
8.491916232E0,4.770717025E-1,-1.070509851E-1,8.322793990E-2
8.501068888E0,4.979932308E-1,-1.250709742E-1,1.102579311E-1
8.510221597E0,5.102101564E-1,-1.230857223E-1,1.340809762E-1
8.519374253E0,5.267030597E-1,-1.188097894E-1,1.592784226E-1
8.528526909E0,5.587725043E-1,-1.360662282E-1,1.887518018E-1
8.537679617E0,6.146650314E-1,-1.931804419E-1,2.228065431E-1
8.546832274E0,6.879667044E-1,-2.820587158E-1,2.643441558E-1
8.555984982E0,7.731798887E-1,-3.932329118E-1,3.145863414E-1
8.565137638E0,8.559496999E-1,-5.073086619E-1,3.720059693E-1
8.574290295E0,9.342908859E-1,-6.142069101E-1,4.373666346E-1
8.583443003E0,1.012479305E0,-7.059867382E-1,5.057815313E-1
8.592595659E0,1.101662993E0,-7.846332788E-1,5.772506595E-1
8.601748367E0,1.216655016E0,-8.576295376E-1,6.580352187E-1
8.610901024E0,1.356844425E0,-9.394831061E-1,7.556180358E-1
8.620053732E0,1.525591016E0,-1.037065983E0,8.539644480E-1
8.629206388E0,1.716175318E0,-1.143200636E0,9.200887084E-1
8.638359045E0,1.908592224E0,-1.241088867E0,9.417737722E-1
8.647511753E0,2.078713179E0,-1.294538021E0,9.124531150E-1
8.656664409E0,2.214321375E0,-1.338519096E0,8.400676847E-1
8.665817117E0,2.306711912E0,-1.414722204E0,7.235485911E-1
8.674969774E0,2.349165916E0,-1.469087601E0,5.755708218E-1
8.684122430E0,2.356496096E0,-1.480388284E0,4.425588250E-1
8.693275138E0,2.331756592E0,-1.442057610E0,3.799470067E-1
8.702415086E0,2.273726225E0,-1.367228866E0,4.039227366E-1
8.711580503E0,2.200424433E0,-1.356691718E0,5.091412067E-1
8.720733159E0,2.133383989E0,-1.451525807E0,6.740699410E-1
8.729885867E0,2.085279942E0,-1.522078633E0,8.380824327E-1
8.739038524E0,2.051988602E0,-1.422815919E0,9.385668039E-1
8.748191180E0,2.000372171E0,-1.187181592E0,9.680401683E-1
8.757343888E0,1.936996698E0,-9.101623893E-1,9.489512444E-1
8.766496545E0,1.871941447E0,-7.085828185E-1,9.043593407E-1
8.775649253E0,1.822768211E0,-6.160394549E-1,8.325847983E-1
8.784801909E0,1.803831935E0,-6.664343476E-1,7.434011102E-1
8.793954617E0,1.803068399E0,-8.125795722E-1,6.633801460E-1
8.803107274E0,1.800014138E0,-9.316948056E-1,5.841227174E-1
8.812259930E0,1.771762490E0,-9.758284688E-1,5.296045542E-1
8.821412638E0,1.731446505E0,-1.004996419E0,5.060869455E-1
8.830565295E0,1.683342338E0,-1.014770031E0,5.076140761E-1
8.839717951E0,1.635696292E0,-9.857547879E-1,5.218162537E-1
8.848870659E0,1.590340853E0,-9.677347541E-1,5.373928547E-1
8.858023315E0,1.536128163E0,-9.750649333E-1,5.383091569E-1
8.867176024E0,1.466796994E0,-9.897252917E-1,5.189147592E-1
8.876328680E0,1.385096192E0,-9.984298348E-1,4.847072959E-1
8.885481388E0,1.302020907E0,-1.004080176E0,4.457657933E-1
8.894634045E0,1.226428628E0,-1.000720501E0,3.968980014E-1
8.903786701E0,1.161526084E0,-9.678874612E-1,3.396310806E-1
8.912939409E0,1.097081661E0,-8.906152844E-1,2.780882120E-1
8.922092065E0,1.018740535E0,-7.847860456E-1,2.212794125E-1
8.931244774E0,9.278770089E-1,-6.719319820E-1,1.771457046E-1
8.940397430E0,8.278507590E-1,-5.685460567E-1,1.531699449E-1
8.949550138E0,7.204943299E-1,-4.819584787E-1,1.383569092E-1
8.958702795E0,6.193991303E-1,-4.135435820E-1,1.272089481E-1
8.967855451E0,5.253286362E-1,-3.642176688E-1,1.185043678E-1
8.977008159E0,4.327852726E-1,-3.396310806E-1,1.111742035E-1
8.986160815E0,3.442124426E-1,-3.066453338E-1,1.099525094E-1
8.995313524E0,2.556395829E-1,-2.495311052E-1,1.189625040E-1
9.004466180E0,1.632489264E-1,-1.887518018E-1,1.317902952E-1
9.013618888E0,6.077930331E-2,-1.195733473E-1,1.430909634E-1
9.022771545E0,-4.856235534E-2,-3.710897267E-2,1.551551968E-1
9.031924201E0,-1.606528312E-1,2.412846684E-2,1.598892659E-1
9.041076909E0,-2.615953386E-1,1.618745178E-2,1.615691036E-1
9.050229565E0,-3.458922505E-1,-7.452336699E-2,1.566823274E-1
9.059382274E0,-4.117110670E-1,-2.252499312E-1,1.508792788E-1
9.068534930E0,-4.637857676E-1,-3.988832533E-1,1.421747059E-1
9.077687638E0,-5.141806602E-1,-5.436540842E-1,1.296523362E-1
9.086840295E0,-5.731274486E-1,-6.348230243E-1,1.110214889E-1
9.095992951E0,-6.435275674E-1,-6.615476012E-1,8.490777016E-2
9.105145659E0,-6.946860552E-1,-6.459710002E-1,5.024218559E-2
9.114298315E0,-6.858287454E-1,-5.967977643E-1,1.236965694E-2
9.123451024E0,-6.155813336E-1,-4.931064546E-1,-2.855710872E-2
9.132603680E0,-5.305208564E-1,-3.449759781E-1,-6.536065787E-2
9.141743628E0,-4.491254389E-1,-2.828222811E-1,-7.528692484E-2
9.150909045E0,-3.894151151E-1,-3.518480062E-1,-5.955760926E-2
9.160061701E0,-3.439069986E-1,-4.807367921E-1,-3.161134571E-2
9.169201649E0,-2.883199155E-1,-5.919110179E-1,9.162709117E-3
9.178367065E0,-2.052446753E-1,-6.488724947E-1,4.825693369E-2
9.187519774E0,-1.378987730E-1,-6.149705052E-1,7.375980914E-2
9.196659670E0,-1.418692768E-1,-4.468347728E-1,7.971556485E-2
9.205825138E0,-2.101314515E-1,-1.812689304E-1,4.917320609E-2
9.214977795E0,-2.733541429E-1,1.004843712E-1,2.596100792E-3
9.224117742E0,-3.043546379E-1,2.744231224E-1,-3.436015919E-2
9.233283159E0,-3.791834414E-1,3.072561622E-1,-5.696150661E-2
9.242435815E0,-5.517477989E-1,3.202366829E-1,-8.185353130E-2
9.251588524E0,-7.201889157E-1,4.144598544E-1,-1.105633527E-1
9.260741180E0,-8.360971808E-1,5.804576278E-1,-1.397313178E-1
9.269893888E0,-9.367342591E-1,6.742226481E-1,-1.722589284E-1
9.279033784E0,-1.065317631E0,6.739172339E-1,-1.988307834E-1
9.288199253E0,-1.199704051E0,6.109999418E-1,-2.028012872E-1
9.297351909E0,-1.329967141E0,4.680617154E-1,-1.846285909E-1
9.306491857E0,-1.484817028E0,3.492519259E-1,-1.464506239E-1
9.315657274E0,-1.633558273E0,2.654131353E-1,-9.437590092E-2
9.324809930E0,-1.721825719E0,1.907370538E-1,-5.772506446E-2
9.333962638E0,-1.749313831E0,1.020114943E-1,-6.810946763E-2
9.343115295E0,-1.754505992E0,7.605048269E-2,-1.049130186E-1
9.352268003E0,-1.755727768E0,1.571404636E-1,-1.305686086E-1
9.361420659E0,-1.795738220E0,2.927485406E-1,-1.475196183E-1
9.370573315E0,-2.037939072E0,4.385883212E-1,-1.614163816E-1
9.379726024E0,-2.368712902E0,4.259132445E-1,-1.986780763E-1
9.388878680E0,-2.574415684E0,4.810422063E-1,-2.177670449E-1
9.398031388E0,-2.677496195E0,8.160919547E-1,-1.400367320E-1
9.407184045E0,-2.757669926E0,1.087766290E0,1.985253580E-2
9.416323992E0,-2.804705143E0,1.193137407E0,1.605001241E-1
9.425489409E0,-2.744384050E0,1.167023659E0,2.348707765E-1
9.434642065E0,-2.583884001E0,9.513946176E-1,1.994416267E-1
9.443782013E0,-2.453620672E0,6.323796511E-1,7.666133344E-2
9.452947430E0,-2.372683525E0,3.788780272E-1,-3.680354729E-2
9.462100138E0,-2.354968786E0,2.884726226E-1,-7.925742865E-2
9.471252795E0,-2.375737667E0,3.891097009E-1,-6.612421572E-2
9.480405503E0,-2.378028393E0,5.676298141E-1,-3.023693897E-2
9.489558159E0,-2.330382347E0,7.401941419E-1,-1.985253533E-3
9.498710867E0,-2.225774765E0,9.561286569E-1,3.222219273E-2
9.507863524E0,-2.108186483E0,1.154654026E0,6.887302548E-2
9.517016232E0,-1.969218850E0,1.271936655E0,8.200624585E-2
9.526156128E0,-1.763821483E0,1.263842940E0,5.971032009E-2
9.535321545E0,-1.485427856E0,1.165649295E0,6.108472589E-3
9.544474253E0,-1.216196895E0,1.137703061E0,-4.566083103E-2
9.553626909E0,-1.050657272E0,1.256054640E0,-6.841489673E-2
9.562779617E0,-9.793408513E-1,1.419456363E0,-7.345438004E-2
9.571932274E0,-9.471186996E-1,1.605001211E0,-9.040539712E-2
9.581084930E0,-9.113841057E-1,1.833916187E0,-1.081199646E-1
9.590237638E0,-8.620582223E-1,2.037633657E0,-1.189625040E-1
9.599390295E0,-8.455653191E-1,2.212336063E0,-1.342336833E-1
9.608530242E0,-8.736643195E-1,2.323052168E0,-1.577513069E-1
9.617695659E0,-9.028322697E-1,2.354357958E0,-1.756185889E-1
9.626848367E0,-9.006943107E-1,2.323052168E0,-1.805053651E-1
9.635988263E0,-8.417475224E-1,2.215848446E0,-1.666085869E-1
9.645153732E0,-6.992673874E-1,2.048629045E0,-1.385096163E-1
9.654306388E0,-5.161659122E-1,1.815896153E0,-1.127013192E-1
9.663459045E0,-3.687990308E-1,1.525132895E0,-9.498675168E-2
9.672611753E0,-3.132119179E-1,1.239561796E0,-1.145338640E-1
9.681764409E0,-3.255815804E-1,1.063943267E0,-1.608055383E-1
9.690917117E0,-3.298575282E-1,1.001789451E0,-1.858502775E-1
9.700069774E0,-2.964136302E-1,9.578084946E-1,-1.594311297E-1
9.709222482E0,-2.710634768E-1,9.327637553E-1,-1.023169160E-1
9.718375138E0,-2.712161839E-1,9.257390499E-1,-5.467082933E-2
9.727527847E0,-2.756448388E-1,9.342908859E-1,-3.222219273E-2
9.736680503E0,-3.234436214E-1,9.016105533E-1,-4.535540938E-2
9.745833211E0,-3.840702176E-1,8.139539957E-1,-9.452861547E-2
9.754985867E0,-3.588727713E-1,7.137750387E-1,-1.430909634E-1
9.764138524E0,-2.750339806E-1,6.378772259E-1,-1.638597846E-1
9.773278472E0,-1.524063945E-1,4.254551232E-1,-1.456870735E-1
9.782443888E0,-4.596625641E-2,-6.826218218E-2,-9.513945878E-2
9.791596597E0,-5.314370990E-2,-5.899257660E-1,-4.902049154E-2
9.800736492E0,-1.411057115E-1,-8.191461563E-1,-5.253286287E-2
9.809901961E0,-1.904316396E-1,-7.325585485E-1,-9.147437662E-2
9.819054617E0,-1.484358907E-1,-5.210527182E-1,-1.084253863E-1
9.828207274E0,-4.443913698E-2,-3.828485310E-1,-8.383878320E-2
9.837359982E0,7.834116369E-2,-2.684673667E-1,-4.474456236E-2
9.846512638E0,1.893626451E-1,-7.727217674E-2,-2.565558441E-2
9.855665347E0,2.284568697E-1,1.023169160E-1,-3.527642787E-2
9.864818003E0,1.873773932E-1,2.365505993E-1,-6.749862432E-2
9.873970711E0,1.264453828E-1,3.718532622E-1,-1.003316641E-1
9.883123367E0,8.780929446E-2,5.657972693E-1,-1.160609797E-1
9.892276076E0,8.903098851E-2,8.646543026E-1,-1.192679256E-1
9.901428732E0,1.299577504E-1,1.174964666E0,-1.223221645E-1
9.910568680E0,2.298312783E-1,1.375475287E0,-9.422318637E-2
9.919734097E0,4.115583301E-1,1.491078138E0,-7.635590620E-3
9.928886805E0,6.490252018E-1,1.389066696E0,1.389677525E-1
9.938026701E0,8.951966763E-1,9.440644383E-1,2.924431264E-1
9.947192117E0,1.161678791E0,4.581354558E-1,4.112529159E-1
9.956344826E0,1.474279881E0,1.310267299E-1,4.943281412E-1
9.965497482E0,1.802610278E0,-3.313846514E-2,5.719057322E-1
9.974650190E0,2.084210873E0,-1.288887709E-1,6.728482842E-1
9.983802847E0,2.360771894E0,-2.370087355E-1,7.725690603E-1
9.992942795E0,2.540360928E0,-5.780141950E-1,8.698465228E-1
1.000210821E1,2.570292473E0,-1.101204872E0,9.914051294E-1
1.001126092E1,2.548149347E0,-1.723810911E0,1.131594539E0
1.002040082E1,2.604500055E0,-2.218750000E0,1.228871942E0
1.002956628E1,2.802261829E0,-2.497754335E0,1.259719729E0
1.003871894E1,3.063704491E0,-2.568001986E0,1.228108406E0
1.004785889E1,3.251387358E0,-2.487980843E0,1.143811464E0
1.005702430E1,3.300865889E0,-2.393757582E0,1.037829518E0
1.006617696E1,3.230313063E0,-2.392841339E0,9.646805525E-1
1.007531691E1,3.146779537E0,-2.362298965E0,9.506310225E-1
1.008448233E1,3.130744934E0,-2.141783237E0,9.649859667E-1
1.009363503E1,3.152430058E0,-1.686702013E0,9.752176404E-1
1.010277493E1,3.138685942E0,-1.165954709E0,9.888089895E-1
1.011194040E1,3.068133116E0,-7.472189069E-1,1.014770031E0
1.012109306E1,2.964594364E0,-4.802786708E-1,1.043785214E0
1.013024576E1,2.847617149E0,-2.194468826E-1,1.080130696E0
1.013939842E1,2.750187159E0,3.909422457E-2,1.112200141E0
1.014855108E1,2.676274538E0,2.432699203E-1,1.111589313E0
1.015769102E1,2.626490593E0,3.284831047E-1,1.068982720E0
1.016685644E1,2.584036589E0,2.776300907E-1,9.886562824E-1
1.017600915E1,2.512872934E0,2.119639963E-1,8.942803741E-1
1.018514905E1,2.410097837E0,1.693574041E-1,8.226585388E-1
1.019431451E1,2.298312902E0,1.430909634E-1,7.644753456E-1
1.020346717E1,2.180572033E0,1.082726792E-1,7.044596076E-1
1.021260712E1,2.074437380E0,2.290677279E-2,6.256603003E-1
1.022177253E1,1.971204162E0,-1.065928489E-1,5.322006941E-1
1.023092524E1,1.863084197E0,-2.536543310E-1,4.350759685E-1
1.024006514E1,1.746259570E0,-3.813214004E-1,3.304683566E-1
1.024923061E1,1.615843654E0,-4.821111858E-1,2.087570578E-1
1.025838326E1,1.477028728E0,-6.261184216E-1,9.055810422E-2
1.026753592E1,1.336075664E0,-8.021951914E-1,-3.298575059E-2
1.027668863E1,1.191915751E0,-1.026376128E0,-1.528645307E-1
1.028584128E1,1.044548869E0,-1.241699815E0,-2.686200738E-1
1.029499399E1,8.959602118E-1,-1.392884493E0,-3.813214004E-1
1.030414665E1,7.414158583E-1,-1.437018156E0,-4.665345848E-1
1.031329936E1,5.665608048E-1,-1.391510010E0,-4.978405237E-1
1.032245201E1,3.555130959E-1,-1.298966646E0,-4.706578255E-1
1.033160472E1,1.160609797E-1,-1.172521353E0,-3.990359604E-1
1.034075738E1,-1.357607991E-1,-1.031568289E0,-3.045073450E-1
1.034989733E1,-3.800997138E-1,-9.139801860E-1,-2.024958730E-1
1.035906274E1,-6.119162440E-1,-8.683193922E-1,-1.230857223E-1
1.036821545E1,-8.147175312E-1,-8.890882134E-1,-9.819369763E-2
1.037735535E1,-1.007134438E0,-9.249754548E-1,-1.116323397E-1
1.038652082E1,-1.182447553E0,-8.904625773E-1,-1.484358907E-1
1.039567347E1,-1.259872437E0,-7.377507687E-1,-2.082989216E-1
1.040481342E1,-1.167176366E0,-4.636330605E-1,-2.817533016E-1
1.041397884E1,-9.994988441E-1,-4.046862945E-2,-3.107685447E-1
1.042313149E1,-9.515473247E-1,2.817533016E-1,-2.232646793E-1
1.043227144E1,-1.044854283E0,1.808107942E-1,-6.276455522E-2
1.044143686E1,-1.306449533E0,2.212794125E-1,3.130592033E-2
1.045058957E1,-1.743052602E0,6.216897964E-1,-3.817795310E-3
1.045972946E1,-2.013963461E0,8.443436027E-1,-1.169772521E-1
1.046889493E1,-1.919434786E0,1.161067963E0,-7.818844914E-2
1.047804759E1,-1.709914207E0,1.819255829E0,1.499630064E-1
1.048718753E1,-1.597671032E0,1.425564766E0,2.084516287E-1
1.049635295E1,-1.588660955E0,4.853181541E-1,5.589252338E-2
1.050550566E1,-1.650662065E0,2.156290859E-1,-1.817270555E-2
1.051464556E1,-1.812231064E0,2.602209449E-1,2.519745007E-2
1.052381102E1,-1.996401548E0,-8.429691941E-2,9.009997360E-3
1.053296368E1,-2.040077209E0,-5.451811552E-1,-9.177979827E-2
1.054211639E1,-2.016101360E0,-9.303203821E-1,-1.609582454E-1
1.055126905E1,-1.941730738E0,-1.309961915E0,-1.779092699E-1
1.056042170E1,-1.824448109E0,-1.490467310E0,-1.317902952E-1
1.056956165E1,-1.731446505E0,-1.438239813E0,-7.498150319E-2
1.057872706E1,-1.621494055E0,-1.252847672E0,-4.932591692E-2
1.058787977E1,-1.471378326E0,-1.079214454E0,-6.123743951E-2
1.059701972E1,-1.363258362E0,-8.892409205E-1,-8.429691941E-2
1.060618514E1,-1.330272675E0,-6.390989423E-1,-8.796200156E-2
1.061533780E1,-1.369366884E0,-2.698417902E-1,-7.925742865E-2
1.062447774E1,-1.440377831E0,1.609582454E-1,-8.994726092E-2
1.063364316E1,-1.498255610E0,5.830537081E-1,-1.149920002E-1
1.064279587E1,-1.518413544E0,9.849911928E-1,-1.233911440E-1
1.065194852E1,-1.508181930E0,1.355775476E0,-1.015533581E-1
1.066110123E1,-1.477944970E0,1.615538239E0,-6.978929788E-2
1.067025389E1,-1.414416790E0,1.743663549E0,-3.527642787E-2
1.067940660E1,-1.357608080E0,1.845064163E0,-1.374406274E-3
1.068855925E1,-1.318513751E0,1.873010397E0,2.199050039E-2
1.069771196E1,-1.258650780E0,1.784590244E0,4.398100078E-2
1.070685186E1,-1.185349107E0,1.718466043E0,4.825693369E-2
1.071601733E1,-1.107160687E0,1.607597232E0,3.603998944E-2
1.072516998E1,-1.013701081E0,1.429229856E0,-2.901524538E-3
1.073432264E1,-9.694145918E-1,1.200009465E0,-5.803048983E-2
1.074347535E1,-1.002400398E0,1.046075940E0,-1.217113137E-1
1.075262800E1,-1.061041713E0,1.014464617E0,-1.916533262E-1
1.076178071E1,-1.088224411E0,1.065928459E0,-2.693836391E-1
1.077093337E1,-1.112505555E0,1.208255887E0,-3.460449576E-1
1.078008608E1,-1.162442327E0,1.373184681E0,-4.051444530E-1
1.078923873E1,-1.222916245E0,1.452594757E0,-4.062134326E-1
1.079839144E1,-1.237882018E0,1.502226114E0,-3.568875194E-1
1.080754410E1,-1.203521848E0,1.573542595E0,-3.151971996E-1
1.081669681E1,-1.131136417E0,1.669445515E0,-2.994678617E-1
1.082584946E1,-1.037218690E0,1.725643516E0,-3.110739589E-1
1.083500217E1,-1.015991688E0,1.705790997E0,-3.347443044E-1
1.084415483E1,-1.057223916E0,1.636917949E0,-3.568875194E-1
1.085330753E1,-1.057834744E0,1.502531528E0,-3.611634374E-1
1.086246019E1,-9.857547879E-1,1.300188422E0,-3.629959822E-1
1.087161290E1,-8.874083757E-1,1.068677306E0,-3.914003670E-1
1.088076556E1,-8.371661901E-1,8.420529366E-1,-4.451549351E-1
1.088991826E1,-8.373188972E-1,5.416688323E-1,-5.005893111E-1
1.089907092E1,-8.139539957E-1,2.150182426E-1,-5.300627351E-1
1.090822363E1,-7.579087615E-1,-6.139015034E-2,-5.257867575E-1
1.091737628E1,-6.992673874E-1,-2.884726226E-1,-5.037962794E-1
1.092651623E1,-6.565080881E-1,-3.943018913E-1,-4.827220440E-1
1.093568165E1,-6.432221532E-1,-3.020639718E-1,-4.741701782E-1
1.094483430E1,-6.271874309E-1,-1.545443535E-1,-4.802786708E-1
1.095398701E1,-5.864133835E-1,3.833066672E-2,-4.978405237E-1
1.096313967E1,-5.048652887E-1,2.373141646E-1,-5.053234100E-1
1.097229238E1,-3.825430870E-1,3.286358118E-1,-4.941754341E-1
1.098144503E1,-2.709107697E-1,3.794888556E-1,-4.585935771E-1
1.099059774E1,-1.995943487E-1,3.086305857E-1,-4.140017331E-1
1.099975040E1,-1.530172378E-1,1.238492802E-1,-3.787252903E-1
1.100890311E1,-9.681928903E-2,1.801999472E-2,-3.599417508E-1
1.101805576E1,-2.779355086E-2,3.909422457E-2,-3.674246371E-1
1.102720847E1,-1.328592747E-2,7.650861889E-2,-3.839175105E-1
1.103636113E1,-3.909422457E-2,1.270562261E-1,-3.822376728E-1
1.104551384E1,-3.359660041E-3,1.910424829E-1,-3.539859951E-1
1.105466649E1,1.224748790E-1,2.927485406E-1,-3.061871827E-1
1.106381920E1,3.003841341E-1,3.607053161E-1,-2.536543310E-1
1.107297186E1,5.022691488E-1,3.142809272E-1,-2.050919682E-1
1.108212456E1,7.447755337E-1,1.852394342E-1,-1.533226669E-1
1.109127722E1,1.034164429E0,4.260659590E-2,-7.116370648E-2
1.110042993E1,1.366618037E0,-9.330692142E-2,3.084778599E-2
1.110958259E1,1.693421364E0,-1.568350345E-1,1.198787764E-1
1.111873530E1,1.958834410E0,-7.727217674E-2,1.846285909E-1
1.112788795E1,2.145601034E0,1.009425074E-1,2.327328026E-1
1.113704066E1,2.268533945E0,2.478512824E-1,2.959555089E-1
1.114618056E1,2.366575003E0,3.417690396E-1,3.851391971E-1
1.115534602E1,2.445221663E0,3.736858070E-1,5.186093450E-1
1.116449868E1,2.438960314E0,7.696675509E-2,7.288935184E-1
1.117363863E1,2.370087385E0,-7.910472155E-1,1.038134933E0
1.118280405E1,2.328549862E0,-1.758171082E0,1.364632726E0
1.119195670E1,2.426132679E0,-2.445374250E0,1.596602082E0
1.120110941E1,2.637485743E0,-2.737664700E0,1.663642526E0
1.121026212E1,2.874952555E0,-2.801345587E0,1.589119196E0
1.121941477E1,3.071187258E0,-2.894346952E0,1.448166132E0
1.122855472E1,3.195189238E0,-3.121887684E0,1.300951958E0
1.123772014E1,3.273835897E0,-3.374778509E0,1.191610336E0
1.124687280E1,3.316289663E0,-3.344846964E0,1.116781473E0
1.125601274E1,3.302240372E0,-2.900455475E0,1.056002140E0
1.126517821E1,3.245889664E0,-2.366116762E0,1.011257648E0
1.127433087E1,3.184346676E0,-1.888434291E0,9.987352490E-1
1.128347082E1,3.114252090E0,-1.305533290E0,1.048519373E0
1.129263623E1,3.017127275E0,-6.177192926E-1,1.152974248E0
1.130178889E1,2.899997473E0,-2.519745007E-2,1.263537526E0
1.131092884E1,2.790503025E0,3.889569938E-1,1.349208832E0
1.132009425E1,2.701166630E0,6.468872428E-1,1.393648028E0
1.132924696E1,2.586938143E0,7.531746626E-1,1.373795509E0
1.133838686E1,2.441251040E0,7.461498976E-1,1.301410079E0
1.134755233E1,2.295716763E0,6.563553810E-1,1.199551344E0
1.135670503E1,2.157512426E0,5.117372870E-1,1.088682532E0
1.136584493E1,2.026638508E0,3.096995652E-1,9.652913809E-1
1.137501035E1,1.911341071E0,1.041494608E-1,8.419002295E-1
1.138416306E1,1.811162114E0,-9.712471068E-2,7.264500856E-1
1.139331571E1,1.731446505E0,-2.970244884E-1,6.166502833E-1
1.140246842E1,1.665322304E0,-4.398100376E-1,5.143333673E-1
1.141162108E1,1.585148692E0,-5.210527182E-1,4.156815708E-1
1.142077378E1,1.470156670E0,-5.955760479E-1,3.403946459E-1
1.142992644E1,1.364021897E0,-7.576032877E-1,2.701472044E-1
1.143907915E1,1.248113632E0,-8.574768305E-1,1.911951900E-1
1.144821910E1,1.100135922E0,-8.947384953E-1,1.314848661E-1
1.145738451E1,9.234483242E-1,-8.867974877E-1,7.711946964E-2
1.146653717E1,7.305732965E-1,-8.632798791E-1,1.893626526E-2
1.147567712E1,5.221216679E-1,-8.330429196E-1,-4.001049697E-2
1.148484253E1,3.005368412E-1,-7.745543122E-1,-8.612946421E-2
1.149399524E1,6.429167092E-2,-6.606312990E-1,-1.183516532E-1
1.150313514E1,-1.879882365E-1,-4.285093546E-1,-1.472141892E-1
1.151230061E1,-4.445441067E-1,-5.421269313E-2,-1.725643575E-1
1.152145326E1,-6.711684465E-1,3.545968235E-1,-1.878355294E-1
1.153060597E1,-8.521319032E-1,6.766660213E-1,-1.954711229E-1
1.153975863E1,-9.617789984E-1,8.125795722E-1,-2.090624720E-1
1.154891134E1,-9.856020808E-1,7.400414348E-1,-2.434226274E-1
1.155806399E1,-9.220739603E-1,5.453338623E-1,-3.112266660E-1
1.156721670E1,-7.855495811E-1,4.324798584E-1,-4.115583301E-1
1.157636936E1,-6.609367132E-1,4.570664763E-1,-4.827220440E-1
1.158550930E1,-6.668924689E-1,5.051707029E-1,-5.126535892E-1
1.159467472E1,-7.832589149E-1,4.929537475E-1,-5.233433843E-1
1.160382743E1,-8.829796910E-1,5.619794726E-1,-5.357130170E-1
1.161296738E1,-8.927532434E-1,7.829535007E-1,-5.835118294E-1
1.162213280E1,-9.200887084E-1,8.368607163E-1,-6.400152445E-1
1.163128545E1,-1.098914266E0,4.292729199E-1,-6.488724947E-1
1.164042540E1,-1.394258857E0,5.360184610E-2,-5.725166202E-1
1.164959082E1,-1.501309872E0,2.383831441E-1,-4.311054647E-1
1.165874352E1,-1.435491085E0,7.082774043E-1,-3.376458287E-1
1.166788347E1,-1.566365123E0,6.765133142E-1,-3.848337829E-1
1.167704889E1,-1.780008912E0,4.346178174E-1,-5.248705149E-1
1.168620155E1,-1.823684454E0,4.459185004E-1,-5.728220344E-1
1.169534149E1,-1.713579297E0,4.355340898E-1,-4.877615273E-1
1.170450696E1,-1.639666796E0,4.004103839E-1,-4.077405334E-1
1.171365962E1,-1.661504507E0,4.095730782E-1,-3.475720882E-1
1.172279956E1,-1.695864677E0,3.405473530E-1,-2.512109280E-1
1.173196498E1,-1.668223858E0,8.032641560E-2,-1.146865711E-1
1.174111764E1,-1.583621502E0,-2.119639963E-1,2.412846684E-2
1.175027035E1,-1.466491580E0,-3.886515796E-1,1.007898003E-1
1.175942300E1,-1.355928183E0,-4.996730685E-1,1.475196183E-1
1.176857571E1,-1.283695459E0,-6.073349118E-1,1.780619770E-1
1.177771566E1,-1.232537031E0,-6.777350307E-1,1.887518018E-1
1.178688108E1,-1.189014196E0,-7.162184119E-1,1.817270666E-1
1.179603378E1,-1.170994163E0,-7.030851841E-1,1.423274130E-1
1.180517368E1,-1.196191669E0,-6.106945276E-1,5.833591148E-2
1.181433915E1,-1.242768764E0,-4.485146105E-1,-5.940489471E-2
1.182349181E1,-1.250251651E0,-2.403683960E-1,-1.737860441E-1
1.183264451E1,-1.216349602E0,6.413896102E-3,-2.585411072E-1
1.184179717E1,-1.197413325E0,2.509055138E-1,-3.019112647E-1
1.185094988E1,-1.172521353E0,4.268295169E-1,-2.970244884E-1
1.186008977E1,-1.088224411E0,5.210527182E-1,-2.941229641E-1
1.186925524E1,-1.072495103E0,6.204680800E-1,-2.831276953E-1
1.187840790E1,-1.078603506E0,7.398887277E-1,-2.550287247E-1
1.188756061E1,-1.011410356E0,8.510629535E-1,-2.266243398E-1
1.189671326E1,-9.875873327E-1,9.402466416E-1,-2.130329758E-1
1.190586592E1,-9.981244206E-1,1.021031141E0,-2.107423097E-1
1.191501863E1,-1.029124975E0,1.190235853E0,-2.299840003E-1
1.192417134E1,-1.077229142E0,1.356386304E0,-2.646495700E-1
1.193332399E1,-1.115865231E0,1.476112366E0,-2.907632887E-1
1.194247670E1,-1.126402378E0,1.499019146E0,-3.017585576E-1
1.195162936E1,-1.062874198E0,1.500240922E0,-3.214583695E-1
1.196078206E1,-1.024238110E0,1.539335132E0,-3.571929336E-1
1.196993472E1,-1.044090629E0,1.571099162E0,-4.098785222E-1
1.197908743E1,-1.060125470E0,1.532157660E0,-4.741701782E-1
1.198824009E1,-1.077076435E0,1.448166132E0,-5.267030597E-1
1.199739280E1,-1.063637733E0,1.416860223E0,-5.528167486E-1
1.200654545E1,-1.007592559E0,1.424037695E0,-5.604523420E-1
1.201569816E1,-9.804098606E-1,1.415638566E0,-5.570927262E-1
1.202485082E1,-1.024543524E0,1.380667567E0,-5.464028716E-1
1.203400352E1,-1.054627776E0,1.353637576E0,-5.288410187E-1
1.204315618E1,-1.046228647E0,1.372421026E0,-5.135698318E-1
1.205230889E1,-1.023627281E0,1.336839199E0,-5.183038712E-1
1.206146154E1,-9.775083065E-1,1.280794024E0,-5.381564498E-1
1.207061425E1,-9.248227477E-1,1.133121610E0,-5.656445622E-1
1.207976691E1,-9.003888369E-1,8.913788795E-1,-5.879405141E-1
1.208891962E1,-8.780929446E-1,7.353073955E-1,-5.900784731E-1
1.209807227E1,-8.495358229E-1,6.258130074E-1,-5.807630420E-1
1.210722498E1,-8.374716043E-1,4.511106908E-1,-5.688515306E-1
1.211637764E1,-7.933378816E-1,2.487675399E-1,-5.427377820E-1
1.212553035E1,-7.652388811E-1,1.290414780E-1,-5.192201734E-1
1.213468300E1,-7.803573608E-1,9.895725548E-2,-5.077667832E-1
1.214383571E1,-7.834116220E-1,1.501157135E-1,-5.053234100E-1
1.215298837E1,-7.611156702E-1,3.031329513E-1,-5.181511641E-1
1.216214108E1,-7.453863621E-1,4.790569544E-1,-5.413633585E-1
1.217129373E1,-6.942279339E-1,4.946335554E-1,-5.764871240E-1
1.218044644E1,-6.221479177E-1,3.782671690E-1,-6.166502833E-1
1.218959910E1,-5.499152541E-1,2.283041626E-1,-6.398624778E-1
1.219875180E1,-4.631749392E-1,1.235438585E-1,-6.349757314E-1
1.220790446E1,-3.284831047E-1,6.429167092E-2,-5.972558856E-1
1.221705717E1,-1.469087601E-1,6.429167092E-2,-5.367820263E-1
1.222620983E1,3.222219273E-2,1.136175916E-1,-4.636330605E-1
1.223536253E1,1.606528312E-1,2.081461996E-1,-3.961344361E-1
1.224450248E1,2.782409191E-1,3.248180151E-1,-3.417690396E-1
1.225366790E1,4.483618736E-1,3.813214004E-1,-2.959555089E-1
1.226282056E1,6.708629727E-1,3.547495604E-1,-2.510582209E-1
1.227197326E1,8.933641315E-1,2.786990702E-1,-2.017323077E-1
1.228112597E1,1.067302823E0,1.617218107E-1,-1.394258887E-1
1.229027863E1,1.196955204E0,1.061347127E-1,-6.215370819E-2
1.229943134E1,1.297286868E0,7.406523079E-2,1.863084175E-2
1.230858399E1,1.368908763E0,-4.352286831E-2,9.926267713E-2
1.231773670E1,1.418234587E0,-2.991624475E-1,1.882936656E-1
1.232687660E1,1.484969735E0,-6.423059106E-1,2.939702570E-1
1.233604207E1,1.588050127E0,-9.361234307E-1,4.268295169E-1
1.234519472E1,1.685022116E0,-1.099830508E0,5.998520255E-1
1.235433467E1,1.722894669E0,-9.628480077E-1,8.241856694E-1
1.236350009E1,1.674790502E0,-5.769452453E-1,1.048824787E0
1.237265280E1,1.631725788E0,-5.865660906E-1,1.227039456E0
1.238179269E1,1.704416513E0,-1.325538516E0,1.295148849E0
1.239095816E1,1.953642249E0,-2.423994541E0,1.226275921E0
1.240011082E1,2.316332817E0,-3.361034393E0,1.076160192E0
1.240925076E1,2.651535273E0,-3.775646925E0,9.347490072E-1
1.241841618E1,2.849602461E0,-3.670275688E0,8.163973689E-1
1.242756889E1,2.916032076E0,-3.286663771E0,7.481352091E-1
1.243670878E1,2.916337490E0,-2.893736124E0,7.374453545E-1
1.244587425E1,2.887322187E0,-2.540666580E0,7.346965671E-1
1.245502691E1,2.839523554E0,-2.203478813E0,7.053758502E-1
1.246416686E1,2.752935886E0,-1.799403310E0,6.665870547E-1
1.247333227E1,2.620534658E0,-1.265064716E0,6.737645268E-1
1.248248498E1,2.485079288E0,-7.527165413E-1,7.603521347E-1
1.249162493E1,2.403836727E0,-4.233171642E-1,8.964183331E-1
1.250079035E1,2.395742893E0,-1.508792788E-1,1.062263370E0
1.250994306E1,2.425369024E0,1.806580722E-1,1.233147860E0
1.251908295E1,2.445832491E0,5.241069198E-1,1.365090966E0
1.252824842E1,2.434684515E0,8.490777016E-1,1.448318839E0
1.253740108E1,2.389328957E0,1.090820551E0,1.471072912E0
1.254654102E1,2.305948496E0,1.133885264E0,1.416096687E0
1.255570644E1,2.183320761E0,1.046992183E0,1.302937150E0
1.256485915E1,2.044353008E0,8.612946272E-1,1.156639338E0
1.257399904E1,1.929361105E0,5.693096519E-1,9.996515512E-1
1.258316451E1,1.859266400E0,1.950129867E-1,8.438854814E-1
1.259231717E1,1.812536478E0,-1.688992679E-1,6.991146803E-1
1.260146988E1,1.762599707E0,-4.515688419E-1,5.651864409E-1
1.261062253E1,1.712052107E0,-6.642963886E-1,4.343124032E-1
1.261977524E1,1.678608298E0,-8.648070097E-1,3.249707520E-1
1.262892790E1,1.653563499E0,-1.014006495E0,2.423536479E-1
1.263808061E1,1.608666301E0,-1.064248681E0,1.998997629E-1
1.264723326E1,1.520551562E0,-1.054780483E0,1.827960461E-1
1.265637321E1,1.392579079E0,-1.002553105E0,1.757712960E-1
1.266553863E1,1.223832488E0,-8.955020905E-1,1.776038408E-1
1.267469134E1,1.053864241E0,-7.710419297E-1,1.953184158E-1
1.268384404E1,9.109259844E-1,-5.772506595E-1,1.916533262E-1
1.269299670E1,7.518002391E-1,-3.347443044E-1,1.829487532E-1
1.270214941E1,5.454866290E-1,-8.857285231E-2,1.747023165E-1
1.271130206E1,3.049654961E-1,1.357607991E-1,1.514901221E-1
1.272045477E1,8.261708915E-2,2.672456801E-1,1.369825006E-1
1.272960743E1,-8.872556686E-2,3.362714052E-1,1.327065676E-1
1.273876014E1,-2.107423097E-1,3.306210935E-1,1.452289373E-1
1.274791280E1,-2.880144715E-1,2.921377122E-1,1.678302884E-1
1.275706550E1,-3.451287150E-1,2.570139766E-1,1.815743446E-1
1.276621816E1,-4.109475017E-1,2.334963679E-1,1.860029846E-1
1.277537087E1,-5.181511641E-1,2.171562016E-1,2.078407854E-1
1.278452352E1,-6.781931520E-1,1.820324808E-1,2.263189107E-1
1.279366347E1,-8.690829277E-1,1.070509851E-1,2.225011140E-1
1.280282889E1,-1.063485026E0,6.413896102E-3,1.852394342E-1
1.281198160E1,-1.251626015E0,-8.383878320E-2,1.186570823E-1
1.282113431E1,-1.418845415E0,-1.067455560E-1,2.962609194E-2
1.283028696E1,-1.594616771E0,-9.422318637E-2,-8.399149776E-2
1.283943967E1,-1.745954156E0,-4.932591692E-2,-2.483094037E-1
1.284859233E1,-1.733584523E0,1.053711548E-1,-4.564556181E-1
1.285774503E1,-1.387844920E0,4.124746025E-1,-6.423059106E-1
1.286689769E1,-9.933903813E-1,5.595360994E-1,-6.543701291E-1
1.287603764E1,-1.077229142E0,-1.236965731E-1,-4.138490260E-1
1.288520306E1,-1.642415524E0,-8.211314082E-1,-1.235438585E-1
1.289435576E1,-2.398186445E0,-4.434750974E-1,-5.192201585E-3
1.290349571E1,-2.653367758E0,7.693621516E-1,6.658235192E-2
1.291266113E1,-2.401546001E0,1.643637300E0,2.203631550E-1
1.292181378E1,-2.190498352E0,1.369519591E0,2.977880239E-1
1.293095373E1,-1.820324779E0,7.369872332E-1,2.312056869E-1
1.294011920E1,-1.553842664E0,6.129852533E-1,1.519482583E-1
1.294927186E1,-1.620425105E0,3.495573401E-1,-3.359660041E-3
1.295841180E1,-1.686091185E0,-3.779617548E-1,-1.821851879E-1
1.296757722E1,-1.646844268E0,-8.616000414E-1,-2.903051674E-1
1.297672993E1,-1.605306625E0,-7.488987446E-1,-2.919849753E-1
1.298586983E1,-1.630198598E0,-5.401417017E-1,-2.244863659E-1
1.299503530E1,-1.610040665E0,-5.451811552E-1,-1.589729935E-1
1.300418795E1,-1.544221878E0,-6.861341596E-1,-1.333174109E-1
1.301334066E1,-1.495354056E0,-8.223531246E-1,-1.829487532E-1
1.302249332E1,-1.443126678E0,-8.238802552E-1,-2.779355049E-1
1.303164602E1,-1.372573733E0,-6.836907864E-1,-3.752129376E-1
1.304078597E1,-1.304006219E0,-4.518742561E-1,-4.500417113E-1
1.304995139E1,-1.277739763E0,-1.918060333E-1,-4.938700199E-1
1.305910405E1,-1.273158431E0,6.016845629E-2,-5.021164417E-1
1.306825675E1,-1.319888234E0,3.741439581E-1,-4.695888162E-1
1.307740946E1,-1.382958174E0,7.111788988E-1,-3.988832533E-1
1.308656212E1,-1.418081880E0,9.494093657E-1,-3.187095523E-1
1.309571483E1,-1.390746474E0,1.110062122E0,-2.635805905E-1
1.310486748E1,-1.355011940E0,1.181225896E0,-2.402156889E-1
1.311402019E1,-1.330883503E0,1.158319116E0,-2.260134816E-1
1.312316009E1,-1.319277406E0,1.091584086E0,-2.063136548E-1
1.313232556E1,-1.296065211E0,9.694145918E-1,-1.982199401E-1
1.314147821E1,-1.257734537E0,8.192988634E-1,-2.002051920E-1
1.315063092E1,-1.201994658E0,6.591041684E-1,-2.296785712E-1
1.315978363E1,-1.164580345E0,5.691569448E-1,-2.945810854E-1
1.316893628E1,-1.156028390E0,5.520532131E-1,-3.568875194E-1
1.317807623E1,-1.171757698E0,6.132906675E-1,-4.040754735E-1
1.318724165E1,-1.171299577E0,7.751652002E-1,-4.395045936E-1
1.319639436E1,-1.169925213E0,9.920159578E-1,-4.842491746E-1
1.320554701E1,-1.214364409E0,1.224901438E0,-5.335750580E-1
1.321469972E1,-1.260941505E0,1.490467310E0,-5.690042377E-1
1.322385238E1,-1.282473803E0,1.848423839E0,-5.815265775E-1
1.323300509E1,-1.296828747E0,2.147280931E0,-5.734328628E-1
1.324215774E1,-1.323553324E0,2.294342279E0,-5.430431962E-1
1.325131045E1,-1.372421026E0,2.359550238E0,-4.958552718E-1
1.326045040E1,-1.402810693E0,2.366880417E0,-4.538595080E-1
1.326961582E1,-1.355317354E0,2.350692987E0,-4.419479966E-1
1.327876852E1,-1.220014691E0,2.265937805E0,-4.616478086E-1
1.328790842E1,-1.107160687E0,2.004342556E0,-5.089884996E-1
1.329707389E1,-1.071426034E0,1.617370844E0,-5.842754245E-1
1.330622655E1,-1.081199646E0,1.298203111E0,-6.725428104E-1
1.331537925E1,-1.047297597E0,1.045923233E0,-7.545490861E-1
1.332453191E1,-9.378032684E-1,8.344173431E-1,-8.244910836E-1
1.333368462E1,-7.623373866E-1,7.241594195E-1,-8.603783846E-1
1.334283727E1,-6.151232123E-1,5.280774832E-1,-8.389987350E-1
1.335198998E1,-6.839962006E-1,7.085828483E-2,-7.941014171E-1
1.336114269E1,-8.212841153E-1,-3.865135908E-1,-7.458444834E-1
1.337028259E1,-8.761076927E-1,-7.692093849E-1,-7.020162344E-1
1.337944800E1,-8.393041492E-1,-9.164236188E-1,-6.148177385E-1
1.338860071E1,-7.547017932E-1,-6.494833231E-1,-5.118899941E-1
1.339774066E1,-7.922688723E-1,-2.524326444E-1,-4.776825607E-1
1.340690608E1,-8.942803741E-1,-1.827960461E-1,-5.181511641E-1
1.341605878E1,-9.347490072E-1,-2.680092454E-1,-5.702258945E-1
1.342521144E1,-8.744278550E-1,-2.330382317E-1,-6.125270724E-1
1.343436415E1,-7.632536292E-1,-1.583621502E-1,-6.595623493E-1
1.344351681E1,-6.444438696E-1,-1.366770715E-1,-6.861341596E-1
1.345265675E1,-4.408790171E-1,-1.753131598E-1,-6.505523324E-1
1.346182217E1,-1.287360638E-1,-1.827960461E-1,-5.383091569E-1
1.347097488E1,2.029540092E-1,-1.502684206E-1,-3.578037918E-1
1.348011483E1,5.413633585E-1,-8.750387281E-2,-1.745496094E-1
1.348928024E1,9.608627558E-1,9.376505762E-2,-5.451811850E-2
1.349843295E1,1.441294074E0,2.599155009E-1,4.886778072E-3
1.350758561E1,1.883547544E0,4.179722369E-1,3.100049868E-2
1.351673832E1,2.217833757E0,5.693096519E-1,7.788302749E-2
1.352589097E1,2.452704430E0,6.377245188E-1,2.157817930E-1
1.353503092E1,2.546469450E0,6.826218367E-1,4.263713956E-1
1.354419634E1,2.519439459E0,6.322268844E-1,6.449019909E-1
1.355334905E1,2.554105043E0,2.084516287E-1,9.061918855E-1
1.356248899E1,2.735984802E0,-3.576510847E-1,1.227802992E0
1.357165441E1,2.942298651E0,-8.947384953E-1,1.532615781E0
1.358080706E1,3.070271015E0,-1.373490095E0,1.711593986E0
1.358994701E1,3.097606421E0,-2.029234648E0,1.721367598E0
1.359911248E1,3.074852467E0,-2.954668283E0,1.592936993E0
1.360826514E1,3.105242014E0,-3.512677193E0,1.407392025E0
1.361740509E1,3.192898512E0,-3.384246588E0,1.247960925E0
1.362657050E1,3.263298750E0,-2.857848883E0,1.141215444E0
1.363572321E1,3.290481567E0,-2.281972647E0,1.087766290E0
1.364486311E1,3.261313438E0,-1.711441278E0,1.077381849E0
1.365402858E1,3.149375677E0,-1.185349107E0,1.106702566E0
1.366318128E1,3.012851477E0,-7.629482150E-1,1.164122105E0
1.367232118E1,2.896485090E0,-3.904841244E-1,1.242463350E0
1.368148665E1,2.756600857E0,-6.322269142E-2,1.286444306E0
1.369063931E1,2.608165026E0,1.154501289E-1,1.296217918E0
1.369977925E1,2.509360552E0,6.948387623E-2,1.298661232E0
1.370894467E1,2.454842329E0,-2.825168520E-2,1.283084631E0
1.371809738E1,2.402156830E0,-1.032331884E-1,1.229635477E0
1.372723727E1,2.358939409E0,-1.302631795E-1,1.140146375E0
1.373640274E1,2.325037479E0,-1.540862173E-1,1.043327093E0
1.374555540E1,2.285332203E0,-2.214321345E-1,9.411629438E-1
1.375469535E1,2.208671093E0,-3.203893900E-1,7.991409302E-1
1.376386082E1,2.087112427E0,-4.417952895E-1,6.175665855E-1
1.377301347E1,1.975938201E0,-6.071822047E-1,4.318690002E-1
1.378215342E1,1.880340576E0,-8.139539957E-1,2.896943092E-1
1.379131884E1,1.773136854E0,-1.051878929E0,1.931804419E-1
1.380047154E1,1.632794738E0,-1.243532300E0,9.834641218E-2
1.380961144E1,1.466186166E0,-1.373184681E0,-1.206423342E-2
1.381877691E1,1.275601745E0,-1.366618037E0,-1.148392856E-1
1.382792957E1,1.037524104E0,-1.191304922E0,-1.782146841E-1
1.383706951E1,7.721109390E-1,-9.242119193E-1,-1.913478971E-1
1.384623493E1,4.950917065E-1,-6.346703172E-1,-1.629435122E-1
1.385538764E1,2.186833173E-1,-3.553603888E-1,-1.120904684E-1
1.386452759E1,-4.489727318E-2,-7.345438004E-2,-3.710897267E-2
1.387369300E1,-2.631224692E-1,1.765348613E-1,4.963133857E-2
1.388284571E1,-4.260659516E-1,3.778090179E-1,1.180462316E-1
1.389198561E1,-5.693096519E-1,5.337277651E-1,1.314848661E-1
1.390115108E1,-7.461498976E-1,6.140542030E-1,9.116895497E-2
1.391030373E1,-1.021794796E0,5.236487985E-1,2.382304333E-2
1.391944368E1,-1.368908763E0,2.406738251E-1,-7.605048269E-2
1.392860915E1,-1.720298648E0,2.443389036E-2,-2.200577259E-1
1.393776181E1,-2.031525373E0,2.347180545E-1,-4.037700295E-1
1.394690175E1,-2.169576645E0,9.585720897E-1,-5.908420086E-1
1.395606717E1,-2.053973913E0,1.676775694E0,-7.053758502E-1
1.396521988E1,-1.960819721E0,1.180920482E0,-7.030851841E-1
1.397435983E1,-2.281361818E0,-4.860817194E-1,-5.996993184E-1
1.398352524E1,-2.633362532E0,-1.136633992E0,-3.929274976E-1
1.399267795E1,-2.856474400E0,3.387148082E-1,-1.140757278E-1
1.400181785E1,-3.203893900E0,2.037786484E0,8.307522535E-2
1.401098332E1,-2.794931650E0,2.414526463E0,1.114796251E-1
1.402013597E1,-1.871636033E0,1.726407051E0,8.796200156E-2
1.402927592E1,-1.724879980E0,5.557183027E-1,5.131116882E-2
1.403844134E1,-1.941272616E0,-4.083513916E-1,3.817795217E-2
1.404759404E1,-1.611873150E0,-1.473821759E0,3.588727489E-2
1.405673399E1,-1.313932419E0,-2.137965441E0,3.359659761E-2
1.406589941E1,-1.472447276E0,-2.207449198E0,6.184828654E-2
1.407505212E1,-1.523758531E0,-2.059166193E0,8.887827396E-2
1.408419201E1,-1.432436824E0,-1.710219622E0,7.757759839E-2
1.409335748E1,-1.437628984E0,-1.251626015E0,3.023693897E-2
1.410251014E1,-1.477792263E0,-9.918632507E-1,-5.635065958E-2
1.411165009E1,-1.493216157E0,-9.972081780E-1,-2.005106062E-1
1.412081550E1,-1.522078633E0,-8.605310917E-1,-3.663556576E-1
1.412996821E1,-1.545290828E0,-4.579827189E-1,-4.993676245E-1
1.413910816E1,-1.496423125E0,-2.977880463E-2,-5.871769190E-1
1.414827358E1,-1.411668062E0,2.980934680E-1,-6.051968932E-1
1.415742628E1,-1.385554314E0,6.252021790E-1,-4.923428893E-1
1.416656618E1,-1.370588541E0,1.011104941E0,-2.951919436E-1
1.417573165E1,-1.339435339E0,1.399145603E0,-1.462979168E-1
1.418488430E1,-1.317902923E0,1.658603072E0,-9.254335612E-2
1.419402425E1,-1.305533290E0,1.791767716E0,-9.804098308E-2
1.420318972E1,-1.267966151E0,1.743510842E0,-1.270562261E-1
1.421234238E1,-1.265675545E0,1.627755284E0,-1.580567211E-1
1.422148233E1,-1.277128935E0,1.396091461E0,-1.849340051E-1
1.423064774E1,-1.297134161E0,1.178935170E0,-2.238755226E-1
1.423980045E1,-1.307365894E0,1.045617819E0,-2.867927849E-1
1.424895311E1,-1.328134656E0,9.199360013E-1,-3.613161445E-1
1.425810582E1,-1.326149344E0,9.130639434E-1,-4.028537571E-1
1.426725852E1,-1.288124204E0,1.020420313E0,-4.149180055E-1
1.427641118E1,-1.282779217E0,1.172215939E0,-4.107947946E-1
1.428556389E1,-1.326912999E0,1.345238328E0,-3.836120665E-1
1.429471655E1,-1.332868695E0,1.506349325E0,-3.271087110E-1
1.430386925E1,-1.294385314E0,1.576596737E0,-2.577775419E-1
1.431302191E1,-1.296981454E0,1.632794738E0,-2.041756958E-1
1.432217462E1,-1.299424887E0,1.771457076E0,-2.000524700E-1
1.433132733E1,-1.218793035E0,1.893626451E0,-2.648022771E-1
1.434047998E1,-1.141368151E0,1.892252088E0,-3.767400384E-1
1.434963269E1,-1.119530320E0,1.782757759E0,-4.802786708E-1
1.435877264E1,-1.085475564E0,1.577054858E0,-5.470137000E-1
1.436793806E1,-1.073105931E0,1.380056620E0,-5.656445622E-1
1.437709076E1,-1.111131191E0,1.067913771E0,-5.242596865E-1
1.438623066E1,-1.045006990E0,5.854970813E-1,-4.514161348E-1
1.439539613E1,-9.032903910E-1,8.276980370E-2,-4.048390090E-1
1.440454878E1,-8.510629535E-1,-4.703523815E-1,-3.943018913E-1
1.441368873E1,-8.377770185E-1,-9.866710305E-1,-3.981196880E-1
1.442285415E1,-8.189934492E-1,-1.219861984E0,-4.143071473E-1
1.443200686E1,-7.348492742E-1,-1.254680276E0,-4.308000207E-1
1.444114680E1,-6.820109487E-1,-1.164274931E0,-4.451549351E-1
1.445031222E1,-7.171346545E-1,-9.414683580E-1,-4.564556181E-1
1.445946493E1,-7.006418109E-1,-4.949389994E-1,-4.749337435E-1
1.446861759E1,-6.447492838E-1,-5.329642445E-2,-5.042544007E-1
1.447777030E1,-5.917583108E-1,2.586938143E-1,-5.419742465E-1
1.448692295E1,-5.575508475E-1,5.798467398E-1,-5.664080977E-1
1.449607566E1,-5.143333673E-1,7.872294188E-1,-5.601469278E-1
1.450522837E1,-4.071297050E-1,8.309049606E-1,-5.184566379E-1
1.451438102E1,-2.353289127E-1,8.887827396E-1,-4.530959427E-1
1.452352097E1,-3.970507067E-3,9.701781869E-1,-3.556658030E-1
1.453268639E1,2.968717813E-1,9.747595191E-1,-2.425063550E-1
1.454183910E1,6.371136904E-1,9.967499971E-1,-1.472141892E-1
1.455099180E1,9.914051294E-1,1.128234863E0,-9.910997003E-2
1.456014446E1,1.343253136E0,1.349514365E0,-9.620844573E-2
1.456929717E1,1.688687205E0,1.585759521E0,-7.131642103E-2
1.457843712E1,1.983421087E0,1.521620512E0,3.100049868E-2
1.458760253E1,2.212336063E0,1.066997409E0,1.971509457E-1
1.459675524E1,2.356648684E0,4.219427407E-1,3.854446113E-1
1.460589514E1,2.445374250E0,-8.047912270E-2,5.641174316E-1
1.461506061E1,2.553952456E0,-6.742226481E-1,7.779139876E-1
1.462421326E1,2.734457731E0,-1.057376623E0,1.013242841E0
1.463335321E1,2.918780804E0,-1.233453274E0,1.232231617E0
1.464251868E1,2.994525909E0,-1.440683246E0,1.392884493E0
1.465167134E1,2.965510845E0,-2.030914307E0,1.477486849E0
1.466081128E1,2.950545073E0,-2.898317575E0,1.438239813E0
1.466997670E1,3.001856089E0,-3.326674223E0,1.278961420E0
1.467912941E1,3.043546438E0,-2.867469788E0,1.094943762E0
1.468826936E1,3.088749170E0,-1.938676476E0,9.969027042E-1
1.469743477E1,3.005215883E0,-1.749008417E0,9.655967951E-1
1.470658748E1,2.903204203E0,-1.524369359E0,9.794935584E-1
1.471572743E1,2.836774588E0,-1.077076435E0,1.048213840E0
1.472489285E1,2.777827978E0,-5.199837089E-1,1.136023164E0
1.473404556E1,2.688644171E0,-9.025268257E-2,1.202300072E0
1.474319821E1,2.565405846E0,1.157555580E-1,1.215280652E0
1.475235092E1,2.458812952E0,1.305686086E-1,1.190693974E0
1.476150358E1,2.381998777E0,3.634541109E-2,1.172521353E0
1.477064352E1,2.318776131E0,-6.077930331E-2,1.176339149E0
1.477980899E1,2.272962570E0,-1.168245375E-1,1.195580840E0
1.478896165E1,2.230661392E0,-1.392731816E-1,1.188556075E0
1.479810160E1,2.144531965E0,-2.082989216E-1,1.131899953E0
1.480726701E1,2.054126501E0,-3.852919042E-1,1.034927964E0
1.481641972E1,1.981130362E0,-5.902311802E-1,9.356653094E-1
1.482557243E1,1.905996203E0,-7.629482150E-1,8.283088803E-1
1.483472509E1,1.834221601E0,-9.462023973E-1,6.972821355E-1
1.484387780E1,1.747023106E0,-1.124722481E0,5.515950918E-1
1.485301774E1,1.616607308E0,-1.233911514E0,4.126273096E-1
1.486218316E1,1.444959164E0,-1.202758312E0,2.874036431E-1
1.487133587E1,1.234522343E0,-1.051573515E0,1.826433241E-1
1.488047582E1,1.001789451E0,-8.402203918E-1,9.422318637E-2
1.488964123E1,7.314895988E-1,-6.184828281E-1,3.161134571E-2
1.489879394E1,4.450022280E-1,-4.274403751E-1,7.482878864E-3
1.490793384E1,1.829487532E-1,-2.086043358E-1,-6.108472589E-4
1.491709930E1,-4.902049154E-2,8.872556686E-2,-6.108472589E-4
1.492625196E1,-2.680092454E-1,4.107947946E-1,-5.497625098E-3
1.493540467E1,-4.923428893E-1,6.050441861E-1,1.236965694E-2
1.494455738E1,-7.159129977E-1,5.748072863E-1,4.810422286E-2
1.495371003E1,-8.869501948E-1,4.624113739E-1,3.833066672E-2
1.496284998E1,-9.994988441E-1,3.987305462E-1,-1.664558798E-2
1.497201545E1,-1.125333309E0,3.710896969E-1,-8.719844371E-2
1.498116811E1,-1.359440565E0,3.281776905E-1,-1.719534993E-1
1.499030806E1,-1.701056957E0,2.622061968E-1,-2.805316150E-1
1.499947347E1,-2.017781258E0,2.327328026E-1,-4.439332485E-1
1.500862618E1,-2.097344160E0,4.873034060E-1,-6.565080881E-1
1.501776613E1,-1.806275368E0,1.055238605E0,-8.631271720E-1
1.502693154E1,-1.529103398E0,1.024085402E0,-8.916842937E-1
1.503608425E1,-1.862625957E0,-2.541124523E-1,-6.641436815E-1
1.504522420E1,-2.439113140E0,-9.074136019E-1,-4.381301999E-1
1.505438962E1,-2.726516724E0,-3.741439432E-2,-3.480302393E-1
1.506354233E1,-2.393757582E0,9.819369912E-1,-2.535016239E-1
1.507268227E1,-1.825822473E0,1.074633002E0,-1.776038408E-1
1.508184769E1,-1.672347069E0,4.953971207E-1,-1.357607991E-1
1.509100040E1,-1.763057947E0,-7.284353673E-2,-1.018587798E-1
1.510014035E1,-1.601488829E0,-4.979932308E-1,-8.567132801E-2
1.510930576E1,-1.367076159E0,-1.021336675E0,-1.030804738E-1
1.511845847E1,-1.413347840E0,-1.408919215E0,-1.307213157E-1
1.512759837E1,-1.465880752E0,-1.380820274E0,-1.450762302E-1
1.513676384E1,-1.345543742E0,-1.051573515E0,-1.421747059E-1
1.514591654E1,-1.336839199E0,-6.723901033E-1,-1.007898003E-1
1.515505644E1,-1.354553819E0,-4.419479966E-1,-2.535016090E-2
1.516422191E1,-1.324011445E0,-3.352024257E-1,-2.153236605E-2
1.517337457E1,-1.354248405E0,-2.886253297E-1,-1.232384369E-1
1.518251451E1,-1.406781197E0,-2.145601064E-1,-2.597627938E-1
1.519167998E1,-1.408155680E0,-1.359135192E-2,-3.649812341E-1
1.520083264E1,-1.360204101E0,1.634016484E-1,-3.939964771E-1
1.520997259E1,-1.335922956E0,3.167243004E-1,-3.439069986E-1
1.521913806E1,-1.333021402E0,4.388937652E-1,-2.493783981E-1
1.522829071E1,-1.343405843E0,5.778614879E-1,-1.279724985E-1
1.523744342E1,-1.311336398E0,6.621584296E-1,-1.527118147E-4
1.524659613E1,-1.239867210E0,7.548545003E-1,9.483403713E-2
1.525574878E1,-1.190388560E0,8.509102464E-1,1.403421611E-1
1.526490149E1,-1.158624530E0,8.835905790E-1,1.466033459E-1
1.527405415E1,-1.146713018E0,8.008207679E-1,1.070509851E-1
1.528320686E1,-1.168092728E0,6.740699410E-1,2.886253223E-2
1.529235957E1,-1.203674555E0,5.705313683E-1,-7.269082218E-2
1.530151222E1,-1.220167398E0,5.428904891E-1,-1.820324808E-1
1.531066493E1,-1.227039456E0,5.980194807E-1,-2.803788781E-1
1.531981764E1,-1.246891975E0,7.096518278E-1,-3.576510847E-1
1.532897030E1,-1.280030489E0,8.614473343E-1,-3.921639323E-1
1.533812300E1,-1.290109396E0,1.022863746E0,-4.033119082E-1
1.534727566E1,-1.256818295E0,1.241547108E0,-4.295783341E-1
1.535642837E1,-1.235285878E0,1.474127173E0,-4.643966258E-1
1.536558108E1,-1.270562291E0,1.640277624E0,-4.775298536E-1
1.537473373E1,-1.292858243E0,1.846438527E0,-4.601207078E-1
1.538388644E1,-1.244143128E0,2.059929609E0,-4.532486796E-1
1.539303915E1,-1.177255392E0,2.153236628E0,-4.631749392E-1
1.540217910E1,-1.079214454E0,2.097344160E0,-4.697415531E-1
1.541134451E1,-9.458969831E-1,1.933637023E0,-4.845545888E-1
1.542049722E1,-8.490777016E-1,1.664864182E0,-5.222744346E-1
1.542963717E1,-7.744016051E-1,1.338824511E0,-5.653391480E-1
1.543880259E1,-7.143858671E-1,9.700254202E-1,-5.977140665E-1
1.544795530E1,-7.162184119E-1,5.644228458E-1,-6.065713167E-1
1.545710795E1,-7.178982496E-1,2.469350100E-1,-5.862606764E-1
1.546626066E1,-6.945333481E-1,9.590301663E-2,-5.395308137E-1
1.547541337E1,-7.041541934E-1,-1.725643501E-2,-4.937172830E-1
1.548455326E1,-7.423321605E-1,-1.027750522E-1,-4.743228853E-1
1.549371873E1,-7.467607856E-1,-8.658760041E-2,-4.865398407E-1
1.550287144E1,-7.120952010E-1,4.535540938E-2,-5.091412067E-1
1.551202410E1,-6.620057225E-1,1.670667231E-1,-5.198310018E-1
1.552117681E1,-5.920637250E-1,2.050919682E-1,-5.187620521E-1
1.553032951E1,-5.378510356E-1,2.034121305E-1,-5.115845799E-1
1.553948217E1,-4.996730685E-1,2.765611112E-1,-4.937172830E-1
1.554863488E1,-4.063661397E-1,4.340069890E-1,-4.650074840E-1
1.555778753E1,-2.392994165E-1,6.261184216E-1,-4.217900336E-1
1.556692748E1,-5.222744122E-2,7.744016051E-1,-3.535278440E-1
1.557609295E1,1.288887709E-1,8.707627654E-1,-2.496838123E-1
1.558524561E1,3.274141252E-1,8.102889061E-1,-1.102579311E-1
1.559439832E1,5.691569448E-1,5.702258945E-1,4.367557913E-2
1.560355102E1,8.309049606E-1,3.794888556E-1,2.057028115E-1
1.561270368E1,1.100135922E0,5.331169367E-1,3.613161445E-1
1.562184363E1,1.354095697E0,7.598940134E-1,4.819584787E-1
1.563100910E1,1.568044901E0,6.418477297E-1,5.538857579E-1
1.564016175E1,1.793294787E0,1.114796251E-1,6.064186096E-1
1.564930170E1,2.017475843E0,-4.663818777E-1,6.731536984E-1
1.565846717E1,2.250514030E0,-1.035996914E0,8.199097514E-1
1.566761983E1,2.533794403E0,-1.378987670E0,1.007897973E0
1.567675977E1,2.847006321E0,-1.524980187E0,1.174506545E0
1.568592524E1,3.050418615E0,-1.668071151E0,1.304311633E0
1.569507790E1,3.073936224E0,-2.137812614E0,1.403116107E0
1.570421785E1,2.996205807E0,-2.924583912E0,1.479472041E0
1.571338332E1,2.967954159E0,-3.632097721E0,1.478555799E0
1.572253597E1,3.025373697E0,-3.875215054E0,1.351499557E0
1.573167592E1,3.088290930E0,-3.446247578E0,1.155570269E0
1.574084139E1,3.147390604E0,-2.712925434E0,9.875873327E-1
1.574999405E1,3.161898136E0,-2.013658047E0,9.022213817E-1
1.575913399E1,3.108296394E0,-1.465880752E0,9.179506898E-1
1.576829946E1,3.006132126E0,-9.498674870E-1,9.767447710E-1
1.577745212E1,2.855710983E0,-4.227063060E-1,1.012479305E0
1.578659206E1,2.699792147E0,1.548497826E-1,1.004232883E0
1.579575753E1,2.560213566E0,6.102364063E-1,9.969027042E-1
1.580491019E1,2.440181971E0,8.426637650E-1,1.012937427E0
1.581405014E1,2.320761442E0,8.950439692E-1,1.052947998E0
1.582321561E1,2.201188087E0,8.594620824E-1,1.104106426E0
1.583236826E1,2.121014357E0,7.178982496E-1,1.132205367E0
1.584150821E1,2.079934835E0,4.863871336E-1,1.113269091E0
1.585067368E1,2.043131351E0,2.322746664E-1,1.033859015E0
1.585982634E1,1.994874477E0,-4.367557913E-2,9.042066336E-1
1.586896628E1,1.935011387E0,-3.794888556E-1,7.415685654E-1
1.587813175E1,1.878355265E0,-7.797465324E-1,5.528167486E-1
1.588728446E1,1.837733984E0,-1.110214949E0,3.634541333E-1
1.589643712E1,1.789782524E0,-1.346460104E0,2.173089087E-1
1.590558983E1,1.701056957E0,-1.512763262E0,1.282779276E-1
1.591474248E1,1.554759026E0,-1.611415029E0,7.849387079E-2
1.592388243E1,1.362036705E0,-1.599198103E0,2.275406010E-2
1.593304790E1,1.125638843E0,-1.466033459E0,-2.657185495E-2
1.594220056E1,8.594620824E-1,-1.190388560E0,-3.542914242E-2
1.595134050E1,5.841227174E-1,-8.189934492E-1,-5.955760833E-3
1.596050597E1,3.142809272E-1,-4.384356141E-1,3.588727489E-2
1.596965868E1,6.749862432E-2,-1.374406368E-1,6.077930331E-2
1.597879858E1,-1.528645307E-1,2.199050039E-2,7.253811508E-2
1.598796405E1,-3.906368315E-1,7.452336699E-2,6.658235192E-2
1.599711675E1,-6.838434935E-1,7.452336699E-2,3.573456407E-2
1.600625665E1,-9.547542930E-1,7.696675509E-2,-2.779355086E-2
1.601542212E1,-1.149003744E0,1.244601309E-1,-1.214058921E-1
1.602457483E1,-1.286597013E0,1.798945218E-1,-2.128802687E-1
1.603371472E1,-1.432894945E0,3.132119179E-1,-2.799207568E-1
1.604288019E1,-1.621646762E0,4.898995161E-1,-3.399364948E-1
1.605203290E1,-1.716328144E0,4.346178174E-1,-4.236225784E-1
1.606117285E1,-1.616301894E0,1.197260618E-1,-5.155550838E-1
1.607033826E1,-1.511236072E0,-1.826433241E-1,-5.523586273E-1
1.607949097E1,-1.694643021E0,-5.375455618E-1,-4.624113739E-1
1.608863092E1,-1.971662283E0,-5.089884996E-1,-2.782409191E-1
1.609779634E1,-2.317401886E0,4.251496792E-1,-9.636115283E-2
1.610694904E1,-2.443999767E0,1.525743723E0,-2.748812549E-3
1.611608899E1,-1.780925155E0,2.020529985E0,-1.192679256E-1
1.612525441E1,-1.357913494E0,1.632794738E0,-3.700207174E-1
1.613440712E1,-1.529866934E0,6.210789680E-1,-5.769452453E-1
1.614354706E1,-1.685022116E0,-5.986303091E-2,-4.969242513E-1
1.615271248E1,-1.591715217E0,-1.340809762E-1,-2.788517773E-1
1.616186519E1,-1.442973971E0,-5.451811850E-2,-1.679829955E-1
1.617100514E1,-1.403268814E0,-1.479777545E-1,-1.858502775E-1
1.618017056E1,-1.452136636E0,-1.753131598E-1,-2.411319613E-1
1.618932326E1,-1.553995371E0,-2.870981991E-1,-2.735068500E-1
1.619846321E1,-1.620425105E0,-3.715478480E-1,-2.709107697E-1
1.620762863E1,-1.609124422E0,-3.179459870E-1,-2.745758295E-1
1.621678134E1,-1.545748949E0,-2.854183912E-1,-3.199312389E-1
1.622592128E1,-1.470920205E0,-2.849602401E-1,-3.791834414E-1
1.623508670E1,-1.404185176E0,-2.312056869E-1,-3.862081766E-1
1.624423941E1,-1.361120462E0,-5.619794875E-2,-3.150444627E-1
1.625337936E1,-1.356080890E0,1.659977436E-1,-2.096733153E-1
1.626254483E1,-1.328745484E0,3.121429384E-1,-1.203369126E-1
1.627169748E1,-1.266744494E0,3.878880143E-1,-5.344913527E-2
1.628085019E1,-1.222610831E0,4.495835900E-1,3.665083554E-3
1.629000290E1,-1.208255887E0,5.300627351E-1,7.207997888E-2
1.629915556E1,-1.195122719E0,6.261184216E-1,1.447708011E-1
1.630829550E1,-1.162900448E0,6.337540150E-1,2.066190839E-1
1.631746097E1,-1.141978979E0,6.302416325E-1,2.281514555E-1
1.632661363E1,-1.153890491E0,6.620057225E-1,2.127275616E-1
1.633576634E1,-1.193290114E0,6.117635369E-1,1.539335102E-1
1.634491904E1,-1.152516007E0,4.439332485E-1,6.337540597E-2
1.635407170E1,-1.047908425E0,2.273878902E-1,-4.932591692E-2
1.636321165E1,-9.941539168E-1,6.780404598E-2,-1.843231618E-1
1.637237712E1,-1.026834249E0,5.528167635E-2,-3.098522723E-1
1.638152983E1,-1.078908920E0,2.090624720E-1,-3.952181637E-1
1.639066972E1,-1.092958450E0,4.957025647E-1,-4.456130862E-1
1.639983519E1,-1.098761559E0,8.144121170E-1,-4.781406820E-1
1.640898790E1,-1.094638348E0,1.120446563E0,-4.886777997E-1
1.641814056E1,-1.090667725E0,1.440988660E0,-4.932591617E-1
1.642729326E1,-1.130372882E0,1.741678238E0,-4.882196784E-1
1.643644597E1,-1.209324837E0,1.965248346E0,-4.639385045E-1
1.644558592E1,-1.184280157E0,2.101009130E0,-4.301891923E-1
1.645475134E1,-1.026528835E0,2.168813229E0,-4.132381678E-1
1.646390404E1,-9.159654379E-1,2.088181257E0,-4.399627447E-1
1.647304399E1,-9.323056340E-1,2.002357244E0,-4.973823726E-1
1.648220941E1,-9.616262913E-1,1.870719671E0,-5.415160656E-1
1.649136212E1,-8.383878469E-1,1.586523056E0,-5.422796607E-1
1.650050207E1,-6.786513329E-1,1.348903418E0,-5.121954083E-1
1.650966748E1,-6.956022978E-1,1.107771516E0,-4.877615273E-1
1.651882019E1,-7.902836204E-1,7.153021693E-1,-4.821111858E-1
1.652797290E1,-7.999044657E-1,4.063661397E-1,-4.818057716E-1
1.653712556E1,-7.195780873E-1,2.599155009E-1,-4.897467792E-1
1.654627826E1,-7.049177289E-1,1.412584335E-1,-5.048652887E-1
1.655541821E1,-7.304205894E-1,2.489202656E-2,-5.164713860E-1
1.656458368E1,-7.230904698E-1,-3.603998944E-2,-5.109737515E-1
1.657373634E1,-6.722373962E-1,9.162708884E-4,-5.063923597E-1
1.658288904E1,-5.974085927E-1,1.165191159E-1,-5.179984570E-1
1.659204175E1,-5.056288242E-1,1.878355294E-1,-5.291464329E-1
1.660119441E1,-3.779617548E-1,1.771457046E-1,-5.117372870E-1
1.661034712E1,-1.966928244E-1,1.378987730E-1,-4.578300118E-1
1.661949983E1,3.206948191E-2,1.650814712E-1,-3.891097009E-1
1.662865253E1,2.724378705E-1,2.820587158E-1,-3.277195692E-1
1.663780519E1,4.914266169E-1,4.578300118E-1,-2.852656841E-1
1.664695790E1,6.913263798E-1,6.390989423E-1,-2.535016239E-1
1.665611061E1,9.002361298E-1,7.649334669E-1,-2.295258641E-1
1.666526326E1,1.101052165E0,8.345700502E-1,-1.951656938E-1
1.667441597E1,1.292400122E0,8.431219459E-1,-1.217113137E-1
1.668356868E1,1.470156670E0,8.060129285E-1,2.550287358E-2
1.669272139E1,1.591867924E0,8.315158486E-1,2.076880634E-1
1.670187404E1,1.642415524E0,9.510892034E-1,4.106420577E-1
1.671102675E1,1.646844268E0,1.023169160E0,6.694886088E-1
1.672016670E1,1.643942714E0,8.730534315E-1,9.492566586E-1
1.672933212E1,1.652189136E0,3.368822634E-1,1.131136417E0
1.673848483E1,1.678150177E0,-6.113054156E-1,1.221847177E0
1.674762477E1,1.780467033E0,-1.608360887E0,1.228719234E0
1.675679024E1,2.058555365E0,-2.343973637E0,1.152363300E0
1.676594290E1,2.463241577E0,-2.734457731E0,1.005301833E0
1.677508285E1,2.836622000E0,-2.835094929E0,8.315158486E-1
1.678424832E1,3.051792860E0,-2.865331888E0,7.065975666E-1
1.679340097E1,3.109670639E0,-2.913588762E0,6.919372082E-1
1.680254092E1,3.050571203E0,-2.929165363E0,7.281299233E-1
1.681170639E1,2.888544083E0,-2.872203827E0,7.220214605E-1
1.682085910E1,2.689407825E0,-2.705747843E0,6.759024858E-1
1.682999904E1,2.516996145E0,-2.436211586E0,6.323796511E-1
1.683916446E1,2.392383337E0,-2.079018593E0,6.390989423E-1
1.684831717E1,2.331909418E0,-1.675859451E0,7.014053464E-1
1.685745712E1,2.325648308E0,-1.161984205E0,7.980719209E-1
1.686662253E1,2.312667608E0,-5.095993280E-1,9.153546095E-1
1.687577524E1,2.288386583E0,1.018587798E-1,1.012479305E0
1.688491519E1,2.217833757E0,6.032116413E-1,1.057376623E0
1.689408061E1,2.079782248E0,1.014006495E0,1.077381849E0
1.690323332E1,1.928139329E0,1.273158431E0,1.097539783E0
1.691237326E1,1.790546060E0,1.299424887E0,1.109298587E0
1.692153873E1,1.664864182E0,1.085170150E0,1.089140654E0
1.693069139E1,1.581025362E0,6.991146803E-1,1.017976999E0
1.693983134E1,1.544069171E0,2.641914487E-1,9.086353183E-1
1.694899680E1,1.540404081E0,-1.659977436E-1,7.820371985E-1
1.695814946E1,1.548650503E0,-5.522059202E-1,6.497887969E-1
1.696728941E1,1.560103893E0,-8.774821162E-1,5.193728805E-1
1.697645488E1,1.567586780E0,-1.117086887E0,4.017847776E-1
1.698560759E1,1.540251374E0,-1.251931429E0,3.058817685E-1
1.699474748E1,1.470767498E0,-1.294996142E0,2.333436459E-1
1.700391295E1,1.358218908E0,-1.231009960E0,1.568350345E-1
1.701306566E1,1.200925708E0,-1.125486016E0,9.330692142E-2
1.702220561E1,1.025307178E0,-1.034927964E0,5.482354015E-2
1.703137102E1,8.481613994E-1,-9.142856598E-1,8.857285604E-3
1.704052373E1,6.470399499E-1,-6.586460471E-1,-3.726168349E-2
1.704967644E1,4.216373265E-1,-3.326063454E-1,-5.375456065E-2
1.705882910E1,2.023431510E-1,-6.536065787E-2,-5.008947477E-2
1.706798181E1,1.893626526E-2,1.682884246E-1,-4.596625641E-2
1.707713451E1,-1.391204596E-1,4.085040987E-1,-3.206948191E-2
1.708628722E1,-2.713688910E-1,5.686988235E-1,2.290677279E-3
1.709543988E1,-3.594835997E-1,6.084038615E-1,4.260659590E-2
1.710457983E1,-4.019374847E-1,5.224271417E-1,7.956285775E-2
1.711374530E1,-4.080459774E-1,2.982461751E-1,1.090362370E-1
1.712289800E1,-4.159869850E-1,7.711946964E-2,1.061347127E-1
1.713205066E1,-4.740174711E-1,-2.733541466E-2,6.795676053E-2
1.714120337E1,-5.810684562E-1,-4.459185153E-2,1.404948719E-2
1.715035608E1,-6.730009913E-1,-7.162184268E-2,-5.008947477E-2
1.715950873E1,-7.485933304E-1,-1.320957243E-1,-9.452861547E-2
1.716866144E1,-8.319739699E-1,-1.834068894E-1,-1.036913246E-1
1.717781415E1,-9.066500664E-1,-2.330382317E-1,-1.096470803E-1
1.718696686E1,-9.854493141E-1,-2.489202619E-1,-1.217113137E-1
1.719611951E1,-1.075396657E0,-2.351761907E-1,-1.389677525E-1
1.720527222E1,-1.133885264E0,-2.377723008E-1,-1.638597846E-1
1.721442493E1,-1.149156451E0,-2.283041626E-1,-2.005106062E-1
1.722357759E1,-1.141673565E0,-1.592784226E-1,-2.451024652E-1
1.723273030E1,-1.131289124E0,-6.001574174E-2,-2.890834510E-1
1.724188300E1,-1.137855768E0,-1.527118147E-3,-3.098522723E-1
1.725103571E1,-1.187334418E0,7.635590737E-4,-2.816005945E-1
1.726018837E1,-1.272853017E0,-4.718795046E-2,-2.125748396E-1
1.726934108E1,-1.428924441E0,-1.152974218E-1,-1.574458778E-1
1.727849378E1,-1.595991135E0,-3.619270027E-2,-1.666085869E-1
1.728764649E1,-1.558576822E0,2.269297540E-1,-2.702999115E-1
1.729678639E1,-1.373948216E0,6.575770974E-1,-3.651339412E-1
1.730595186E1,-1.365549088E0,8.191461563E-1,-3.756710589E-1
1.731510457E1,-1.434422135E0,6.791094542E-1,-3.845283389E-1
1.732424451E1,-1.569266558E0,8.264763355E-1,-4.204156399E-1
1.733340993E1,-1.712357521E0,7.259919643E-1,-4.836383164E-1
1.734256264E1,-1.592173338E0,4.256078303E-1,-4.483618736E-1
1.735170259E1,-1.378071427E0,4.782933891E-1,-3.113794029E-1
1.736086800E1,-1.367228866E0,6.696413159E-1,-2.338017821E-1
1.737002071E1,-1.440530539E0,7.484406233E-1,-2.509055138E-1
1.737916066E1,-1.408155680E0,7.284353375E-1,-2.756448388E-1
1.738832613E1,-1.316986680E0,5.121954083E-1,-2.858765125E-1
1.739747878E1,-1.257734537E0,1.730224788E-1,-3.121429384E-1
1.740661873E1,-1.237576604E0,-5.207473040E-2,-3.735330999E-1
1.741578420E1,-1.234827757E0,-1.771457046E-1,-4.607315361E-1
1.742493686E1,-1.190388560E0,-3.055763543E-1,-5.256340504E-1
1.743407680E1,-1.124875188E0,-3.923166394E-1,-5.299099684E-1
1.744324227E1,-1.034164429E0,-4.184303582E-1,-4.822639227E-1
1.745239498E1,-9.506310225E-1,-3.416163325E-1,-4.280512035E-1
1.746153488E1,-8.915315866E-1,-1.346918195E-1,-4.045335948E-1
1.747070035E1,-7.927270532E-1,5.100574717E-2,-4.059080184E-1
1.747985306E1,-6.719319820E-1,1.875301152E-1,-3.799470067E-1
1.748900576E1,-6.282563806E-1,4.402681589E-1,-3.115321100E-1
1.749815842E1,-6.633801460E-1,6.827745438E-1,-2.295258641E-1
1.750731113E1,-7.171346545E-1,8.608365059E-1,-1.688992679E-1
1.751646384E1,-7.350019813E-1,1.015686274E0,-1.551551968E-1
1.752561649E1,-7.504258752E-1,1.148087382E0,-1.834068894E-1
1.753476920E1,-7.643226385E-1,1.146713018E0,-2.305948436E-1
1.754392191E1,-7.490514517E-1,1.044701576E0,-2.597627938E-1
1.755307462E1,-7.559235096E-1,9.090934396E-1,-2.632751763E-1
1.756222727E1,-8.023478985E-1,7.826480269E-1,-2.495311052E-1
1.757137998E1,-8.194515705E-1,5.506787896E-1,-2.189887464E-1
1.758053269E1,-8.200624585E-1,2.603736520E-1,-1.881409585E-1
1.758968535E1,-8.478559852E-1,4.291202128E-2,-1.626380831E-1
1.759883806E1,-8.771766424E-1,-7.941014320E-2,-1.449235082E-1
1.760799076E1,-9.229902029E-1,-1.252236813E-1,-1.313321590E-1
1.761714347E1,-9.439117312E-1,-1.915006191E-1,-1.307213157E-1
1.762628342E1,-9.303203821E-1,-1.217113137E-1,-1.325538605E-1
1.763544884E1,-9.555178285E-1,6.108472589E-4,-1.284306347E-1
1.764460154E1,-1.006829023E0,1.495048702E-1,-1.180462316E-1
1.765375425E1,-1.047603011E0,3.633013964E-1,-1.104106456E-1
1.766290691E1,-1.082421303E0,5.451811552E-1,-1.175880954E-1
1.767205962E1,-1.137092113E0,6.620057225E-1,-1.168245375E-1
1.768121233E1,-1.218487620E0,8.721371889E-1,-1.127013192E-1
1.769036498E1,-1.265217423E0,1.076465607E0,-1.235438585E-1
1.769951769E1,-1.291025639E0,1.223832488E0,-1.605001241E-1
1.770867040E1,-1.287513256E0,1.270104170E0,-2.124221325E-1
1.771782311E1,-1.252694964E0,1.259719729E0,-2.689255178E-1
1.772697576E1,-1.258803487E0,1.278197885E0,-3.269560039E-1
1.773611571E1,-1.264759302E0,1.141673565E0,-3.843756318E-1
1.774528118E1,-1.290720224E0,9.630007148E-1,-4.424061179E-1
1.775443384E1,-1.335159421E0,7.869240046E-1,-4.847072959E-1
1.776358655E1,-1.264453769E0,6.210789680E-1,-5.189147592E-1
1.777273925E1,-1.129151106E0,4.482091665E-1,-5.465555787E-1
1.778189196E1,-1.103648305E0,1.614163816E-1,-5.583143830E-1
1.779104462E1,-1.152516007E0,-1.791309565E-1,-5.456393361E-1
1.780019733E1,-1.193137407E0,-4.749337435E-1,-5.077667832E-1
1.780935003E1,-1.231315374E0,-6.416950226E-1,-4.547757804E-1
1.781848998E1,-1.223832488E0,-7.040014863E-1,-3.833066523E-1
1.782765540E1,-1.160304427E0,-7.313368917E-1,-3.083251417E-1
1.783680811E1,-1.092194915E0,-7.256865501E-1,-2.571666837E-1
1.784594806E1,-1.023169160E0,-6.658235192E-1,-2.432699203E-1
1.785511347E1,-9.332218766E-1,-5.656445622E-1,-2.677038014E-1
1.786426618E1,-8.507575393E-1,-3.921639323E-1,-3.130592108E-1
1.787341889E1,-7.377507687E-1,-1.252236813E-1,-3.552076817E-1
1.788257160E1,-5.885513425E-1,2.208212912E-1,-3.813214004E-1
1.789172425E1,-4.618005157E-1,5.325061083E-1,-3.823903799E-1
1.790087696E1,-3.269560039E-1,7.443174124E-1,-3.414636254E-1
1.791002967E1,-1.794363856E-1,9.630007148E-1,-2.733541429E-1
1.791918238E1,-2.305948362E-2,1.305991411E0,-1.962346882E-1
1.792832227E1,1.747023165E-1,1.697086453E0,-1.149920002E-1
1.793748774E1,4.446968138E-1,1.915464282E0,-7.024743594E-3
1.794664045E1,7.765395641E-1,1.765195847E0,1.151447073E-1
1.795578040E1,1.074327588E0,1.224901438E0,2.134911120E-1
1.796494582E1,1.338213682E0,5.428904891E-1,3.104631305E-1
1.797409852E1,1.563921690E0,-2.137965411E-1,4.170559645E-1
1.798323847E1,1.738318563E0,-1.030193925E0,5.231906772E-1
1.799240389E1,1.880798697E0,-1.769777179E0,6.077930331E-1
1.800155660E1,2.036564827E0,-2.195843220E0,6.649072170E-1
1.801069655E1,2.235548258E0,-2.346722364E0,6.980457306E-1
1.801986201E1,2.461409092E0,-2.247459888E0,7.148439884E-1
1.802901467E1,2.651687860E0,-1.946312070E0,7.288935184E-1
1.803815462E1,2.753394127E0,-1.544832706E0,7.501204610E-1
1.804732009E1,2.753546715E0,-1.163816690E0,7.711946368E-1
1.805647280E1,2.684062958E0,-8.915315866E-1,7.753179073E-1
1.806561269E1,2.592130423E0,-7.488987446E-1,7.629482150E-1
1.807477816E1,2.488591671E0,-6.696413159E-1,7.420266867E-1
1.808393087E1,2.381235361E0,-5.728220344E-1,7.278245091E-1
1.809308358E1,2.300603390E0,-5.163186193E-1,7.333221436E-1
1.810223623E1,2.244710922E0,-4.903576374E-1,7.511894107E-1
1.811138894E1,2.192636251E0,-3.880407214E-1,7.782194018E-1
1.812054165E1,2.160261393E0,-2.342599183E-1,8.108997345E-1
1.812969430E1,2.155221939E0,-1.551551968E-1,8.412894011E-1
1.813884701E1,2.153694630E0,-1.298050433E-1,8.510629535E-1
1.814799972E1,2.168965816E0,-4.428642616E-2,8.406785131E-1
1.815715238E1,2.215390205E0,8.521319181E-2,8.188407421E-1
1.816630509E1,2.237686157E0,1.539335102E-1,7.994463444E-1
1.817545780E1,2.192025423E0,1.676775664E-1,7.973083854E-1
1.818461050E1,2.086501598E0,1.550024897E-1,8.276980519E-1
1.819376321E1,1.942036152E0,1.566823274E-1,8.736643195E-1
1.820290311E1,1.805053592E0,1.687465608E-1,8.977927566E-1
1.821206858E1,1.704416513E0,1.365243644E-1,8.739697337E-1
1.822122128E1,1.639514089E0,3.374931216E-2,8.124268651E-1
1.823036118E1,1.597365618E0,-9.376505762E-2,7.218687534E-1
1.823952665E1,1.566212416E0,-2.304421216E-1,6.155813336E-1
1.824867936E1,1.534753680E0,-3.810159862E-1,4.993676245E-1
1.825783207E1,1.481762767E0,-5.244123936E-1,3.756710589E-1
1.826698472E1,1.414111376E0,-6.242858768E-1,2.617480457E-1
1.827613743E1,1.336991906E0,-7.175928354E-1,1.824906170E-1
1.828529014E1,1.258498073E0,-8.944330812E-1,1.545443535E-1
1.829444280E1,1.183822036E0,-1.095860004E0,1.426328421E-1
1.830359550E1,1.108687758E0,-1.215433359E0,1.006370857E-1
1.831274821E1,1.010952234E0,-1.213295341E0,4.443913698E-2
1.832190092E1,8.727480173E-1,-1.100594044E0,-9.773556143E-3
1.833105358E1,7.185090780E-1,-9.298622608E-1,-6.169557199E-2
1.834020628E1,5.722111464E-1,-7.554653287E-1,-1.030804738E-1
1.834935899E1,4.521796703E-1,-6.238277555E-1,-1.314848661E-1
1.835851170E1,3.610107303E-1,-5.480827093E-1,-1.426328421E-1
1.836766436E1,2.860292196E-1,-5.071559548E-1,-1.255291104E-1
1.837681706E1,2.182251811E-1,-4.721849263E-1,-8.017370105E-2
1.838596977E1,1.375933439E-1,-4.263713956E-1,-2.886253223E-2
1.839512248E1,1.695101149E-2,-3.251234591E-1,3.206948051E-3
1.840427514E1,-1.209477559E-1,-1.982199401E-1,-2.137965523E-3
1.841342785E1,-2.518217862E-1,-7.925742865E-2,-3.863608837E-2
1.842256780E1,-3.686463237E-1,1.143811494E-1,-7.864658535E-2
1.843173326E1,-4.608842432E-1,2.974826097E-1,-9.162709117E-2
1.844088592E1,-5.277720094E-1,3.323009014E-1,-9.407047927E-2
1.845003863E1,-5.635066032E-1,2.008160353E-1,-9.223793447E-2
1.845919134E1,-5.861079693E-1,3.206948191E-2,-8.750387281E-2
1.846834405E1,-6.192464232E-1,-6.200099736E-2,-8.215895295E-2
1.847749670E1,-6.731536984E-1,-9.926267713E-2,-7.696675509E-2
1.848664941E1,-7.374453545E-1,-7.773031294E-2,-7.986827940E-2
1.849580212E1,-7.878402472E-1,-1.588202827E-2,-8.399149776E-2
1.850495483E1,-8.176190853E-1,6.917845458E-2,-7.696675509E-2
1.851410748E1,-8.276980519E-1,1.499630064E-1,-5.314370990E-2
1.852326019E1,-8.202151656E-1,1.959292591E-1,-2.321219631E-2
1.853241290E1,-8.017370105E-1,1.870719790E-1,1.282779220E-2
1.854156561E1,-7.867712975E-1,1.498102844E-1,5.573981255E-2
1.855071826E1,-7.847860456E-1,9.223793447E-2,1.059819981E-1
1.855987097E1,-7.950177193E-1,4.352286831E-2,1.510319859E-1
1.856902368E1,-8.374716043E-1,3.451287001E-2,1.702736765E-1
1.857817639E1,-8.777875304E-1,6.154286116E-2,1.577513069E-1
1.858731628E1,-8.857285380E-1,1.313321590E-1,1.272089481E-1
1.859648175E1,-8.444963098E-1,2.215848416E-1,1.053711548E-1
1.860563446E1,-7.536327839E-1,2.710634768E-1,9.193251282E-2
1.861477441E1,-7.214106321E-1,2.704526186E-1,6.047387794E-2
1.862393983E1,-7.722636461E-1,2.660239935E-1,2.748812549E-3
1.863309253E1,-8.383878469E-1,2.075353563E-1,-1.137702987E-1
1.864223248E1,-8.515210748E-1,3.020639718E-1,-2.806843221E-1
1.865139795E1,-8.002098799E-1,5.822901726E-1,-4.691306949E-1
1.866055061E1,-7.137750387E-1,3.420744538E-1,-5.850389600E-1
1.866969056E1,-6.281036735E-1,-2.408265322E-1,-5.289937258E-1
1.867885602E1,-7.594358325E-1,-6.067240238E-1,-3.434488773E-1
1.868800868E1,-1.192221165E0,-6.784985662E-1,-1.803526580E-1
1.869714863E1,-1.642720938E0,-4.529432356E-1,-8.353336155E-2
1.870631410E1,-1.752215385E0,-1.627907902E-1,-3.970507067E-3
1.871546681E1,-1.668834686E0,3.115320951E-2,1.314848661E-1
1.872460675E1,-1.546818018E0,-8.811471611E-2,2.484621257E-1
1.873377217E1,-1.469851255E0,-2.993151546E-1,2.845021188E-1
1.874292488E1,-1.523605824E0,-5.682406425E-1,2.660239935E-1
1.875206483E1,-1.568961143E0,-9.782719016E-1,2.220429778E-1
1.876123024E1,-1.459314108E0,-1.231315374E0,1.557660550E-1
1.877038295E1,-1.255749226E0,-1.277739763E0,7.910472155E-2
1.877952290E1,-1.165954709E0,-1.163969398E0,2.046338283E-2
1.878868837E1,-1.225512266E0,-9.503256083E-1,-3.390202299E-2
1.879784102E1,-1.298508525E0,-6.849125028E-1,-9.437590092E-2
1.880698097E1,-1.316833973E0,-3.188622594E-1,-1.650814712E-1
1.881614644E1,-1.315306902E0,1.864611208E-1,-2.472404242E-1
1.882529915E1,-1.360967636E0,7.198835015E-1,-3.437542915E-1
1.883445186E1,-1.404490590E0,1.150225401E0,-4.298837483E-1
1.884360451E1,-1.426328301E0,1.482831717E0,-4.657710493E-1
1.885275722E1,-1.430604339E0,1.737707734E0,-4.567610323E-1
1.886189717E1,-1.410904408E0,1.875301123E0,-4.262186885E-1
1.887106259E1,-1.394258857E0,1.924321532E0,-3.796415627E-1
1.888021530E1,-1.373490095E0,1.856364846E0,-3.446705639E-1
1.888935524E1,-1.348750710E0,1.685327530E0,-3.193204105E-1
1.889852071E1,-1.305685997E0,1.475806952E0,-2.944283783E-1
1.890767337E1,-1.237882018E0,1.250098944E0,-2.638860047E-1
1.891682608E1,-1.184280157E0,9.681929350E-1,-2.247917950E-1
1.892597878E1,-1.159235358E0,6.839962006E-1,-1.933331639E-1
1.893513149E1,-1.136328578E0,4.677563012E-1,-1.936385781E-1
1.894428415E1,-1.133121610E0,3.338280320E-1,-2.295258641E-1
1.895343686E1,-1.165802002E0,2.817533016E-1,-2.730487287E-1
1.896258957E1,-1.163969398E0,3.009949923E-1,-2.956500649E-1
1.897172951E1,-1.118614078E0,3.503209054E-1,-3.167243004E-1
1.898089493E1,-1.063485026E0,3.991886973E-1,-3.359659910E-1
1.899004764E1,-1.064401388E0,5.016583204E-1,-3.446705639E-1
1.899920035E1,-1.122279167E0,6.250494719E-1,-3.443651497E-1
1.900835306E1,-1.159846187E0,7.514948249E-1,-3.319954872E-1
1.901750571E1,-1.130525589E0,8.426637650E-1,-3.043546379E-1
1.902665842E1,-1.050046444E0,8.597674966E-1,-2.738122940E-1
1.903581113E1,-9.610154629E-1,8.167027831E-1,-2.518217862E-1
1.904496384E1,-9.066500664E-1,7.287407517E-1,-2.478512824E-1
1.905411649E1,-8.938222528E-1,6.053496599E-1,-2.542651594E-1
1.906326920E1,-8.611419201E-1,4.756973088E-1,-2.594573796E-1
1.907242191E1,-7.829535007E-1,3.962871730E-1,-2.502946556E-1
1.908157462E1,-7.087355256E-1,3.579564989E-1,-2.290677279E-1
1.909072727E1,-6.936170459E-1,3.344388604E-1,-2.228065431E-1
1.909987998E1,-7.117897868E-1,3.084778786E-1,-2.411319613E-1
1.910903269E1,-7.055285573E-1,3.023693860E-1,-2.619007528E-1
1.911818540E1,-6.702521443E-1,2.794626355E-1,-2.672456801E-1
1.912733806E1,-6.339067221E-1,2.055501044E-1,-2.545706034E-1
1.913649076E1,-6.262711287E-1,1.104106456E-1,-2.299840003E-1
1.914564347E1,-6.780404449E-1,3.268032894E-2,-2.115058601E-1
1.915479618E1,-7.443174124E-1,-3.512371797E-3,-2.015796006E-1
1.916394889E1,-7.540909648E-1,-1.924168877E-2,-1.936385781E-1
1.917310154E1,-7.107207775E-1,-4.443913698E-2,-1.878355294E-1
1.918225425E1,-6.765133142E-1,-9.254335612E-2,-2.015796006E-1
1.919140696E1,-6.960604787E-1,-1.608055383E-1,-2.267770469E-1
1.920055967E1,-7.350019813E-1,-2.073826492E-1,-2.470877171E-1
1.920971233E1,-7.343910933E-1,-2.116585821E-1,-2.538070381E-1
1.921886503E1,-7.136223316E-1,-1.820324808E-1,-2.615953386E-1
1.922801774E1,-6.962131858E-1,-1.139230132E-1,-2.785463631E-1
1.923717045E1,-6.847597957E-1,-6.261184346E-3,-2.932066917E-1
1.924632311E1,-6.858287454E-1,1.052184403E-1,-2.976353168E-1
1.925547582E1,-7.040014863E-1,1.516428292E-1,-2.929012477E-1
1.926462852E1,-6.997255087E-1,1.264453828E-1,-2.641914487E-1
1.927376847E1,-6.438329816E-1,6.413896382E-2,-2.105895877E-1
1.928293389E1,-5.526640415E-1,-2.657185495E-2,-1.458397806E-1
1.929208660E1,-4.599680007E-1,-1.598892659E-1,-9.376505762E-2
1.930123931E1,-4.027010500E-1,-2.990097404E-1,-6.398624927E-2
1.931039201E1,-3.965925872E-1,-4.350759685E-1,-5.344913527E-2
1.931954467E1,-4.456130862E-1,-5.405998230E-1,-5.421269313E-2
1.932869738E1,-5.160132051E-1,-5.346440673E-1,-5.299099907E-2
1.933785009E1,-5.641174316E-1,-3.955236077E-1,-3.329117596E-2
1.934700280E1,-5.793886185E-1,-1.476723254E-1,-3.665083554E-3
1.935615545E1,-5.709894896E-1,1.391204596E-1,1.817270555E-2
1.936530816E1,-5.601469278E-1,3.855973184E-1,1.450762246E-2
1.937446087E1,-5.570927262E-1,5.554128885E-1,-1.740914769E-2
1.938361358E1,-5.543438792E-1,6.865923405E-1,-6.444438547E-2
1.939276628E1,-5.431959033E-1,8.215895891E-1,-1.059819981E-1
1.940191894E1,-5.199837089E-1,9.341381788E-1,-1.255291104E-1
1.941107165E1,-4.830274582E-1,1.007134438E0,-1.198787764E-1
1.942022436E1,-4.315635860E-1,1.026528835E0,-1.072036922E-1
1.942937706E1,-3.602471650E-1,9.785773158E-1,-8.948912472E-2
1.943852972E1,-2.786990702E-1,8.780929446E-1,-7.910472155E-2
1.944768243E1,-1.942494214E-1,7.467607856E-1,-8.582404256E-2
1.945683514E1,-1.275143623E-1,6.021426916E-1,-1.102579311E-1
1.946598785E1,-8.780929446E-2,4.460712075E-1,-1.380514801E-1
1.947514050E1,-9.880454093E-2,3.562766612E-1,-1.502684206E-1
1.948429321E1,-1.488940120E-1,3.180987239E-1,-1.481304616E-1
1.949344592E1,-2.031067163E-1,3.035911024E-1,-1.472141892E-1
1.950259863E1,-2.516690791E-1,3.023693860E-1,-1.597365588E-1
1.951175134E1,-3.023693860E-1,2.696890533E-1,-1.876828223E-1
1.952090399E1,-3.564293683E-1,1.951656938E-1,-2.264716178E-1
1.953005670E1,-4.208737612E-1,1.033858955E-1,-2.579302490E-1
1.953920941E1,-4.822639227E-1,-6.413896102E-3,-2.606790662E-1
1.954836212E1,-5.077667832E-1,-1.207950488E-1,-2.370087355E-1
1.955751477E1,-4.810422063E-1,-2.362451702E-1,-1.927223057E-1
1.956666748E1,-4.066715539E-1,-3.721587062E-1,-1.353026628E-1
1.957582019E1,-2.965663373E-1,-5.283828974E-1,-6.978929788E-2
1.958497290E1,-1.638597846E-1,-6.574243903E-1,3.970507067E-3
1.959412556E1,-2.504473738E-2,-6.948387623E-1,7.207997888E-2
1.960326550E1,9.605573118E-2,-6.131379604E-1,1.157555580E-1
1.961243097E1,1.812689304E-1,-4.231644273E-1,1.435490996E-1
1.962158368E1,2.225011140E-1,-1.591257155E-1,1.681357026E-1
1.963072363E1,2.238755226E-1,1.591257155E-1,1.855448484E-1
1.963988904E1,1.937913001E-1,5.092939138E-1,1.846285909E-1
1.964904175E1,1.490467340E-1,8.380824327E-1,1.620272398E-1
1.965819446E1,1.076618284E-1,1.068677306E0,1.285833418E-1
1.966734717E1,7.192726433E-2,1.166107416E0,8.674030751E-2
1.967649983E1,4.153761268E-2,1.134496093E0,3.649812192E-2
1.968563977E1,2.137965336E-2,1.007134438E0,-1.847812906E-2
1.969480524E1,1.084253844E-2,8.206732869E-1,-6.734590977E-2
1.970395795E1,-5.803049076E-3,6.235223413E-1,-9.101624042E-2
1.971311061E1,-1.969982497E-2,4.529432356E-1,-8.551861346E-2
1.972226332E1,-2.107422985E-2,3.164188862E-1,-6.230641901E-2
1.973141602E1,-2.382304333E-2,1.893626451E-1,-4.077405483E-2
1.974056873E1,-3.237490356E-2,4.825693369E-2,-2.794626169E-2
1.974972139E1,-4.657710344E-2,-9.636115283E-2,-1.328592747E-2
1.975887410E1,-4.566083103E-2,-2.173089087E-1,1.298050396E-2
1.976802680E1,-2.779355086E-2,-3.051182032E-1,3.878879920E-2
1.977717951E1,1.679830020E-3,-3.634541333E-1,5.497625470E-2
1.978633222E1,3.038965166E-2,-4.031592011E-1,5.894676223E-2
1.979548488E1,5.207473040E-2,-4.224008918E-1,5.848862603E-2
1.980463759E1,5.512896553E-2,-4.164451063E-1,5.726693198E-2
1.981379030E1,3.710897267E-2,-3.910949528E-1,5.344913527E-2
1.982294300E1,1.374406368E-2,-3.284831047E-1,4.825693369E-2
1.983209566E1,8.551862091E-3,-2.310529798E-1,4.581354558E-2
1.984124837E1,2.977880463E-2,-1.183516532E-1,4.214845970E-2
1.985040108E1,5.650337040E-2,-7.941014133E-3,3.252761811E-2
1.985955378E1,7.162184268E-2,1.023169160E-1,2.092151903E-2
1.986870649E1,7.696675509E-2,1.992889196E-1,8.093725890E-3
1.987785915E1,7.757759839E-2,2.745758295E-1,-2.901524538E-3
1.988701186E1,7.253811508E-2,3.069507480E-1,-1.099525020E-2
1.989616457E1,5.146388337E-2,3.161134422E-1,-9.926267900E-3
1.990531727E1,1.084253844E-2,3.087832928E-1,-3.512371797E-3
1.991446998E1,-2.443389036E-2,3.087832928E-1,1.038440317E-2
1.992362264E1,-3.558185324E-2,3.003841341E-1,2.748812735E-2