"Time (s)","Gyroscope x (rad/s)","Gyroscope y (rad/s)","Gyroscope z (rad/s)"
8.158557304E0,3.466558084E-2,4.077405483E-2,-1.160609815E-2
8.167709648E0,5.314370990E-2,3.115320951E-2,-1.450762246E-2
8.176861991E0,6.994201243E-2,2.214321308E-2,-1.618745178E-2
8.186014335E0,8.536590636E-2,1.435491070E-2,-1.679829881E-2
8.195166679E0,9.345962852E-2,1.007897966E-2,-1.725643501E-2
8.204319075E0,9.529217333E-2,7.177455351E-3,-1.908897609E-2
8.213471418E0,9.162709117E-2,2.290677279E-3,-2.153236605E-2
8.222623762E0,8.307522535E-2,-2.596100792E-3,-2.580829710E-2
8.231776106E0,7.757759839E-2,-4.428642802E-3,-2.840439789E-2
8.240928450E0,7.391251624E-2,-8.093725890E-3,-3.084778599E-2
8.250080793E0,7.207997888E-2,-1.160609815E-2,-3.268032894E-2
8.259233137E0,6.963659078E-2,-1.649287529E-2,-3.634541109E-2
8.268385481E0,6.795676053E-2,-2.489202656E-2,-4.123219103E-2
8.277537877E0,6.612421572E-2,-2.855710872E-2,-4.550812021E-2
8.286690221E0,6.490252167E-2,-3.222219273E-2,-5.039490014E-2
8.295842564E0,6.490252167E-2,-3.038965166E-2,-5.283828825E-2
8.304994908E0,6.612421572E-2,-2.443389036E-2,-5.283828825E-2
8.314147252E0,6.306997687E-2,-1.832541823E-2,-5.222744122E-2
8.323299596E0,6.108472496E-2,-1.298050396E-2,-5.283828825E-2
8.332451939E0,5.986303091E-2,-7.024743594E-3,-5.650337040E-2
8.341604335E0,5.726693198E-2,-3.054236295E-4,-5.726693198E-2
8.350756679E0,6.047387794E-2,3.054236295E-4,-5.955760926E-2
8.359909023E0,6.169557199E-2,-4.581354558E-3,-5.833591148E-2
8.369061366E0,6.230641901E-2,-3.970507067E-3,-5.589252338E-2
8.378213710E0,5.665608495E-2,1.527118147E-3,-5.360184610E-2
8.387366054E0,5.100574717E-2,1.114796288E-2,-5.238015205E-2
8.396518450E0,4.535540938E-2,2.489202656E-2,-4.871506989E-2
8.405670793E0,4.153761268E-2,3.878879920E-2,-4.459185153E-2
8.414823137E0,3.527642787E-2,5.864133686E-2,-4.214845970E-2
8.423975481E0,3.130592033E-2,7.971556485E-2,-4.092676565E-2
8.433127825E0,3.115320951E-2,1.050657257E-1,-4.275930673E-2
8.442280168E0,3.390202299E-2,1.334701329E-1,-4.703523964E-2
8.451432564E0,4.107947648E-2,1.598892659E-1,-4.764608666E-2
8.460584908E0,4.947862774E-2,1.803526580E-1,-4.947862774E-2
8.469737252E0,6.062658876E-2,1.913478971E-1,-5.299099907E-2
8.478889596E0,7.849387079E-2,1.882936656E-1,-5.726693198E-2
8.488041939E0,9.590301663E-2,1.798945218E-1,-6.627693027E-2
8.497194283E0,1.113269106E-1,1.750077456E-1,-7.284353673E-2
8.506346627E0,1.206423342E-1,1.690519750E-1,-7.757759839E-2
8.515499023E0,1.269035190E-1,1.594311297E-1,-8.063183725E-2
8.524651366E0,1.301104724E-1,1.533226669E-1,-8.246438205E-2
8.533803710E0,1.301104724E-1,1.498102844E-1,-7.941014320E-2
8.542956054E0,1.269035190E-1,1.528645307E-1,-7.391251624E-2
8.552108398E0,1.256818175E-1,1.546970755E-1,-6.413896382E-2
8.561260741E0,1.224748790E-1,1.553079188E-1,-5.436540768E-2
8.570413085E0,1.175880954E-1,1.491994411E-1,-4.703523964E-2
8.579565481E0,1.140757278E-1,1.353026628E-1,-4.413371533E-2
8.588717825E0,1.136175916E-1,1.172826737E-1,-4.703523964E-2
8.597870168E0,1.192679256E-1,1.021642014E-1,-5.253286287E-2
8.607022512E0,1.336228400E-1,8.842013776E-2,-5.741964281E-2
8.616174856E0,1.502684206E-1,8.292251825E-2,-5.726693198E-2
8.625327200E0,1.644706279E-1,7.879929990E-2,-5.100574717E-2
8.634479596E0,1.724116355E-1,7.941014320E-2,-4.245388508E-2
8.643631939E0,1.705790907E-1,8.063183725E-2,-3.512371704E-2
8.652784283E0,1.661504507E-1,7.711946964E-2,-3.023693897E-2
8.661936627E0,1.638597846E-1,6.917845458E-2,-3.023693897E-2
8.671088971E0,1.701209545E-1,6.383354217E-2,-3.023693897E-2
8.680241314E0,1.843231618E-1,5.421269313E-2,-3.252761811E-2
8.689393658E0,2.072299272E-1,4.398100078E-2,-3.054236248E-2
8.698546054E0,2.331909388E-1,2.901524492E-2,-2.611372061E-2
8.707698398E0,2.593046725E-1,9.773556143E-3,-1.740914769E-2
8.716850741E0,2.890834510E-1,-1.847812906E-2,-7.941014133E-3
8.726003085E0,3.200839758E-1,-4.672981426E-2,1.374406274E-3
8.735155429E0,3.523061574E-1,-7.559234649E-2,9.009997360E-3
8.744307773E0,3.851391971E-1,-9.773556143E-2,1.542389300E-2
8.753460168E0,4.173613787E-1,-1.120904684E-1,2.473931387E-2
8.762612512E0,4.537068009E-1,-1.204896197E-1,3.848337755E-2
8.771764856E0,4.993676245E-1,-1.275143623E-1,5.650337040E-2
8.780917200E0,5.548020005E-1,-1.430909634E-1,7.589777559E-2
8.790069543E0,6.166502833E-1,-1.742441803E-1,9.651386738E-2
8.799221887E0,6.847597957E-1,-2.119639963E-1,1.146865711E-1
8.808374231E0,7.597413063E-1,-2.600682080E-1,1.317902952E-1
8.817526627E0,8.403730989E-1,-3.225273490E-1,1.470614821E-1
8.826678971E0,9.278770089E-1,-3.964398801E-1,1.635543555E-1
8.835831314E0,1.027139664E0,-4.793623984E-1,1.850867122E-1
8.844983658E0,1.133885264E0,-5.796940327E-1,2.133384049E-1
8.854136002E0,1.242616057E0,-6.939224601E-1,2.496838123E-1
8.863288346E0,1.347223639E0,-8.327375054E-1,2.895416021E-1
8.872440741E0,1.436712742E0,-9.927794933E-1,3.239017725E-1
8.881593085E0,1.522689462E0,-1.126249671E0,3.562766612E-1
8.890745429E0,1.636612535E0,-1.196344376E0,4.091149569E-1
8.899897773E0,1.783521295E0,-1.252542257E0,4.865398407E-1
8.909050116E0,1.947381020E0,-1.356233597E0,5.677825212E-1
8.918202460E0,2.127275467E0,-1.443584800E0,6.264238358E-1
8.927354804E0,2.308849812E0,-1.437781692E0,6.583406329E-1
8.936507200E0,2.432546616E0,-1.350125194E0,6.713211536E-1
8.945659543E0,2.443236351E0,-1.227802992E0,6.584933400E-1
8.954811887E0,2.361077309E0,-1.113116384E0,6.161921620E-1
8.963964231E0,2.243336678E0,-1.069593549E0,5.347967744E-1
8.973103866E0,2.103452444E0,-1.101510286E0,4.220954478E-1
8.982268918E0,1.942494273E0,-1.160762548E0,3.049654961E-1
8.991421314E0,1.770235300E0,-1.164274931E0,2.214321345E-1
9.000560898E0,1.657228589E0,-1.133885264E0,2.082989216E-1
9.009726002E0,1.636917949E0,-1.090209603E0,2.686200738E-1
9.018878346E0,1.666085839E0,-1.039203882E0,3.726168275E-1
9.028030689E0,1.697697282E0,-9.544488192E-1,4.698942602E-1
9.037183033E0,1.710983157E0,-8.251019120E-1,5.320479870E-1
9.046335429E0,1.706096411E0,-6.864396334E-1,5.581616759E-1
9.055487773E0,1.690519810E0,-5.919110179E-1,5.519005060E-1
9.064640116E0,1.675401330E0,-5.517477989E-1,5.225798488E-1
9.073792460E0,1.669445515E0,-5.621321797E-1,4.894413650E-1
9.082944804E0,1.669140100E0,-5.905365944E-1,4.657710493E-1
9.092097148E0,1.672194362E0,-6.442911625E-1,4.474456310E-1
9.101249543E0,1.668834686E0,-7.430956960E-1,4.291202128E-1
9.110401887E0,1.652952671E0,-8.823688626E-1,4.089622498E-1
9.119554231E0,1.626838923E0,-9.940012097E-1,3.855973184E-1
9.128706575E0,1.590493560E0,-1.047144890E0,3.573456407E-1
9.137858918E0,1.542542100E0,-1.049741030E0,3.332171738E-1
9.147011262E0,1.486649513E0,-9.999569654E-1,3.174878657E-1
9.156163606E0,1.426786542E0,-9.144383669E-1,3.017585576E-1
9.165316002E0,1.366923451E0,-8.243383765E-1,2.841966748E-1
9.174468346E0,1.309503794E0,-7.322531343E-1,2.666348219E-1
9.183620689E0,1.257276416E0,-6.088619828E-1,2.441861928E-1
9.192773033E0,1.212837219E0,-4.559974670E-1,2.186833173E-1
9.201925377E0,1.167023659E0,-3.524588645E-1,2.060082406E-1
9.211077721E0,1.128234863E0,-2.814478874E-1,1.928750277E-1
9.220230064E0,1.087613583E0,-2.141019702E-1,1.876828223E-1
9.229382460E0,1.034164429E0,-1.641651988E-1,1.971509457E-1
9.238534804E0,9.697200060E-1,-1.299577504E-1,1.905843467E-1
9.247687148E0,8.939749599E-1,-1.330119967E-1,1.814216375E-1
9.256839491E0,8.141067028E-1,-1.603474021E-1,1.693574041E-1
9.265991835E0,7.299624681E-1,-1.797417998E-1,1.559187621E-1
9.275144231E0,6.529957056E-1,-1.853921413E-1,1.412584335E-1
9.284296575E0,5.865660906E-1,-1.951656938E-1,1.273616552E-1
9.293448918E0,5.282301903E-1,-2.073826492E-1,1.140757278E-1
9.302601262E0,4.770717025E-1,-2.177670449E-1,1.027750522E-1
9.311753606E0,4.274403751E-1,-2.389939874E-1,9.330692142E-2
9.320905950E0,3.668137789E-1,-2.764083743E-1,9.483403713E-2
9.330058293E0,2.912214398E-1,-3.121429384E-1,9.910997003E-2
9.339210689E0,2.024958730E-1,-3.182514310E-1,1.052184403E-1
9.348363033E0,1.108687744E-1,-2.870981991E-1,1.131594554E-1
9.357515377E0,2.932066843E-2,-2.564031482E-1,1.278197914E-1
9.366667721E0,-4.062134400E-2,-2.504473627E-1,1.455343664E-1
9.375820064E0,-1.001789495E-1,-2.684673667E-1,1.629435122E-1
9.384972408E0,-1.598892659E-1,-2.921377122E-1,1.747023165E-1
9.394124804E0,-2.348707765E-1,-3.132119179E-1,1.852394342E-1
9.403277148E0,-3.095468581E-1,-3.180987239E-1,1.937913001E-1
9.412429491E0,-3.571929336E-1,-2.977880239E-1,1.983726472E-1
9.421581835E0,-3.547495604E-1,-2.910687327E-1,2.038702667E-1
9.430734179E0,-3.071034551E-1,-3.174878657E-1,2.096733153E-1
9.439886523E0,-2.559449971E-1,-3.210002482E-1,2.131856978E-1
9.449038918E0,-2.495311052E-1,-2.751866877E-1,2.119639963E-1
9.458191262E0,-2.820587158E-1,-2.252499312E-1,2.079934925E-1
9.467330846E0,-3.206948042E-1,-2.295258641E-1,1.924168915E-1
9.476495950E0,-3.576510847E-1,-2.973299026E-1,1.672194302E-1
9.485648293E0,-3.854446113E-1,-3.527642787E-1,1.505738497E-1
9.494800637E0,-4.014793634E-1,-3.480302393E-1,1.559187621E-1
9.503953033E0,-4.007157981E-1,-3.032856584E-1,1.742441803E-1
9.513105377E0,-3.889569938E-1,-2.472404242E-1,1.852394342E-1
9.522257721E0,-3.678827584E-1,-1.875301152E-1,1.719534993E-1
9.531410064E0,-3.405473530E-1,-1.298050433E-1,1.336228400E-1
9.540562408E0,-3.078670204E-1,-1.064401343E-1,7.757759839E-2
9.549714804E0,-2.672456801E-1,-1.403421611E-1,1.328592747E-2
9.558867148E0,-2.200577259E-1,-2.163926363E-1,-4.382828996E-2
9.568019491E0,-1.728697717E-1,-3.016058207E-1,-8.612946421E-2
9.577171835E0,-1.334701329E-1,-3.492519259E-1,-1.181989461E-1
9.586324179E0,-9.636115283E-2,-3.468085229E-1,-1.398840249E-1
9.595476523E0,-5.467082933E-2,-3.220692277E-1,-1.499630064E-1
9.604628918E0,-1.618745178E-2,-2.834331393E-1,-1.491994411E-1
9.613781262E0,-1.832541777E-3,-2.380777150E-1,-1.288887709E-1
9.622933606E0,-2.076880634E-2,-2.067717910E-1,-9.926267713E-2
9.632085950E0,-6.688777357E-2,-1.615691036E-1,-7.146912813E-2
9.641238293E0,-1.330119967E-1,-9.284878522E-2,-4.932591692E-2
9.650390637E0,-1.957765520E-1,-3.145863488E-2,-3.573456407E-2
9.659543033E0,-2.392994165E-1,5.344913341E-3,-3.252761811E-2
9.668695377E0,-2.605263591E-1,3.298575059E-2,-2.473931387E-2
9.677847721E0,-2.673983872E-1,4.398100078E-2,-3.054236295E-4
9.687000064E0,-3.035911024E-1,5.971032009E-2,3.848337755E-2
9.696152408E0,-3.886515796E-1,1.241547018E-1,7.635590434E-2
9.705304752E0,-4.984513521E-1,2.458660156E-1,1.120904684E-1
9.714457148E0,-5.935907960E-1,3.982724249E-1,1.375933439E-1
9.723609491E0,-6.354338527E-1,5.248705149E-1,1.560714692E-1
9.732761835E0,-6.274928451E-1,5.839699507E-1,1.750077456E-1
9.741914179E0,-6.325323582E-1,5.250232220E-1,2.086043358E-1
9.751066523E0,-6.939224601E-1,3.985778391E-1,2.547233105E-1
9.760218866E0,-7.669187188E-1,2.797680497E-1,2.732014358E-1
9.769371262E0,-8.041804433E-1,2.538070381E-1,2.570139766E-1
9.778523606E0,-8.263236284E-1,3.271087110E-1,2.391466945E-1
9.787675950E0,-8.626690507E-1,4.007157981E-1,2.382304370E-1
9.796828293E0,-9.223793745E-1,3.849864900E-1,2.463241518E-1
9.805980637E0,-9.979717135E-1,3.486410677E-1,2.574721277E-1
9.815132981E0,-1.054169655E0,3.582619131E-1,2.655658424E-1
9.824285377E0,-1.090056896E0,3.697153032E-1,2.732014358E-1
9.833437721E0,-1.137703061E0,3.810159862E-1,2.808370292E-1
9.842590064E0,-1.169161677E0,3.852919042E-1,2.831276953E-1
9.851742408E0,-1.167481780E0,3.996468186E-1,2.861819267E-1
9.860894752E0,-1.155417562E0,4.366030693E-1,3.009949923E-1
9.870047096E0,-1.158166409E0,4.613423944E-1,3.203893900E-1
9.879199491E0,-1.168550849E0,4.414898455E-1,3.319954872E-1
9.888351835E0,-1.151141644E0,3.469612300E-1,3.407000601E-1
9.897504179E0,-1.116781473E0,2.837385535E-1,3.611634374E-1
9.906656523E0,-1.090056896E0,3.014531136E-1,4.077405334E-1
9.915808866E0,-1.056613088E0,2.608317733E-1,4.543176591E-1
9.924961210E0,-1.017213345E0,1.879882365E-1,4.869979918E-1
9.934113606E0,-9.712471366E-1,6.108472496E-2,5.021164417E-1
9.943265950E0,-9.261971712E-1,-7.757759839E-2,4.958552718E-1
9.952418293E0,-8.890882134E-1,-1.408002973E-1,4.796678126E-1
9.961570637E0,-7.962393761E-1,-1.805053651E-1,4.509579837E-1
9.970722981E0,-6.445965767E-1,-2.250972092E-1,4.063661397E-1
9.979875377E0,-4.860817194E-1,-2.715215981E-1,3.342861533E-1
9.989027721E0,-3.530697227E-1,-2.860292196E-1,2.386885732E-1
9.998180064E0,-2.344126403E-1,-2.127275616E-1,1.392731816E-1
1.000733241E1,-1.027750522E-1,-1.291942000E-1,4.611896724E-2
1.001647199E1,3.512371797E-3,1.343864016E-2,-2.580829710E-2
1.002563710E1,6.841489673E-2,2.128802687E-1,-8.108997345E-2
1.003478949E1,9.025268257E-2,4.332434237E-1,-1.275143623E-1
1.004394184E1,6.383354217E-2,7.104153633E-1,-1.615691036E-1
1.005309418E1,5.451811850E-2,1.003774762E0,-1.702736765E-1
1.006224652E1,8.780929446E-2,1.204590797E0,-1.482831687E-1
1.007139887E1,1.152974218E-1,1.283695459E0,-1.017060652E-1
1.008055126E1,1.354553849E-1,1.276212692E0,-4.535540938E-2
1.008970361E1,1.659977436E-1,1.274532795E0,-7.330167107E-3
1.009884319E1,1.265980899E-1,1.276823521E0,-1.679829881E-2
1.010800829E1,-9.162709117E-3,1.178171635E0,-7.391251624E-2
1.011716064E1,-1.349972486E-1,9.614735842E-1,-1.441599578E-1
1.012631298E1,-1.846285909E-1,7.979192138E-1,-1.791309565E-1
1.013546538E1,-2.141019702E-1,7.715001106E-1,-1.653869003E-1
1.014461772E1,-2.516690791E-1,7.594358325E-1,-1.258345395E-1
1.015377006E1,-2.535016239E-1,6.667397618E-1,-1.014006436E-1
1.016292241E1,-2.567085624E-1,6.119162440E-1,-9.712471068E-2
1.017207475E1,-2.751866877E-1,5.509842038E-1,-1.033858955E-1
1.018122715E1,-3.103103936E-1,5.483881235E-1,-1.120904684E-1
1.019037949E1,-3.596363366E-1,6.093201637E-1,-1.046075895E-1
1.019953184E1,-4.204156399E-1,7.153021693E-1,-8.918370306E-2
1.020868418E1,-4.656183124E-1,8.153283596E-1,-8.231166750E-2
1.021783652E1,-5.010474920E-1,9.869764447E-1,-8.689302206E-2
1.022698892E1,-5.584670901E-1,1.142895222E0,-9.956810623E-2
1.023614126E1,-6.190937161E-1,1.243379593E0,-1.264453828E-1
1.024529361E1,-6.736118197E-1,1.293774486E0,-1.580567211E-1
1.025444595E1,-7.078192830E-1,1.267660737E0,-1.795890927E-1
1.026359829E1,-6.807892919E-1,1.209324837E0,-1.768402755E-1
1.027275064E1,-6.447492838E-1,1.164885759E0,-1.455343664E-1
1.028190303E1,-6.340594292E-1,1.044548869E0,-1.067455560E-1
1.029105538E1,-6.639909744E-1,8.674030900E-1,-9.529217333E-2
1.030020772E1,-7.185090780E-1,7.093463540E-1,-1.194206402E-1
1.030936006E1,-7.991409302E-1,7.131641507E-1,-1.614163816E-1
1.031851241E1,-8.741224408E-1,7.762341499E-1,-1.992889196E-1
1.032766475E1,-8.866447806E-1,8.087617755E-1,-2.269297540E-1
1.033681715E1,-8.655705452E-1,8.170081973E-1,-2.426590770E-1
1.034596949E1,-8.458707333E-1,8.176190853E-1,-2.504473627E-1
1.035512184E1,-8.348754644E-1,8.272398710E-1,-2.576248348E-1
1.036427418E1,-8.127322793E-1,8.356390595E-1,-2.716743052E-1
1.037342658E1,-7.763868570E-1,8.464815617E-1,-2.945810854E-1
1.038257892E1,-7.702783942E-1,8.716790676E-1,-3.232909143E-1
1.039173126E1,-7.933378816E-1,9.203941226E-1,-3.613161445E-1
1.040088361E1,-8.154810667E-1,9.388722181E-1,-4.042281806E-1
1.041003595E1,-8.376243114E-1,9.465078115E-1,-4.422534108E-1
1.041918829E1,-9.064973593E-1,1.009577751E0,-4.756973088E-1
1.042834064E1,-1.049130201E0,1.192373872E0,-4.975350797E-1
1.043749303E1,-1.140299082E0,1.413958669E0,-5.076140761E-1
1.044664538E1,-1.129151106E0,1.604390383E0,-5.118899941E-1
1.045579772E1,-1.117392302E0,1.738165855E0,-5.137225389E-1
1.046495006E1,-1.139993668E0,1.790546060E0,-5.042544007E-1
1.047410241E1,-1.123806238E0,1.766570330E0,-4.845545888E-1
1.048324204E1,-1.030804753E0,1.686091185E0,-4.599680007E-1
1.049240715E1,-9.356653094E-1,1.518718958E0,-4.433223903E-1
1.050155949E1,-8.516737819E-1,1.226581335E0,-4.517215490E-1
1.051069908E1,-7.415685654E-1,8.249492049E-1,-4.504998624E-1
1.051986418E1,-5.726693273E-1,4.564556181E-1,-4.057552814E-1
1.052901658E1,-3.417690396E-1,1.630962193E-1,-3.342861533E-1
1.053815616E1,-1.055238619E-1,-1.586675793E-1,-2.848075330E-1
1.054732126E1,9.498675168E-2,-4.561502039E-1,-2.838912606E-1
1.055647361E1,3.203893900E-1,-6.884248853E-1,-3.156553209E-1
1.056562595E1,6.800256968E-1,-9.049702287E-1,-3.611634374E-1
1.057477829E1,1.153126955E0,-1.068371892E0,-4.059080184E-1
1.058393069E1,1.666544080E0,-1.054933190E0,-4.364503622E-1
1.059307027E1,2.161024809E0,-9.277243018E-1,-4.440859556E-1
1.060223538E1,2.560824394E0,-9.089407325E-1,-4.303418994E-1
1.061138772E1,2.811729908E0,-1.059056401E0,-4.052971601E-1
1.062054012E1,2.930997849E0,-1.197260618E0,-3.681881726E-1
1.062969246E1,2.976353168E0,-1.113879919E0,-3.234436214E-1
1.063884480E1,2.987959385E0,-7.046123147E-1,-2.765611112E-1
1.064799715E1,2.979560137E0,-1.360662282E-1,-2.147128135E-1
1.065714949E1,2.949628592E0,2.896943092E-1,-1.285833418E-1
1.066630184E1,2.930081606E0,3.545968235E-1,-5.497625098E-3
1.067544147E1,2.998954535E0,-1.392731816E-1,1.870719790E-1
1.068460658E1,3.174878597E0,-1.080894232E0,4.882196784E-1
1.069375892E1,3.381345034E0,-2.160261393E0,8.666395545E-1
1.070289850E1,3.489312172E0,-2.987043142E0,1.130067468E0
1.071206361E1,3.493282795E0,-3.290634155E0,1.132663488E0
1.072121600E1,3.490839481E0,-3.266811132E0,9.225320816E-1
1.073035558E1,3.529628277E0,-3.126316309E0,6.198572516E-1
1.073952069E1,3.552076817E0,-2.803788900E0,3.266505599E-1
1.074867303E1,3.508859396E0,-2.288233757E0,1.299577504E-1
1.075781267E1,3.413261652E0,-1.646691442E0,1.044548824E-1
1.076697777E1,3.297811747E0,-9.177979827E-1,2.478512824E-1
1.077613012E1,3.160676479E0,-1.656923145E-1,4.776825607E-1
1.078528246E1,3.005826712E0,4.996730685E-1,7.197307944E-1
1.079443480E1,2.851434946E0,9.921686649E-1,9.448279738E-1
1.080358715E1,2.719339371E0,1.199398637E0,1.148392797E0
1.081272678E1,2.621603727E0,1.237729311E0,1.281404853E0
1.082189189E1,2.543873310E0,1.149156451E0,1.334701300E0
1.083104423E1,2.477138281E0,9.164236188E-1,1.307518601E0
1.084018381E1,2.409792423E0,5.441122055E-1,1.231009960E0
1.084934892E1,2.340308666E0,9.162709117E-2,1.139230132E0
1.085850126E1,2.243183851E0,-3.307738006E-1,1.037371397E0
1.086764090E1,2.113837004E0,-6.887302995E-1,9.019159675E-1
1.087680600E1,1.967539072E0,-1.004080176E0,7.525638342E-1
1.088595835E1,1.820477486E0,-1.250709772E0,6.265766025E-1
1.089509798E1,1.689756274E0,-1.408002973E0,5.268557668E-1
1.090426308E1,1.559340358E0,-1.475348830E0,4.271349311E-1
1.091341543E1,1.427091956E0,-1.515206575E0,3.229855001E-1
1.092255501E1,1.292552829E0,-1.531394124E0,2.334963679E-1
1.093172012E1,1.155722976E0,-1.499935389E0,1.763821393E-1
1.094087246E1,1.008508801E0,-1.423121452E0,1.472141892E-1
1.095001210E1,8.495358229E-1,-1.290872931E0,1.252236813E-1
1.095917720E1,6.734591126E-1,-1.085170150E0,1.108687744E-1
1.096832954E1,4.732539058E-1,-8.240329623E-1,9.712471068E-2
1.097746913E1,2.667875290E-1,-5.442649126E-1,7.467607409E-2
1.098663423E1,8.139539510E-2,-2.631224692E-1,5.787777901E-2
1.099578663E1,-7.452336699E-2,1.252236869E-2,4.199574888E-2
1.100493897E1,-2.092151791E-1,2.597627938E-1,2.611372061E-2
1.101409131E1,-3.254288733E-1,4.500417113E-1,2.214321308E-2
1.102324366E1,-4.172086716E-1,5.764871240E-1,3.619270027E-2
1.103239600E1,-4.850127101E-1,6.343649030E-1,5.390727147E-2
1.104154840E1,-5.282301903E-1,6.308525205E-1,7.925742865E-2
1.105070074E1,-5.410579443E-1,5.392253995E-1,1.049130186E-1
1.105984033E1,-5.706840754E-1,4.705050886E-1,1.070509851E-1
1.106900543E1,-6.400152445E-1,5.094466209E-1,9.315420687E-2
1.107815777E1,-7.623373866E-1,5.370874405E-1,9.407047927E-2
1.108729741E1,-9.266552925E-1,4.266768098E-1,1.278197914E-1
1.109646251E1,-1.100441337E0,1.873773932E-1,1.884463727E-1
1.110561486E1,-1.278503299E0,-4.779879749E-2,2.447970361E-1
1.111475444E1,-1.417318344E0,-1.905843467E-1,2.738122940E-1
1.112391954E1,-1.484053373E0,-2.334963679E-1,2.654131353E-1
1.113307194E1,-1.528492570E0,-1.247655526E-1,2.034121305E-1
1.114221152E1,-1.514901161E0,4.947862774E-2,8.674030751E-2
1.115137663E1,-1.372268319E0,9.498675168E-2,-6.612421572E-2
1.116052897E1,-1.057834744E0,-5.161659420E-2,-2.122694254E-1
1.116966861E1,-6.253548861E-1,-1.832541823E-1,-3.159607351E-1
1.117883371E1,-4.547757804E-1,-1.004843712E-1,-3.196258247E-1
1.118798605E1,-7.084301114E-1,-2.443388999E-1,-2.145601064E-1
1.119712564E1,-9.465078115E-1,-2.889307439E-1,-8.490777016E-2
1.120629074E1,-9.426900148E-1,-8.246437646E-3,3.588727489E-2
1.121544308E1,-1.029277682E0,4.972296655E-1,2.015796006E-1
1.122458272E1,-1.476570487E0,1.106549859E0,3.665083647E-1
1.123374782E1,-1.924932480E0,1.499019146E0,4.643966258E-1
1.124290017E1,-1.872552276E0,1.626380801E0,4.787515402E-1
1.125203975E1,-1.754047871E0,1.631267548E0,4.558447599E-1
1.126120486E1,-1.859571815E0,1.396396875E0,3.892624080E-1
1.127035725E1,-1.925848722E0,8.680139780E-1,2.701472044E-1
1.127949684E1,-1.832694530E0,1.600419879E-1,1.119377613E-1
1.128866194E1,-1.677844763E0,-2.199050188E-1,5.192201585E-3
1.129781428E1,-1.554759026E0,-4.075878263E-1,-4.275931045E-3
1.130695392E1,-1.399451017E0,-6.595623493E-1,8.200624585E-2
1.131611902E1,-1.231620789E0,-8.834378719E-1,2.438807636E-1
1.132527137E1,-1.132052660E0,-8.921424150E-1,4.338542521E-1
1.133441095E1,-1.092805743E0,-8.602256775E-1,5.874823332E-1
1.134357605E1,-1.066997409E0,-8.713735938E-1,6.389462352E-1
1.135272845E1,-1.049893737E0,-8.270871639E-1,5.639647245E-1
1.136186803E1,-1.070204377E0,-6.765133142E-1,3.956763148E-1
1.137103314E1,-1.102426648E0,-4.911212027E-1,1.895153672E-1
1.138018548E1,-1.113116384E0,-2.292204350E-1,-9.773556143E-3
1.138933782E1,-1.137855768E0,1.262926757E-1,-1.530172378E-1
1.139849022E1,-1.164274931E0,3.579564989E-1,-2.225011140E-1
1.140764256E1,-1.157250166E0,5.412106514E-1,-2.225011140E-1
1.141678215E1,-1.153126955E0,7.366818190E-1,-1.725643575E-1
1.142594725E1,-1.128387570E0,7.821899056E-1,-1.076618284E-1
1.143509960E1,-1.068982720E0,7.137750387E-1,-5.833591148E-2
1.144423923E1,-1.036913276E0,6.423059106E-1,-3.603998944E-2
1.145340434E1,-1.013548255E0,5.705313683E-1,-3.100049868E-2
1.146255668E1,-1.009272337E0,5.891621709E-1,-3.771981969E-2
1.147170902E1,-1.033248186E0,6.536065936E-1,-6.658235192E-2
1.148086142E1,-1.058903694E0,6.629219651E-1,-1.259872466E-1
1.149001376E1,-1.083337665E0,7.434011102E-1,-2.014268786E-1
1.149916611E1,-1.120141149E0,8.930587173E-1,-2.597627938E-1
1.150831845E1,-1.138772011E0,9.779664874E-1,-2.922904193E-1
1.151747079E1,-1.145796776E0,1.027903199E0,-3.028275371E-1
1.152662319E1,-1.161678791E0,1.009730577E0,-3.071034551E-1
1.153577553E1,-1.194664478E0,1.039967418E0,-2.964136302E-1
1.154492788E1,-1.224748731E0,1.085780978E0,-2.655658424E-1
1.155408022E1,-1.222763538E0,1.055696726E0,-2.338017821E-1
1.156323256E1,-1.192679286E0,9.817842841E-1,-2.163926363E-1
1.157238496E1,-1.194664478E0,9.956810474E-1,-2.066190839E-1
1.158153730E1,-1.253916740E0,9.298622608E-1,-2.119639963E-1
1.159068965E1,-1.293163657E0,8.562551737E-1,-2.188360244E-1
1.159984199E1,-1.281710267E0,8.857285380E-1,-2.206685692E-1
1.160899434E1,-1.237423778E0,8.177717924E-1,-2.147128135E-1
1.161814673E1,-1.175881028E0,6.884248853E-1,-2.002051920E-1
1.162729908E1,-1.135106921E0,5.914528370E-1,-1.772984117E-1
1.163645142E1,-1.108229637E0,4.674508572E-1,-1.666085869E-1
1.164560376E1,-1.080436110E0,3.257342875E-1,-1.797417998E-1
1.165475616E1,-1.068830013E0,2.846548259E-1,-2.082989216E-1
1.166389574E1,-1.038745761E0,3.009949923E-1,-2.283041626E-1
1.167306085E1,-9.576557875E-1,4.040754735E-1,-2.362451702E-1
1.168221319E1,-8.608365059E-1,4.873034060E-1,-2.612899244E-1
1.169136559E1,-7.963921428E-1,5.577035546E-1,-3.151971996E-1
1.170051793E1,-7.418739796E-1,6.183301210E-1,-3.936910629E-1
1.170967027E1,-6.794148684E-1,7.073611021E-1,-4.836383164E-1
1.171882262E1,-5.984776020E-1,8.017370105E-1,-5.705313683E-1
1.172797496E1,-5.494571328E-1,9.335273504E-1,-6.264238358E-1
1.173712736E1,-5.315898061E-1,1.012479305E0,-6.539120078E-1
1.174627970E1,-4.715740979E-1,1.060736299E0,-6.736118197E-1
1.175543204E1,-3.860554695E-1,1.098761559E0,-6.931589246E-1
1.176458439E1,-3.252761662E-1,1.200620294E0,-7.038487792E-1
1.177373673E1,-3.235963285E-1,1.216196895E0,-7.160657048E-1
1.178288913E1,-3.901786804E-1,1.088835239E0,-7.414158583E-1
1.179204147E1,-4.853181541E-1,9.312366247E-1,-7.841751575E-1
1.180118105E1,-5.448757410E-1,7.183563709E-1,-8.203678727E-1
1.181034616E1,-5.383091569E-1,5.205945969E-1,-8.147175312E-1
1.181949855E1,-4.993676245E-1,4.094203711E-1,-7.502731681E-1
1.182863814E1,-4.439332485E-1,2.195995897E-1,-6.464291215E-1
1.183780324E1,-3.712424338E-1,-9.575030953E-2,-5.407525301E-1
1.184695558E1,-2.793098986E-1,-4.187358022E-1,-4.585935771E-1
1.185609522E1,-1.017060652E-1,-6.733064055E-1,-4.101839364E-1
1.186526033E1,2.183778882E-1,-8.316685557E-1,-3.938437700E-1
1.187441267E1,6.554391384E-1,-8.364025950E-1,-3.883461356E-1
1.188355225E1,1.155417562E0,-7.163711190E-1,-3.726168275E-1
1.189271736E1,1.642568231E0,-4.804313779E-1,-3.478775024E-1
1.190186975E1,2.017323017E0,-1.433963925E-1,-3.174878657E-1
1.191100934E1,2.229287148E0,2.125748396E-1,-2.851129472E-1
1.192017444E1,2.311904192E0,4.485146105E-1,-2.309002578E-1
1.192932678E1,2.332978487E0,5.416688323E-1,-1.478250325E-1
1.193846642E1,2.347333193E0,4.656183124E-1,-2.855710872E-2
1.194763152E1,2.456522226E0,2.255553454E-1,1.574458778E-1
1.195678387E1,2.662530422E0,-2.498365343E-1,4.138490260E-1
1.196592345E1,2.886100531E0,-8.744278550E-1,7.017107606E-1
1.197508855E1,3.033925533E0,-1.588050127E0,9.468132257E-1
1.198424095E1,3.076379538E0,-2.349165916E0,1.071120620E0
1.199338053E1,3.072103500E0,-3.089970827E0,1.015380859E0
1.200254564E1,3.109212637E0,-3.570249557E0,8.272398710E-1
1.201169798E1,3.203283072E0,-3.524588585E0,6.178719997E-1
1.202083762E1,3.323619843E0,-3.039117813E0,4.845545888E-1
1.203000272E1,3.393714666E0,-2.369781971E0,4.503471553E-1
1.203915506E1,3.361034393E0,-1.562089205E0,4.935645759E-1
1.204829465E1,3.231381893E0,-7.496622801E-1,5.879405141E-1
1.205745975E1,3.057748556E0,-6.841489673E-2,7.249229550E-1
1.206661215E1,2.900913715E0,4.453076422E-1,8.913788795E-1
1.207576449E1,2.830818892E0,7.646280527E-1,1.048061132E0
1.208491684E1,2.839981556E0,8.765658140E-1,1.149461865E0
1.209406918E1,2.866858959E0,8.748859763E-1,1.175881028E0
1.210320881E1,2.878770351E0,8.049439788E-1,1.161373377E0
1.211237392E1,2.862888336E0,7.426375747E-1,1.109451294E0
1.212152626E1,2.769886971E0,6.897992492E-1,1.042868972E0
1.213066590E1,2.647412062E0,5.645755529E-1,9.736905098E-1
1.213983095E1,2.524173498E0,3.176405728E-1,9.040539265E-1
1.214898335E1,2.392535925E0,-4.734066129E-2,8.399149776E-1
1.215812293E1,2.262272835E0,-4.427115619E-1,7.153021693E-1
1.216728803E1,2.116127729E0,-8.359444737E-1,5.300627351E-1
1.217644038E1,1.951809645E0,-1.193748236E0,3.428380191E-1
1.218558001E1,1.775580287E0,-1.469393134E0,1.745496094E-1
1.219474512E1,1.584690452E0,-1.637070656E0,4.581354558E-2
1.220389746E1,1.383263588E0,-1.692046881E0,-4.856235534E-2
1.221303704E1,1.170077920E0,-1.664406061E0,-1.207950488E-1
1.222220220E1,9.310839176E-1,-1.578123927E0,-1.762294322E-1
1.223135454E1,6.647545099E-1,-1.412431598E0,-2.125748396E-1
1.224049413E1,3.839175105E-1,-1.174964666E0,-2.293731421E-1
1.224965923E1,1.017060652E-1,-8.867974877E-1,-2.260134816E-1
1.225881158E1,-1.517955512E-1,-5.418215394E-1,-2.066190839E-1
1.226795121E1,-3.527642787E-1,-1.275143623E-1,-1.882936656E-1
1.227711631E1,-5.102101564E-1,3.845283389E-1,-1.592784226E-1
1.228626866E1,-6.479562521E-1,9.510892034E-1,-1.215586066E-1
1.229542100E1,-7.789829373E-1,1.464964390E0,-7.574506104E-2
1.230457340E1,-9.388722181E-1,1.818645000E0,-1.374406368E-2
1.231372574E1,-1.149003744E0,1.855295897E0,4.703523964E-2
1.232286532E1,-1.378224134E0,1.545443535E0,7.498150319E-2
1.233203043E1,-1.591867924E0,1.039967418E0,6.780404598E-2
1.234118282E1,-1.809024215E0,5.851916671E-1,5.131116882E-2
1.235032241E1,-2.051530600E0,2.809897363E-1,1.985253580E-2
1.235948751E1,-2.281514406E0,2.406738251E-1,-4.520269856E-2
1.236863986E1,-2.369781971E0,5.767925382E-1,-1.644706279E-1
1.237777949E1,-2.180724621E0,1.315306902E0,-3.463504016E-1
1.238694460E1,-1.765501261E0,2.061304092E0,-5.296045542E-1
1.239609694E1,-1.309045672E0,1.859724522E0,-6.459710002E-1
1.240523652E1,-1.143964171E0,8.628217876E-2,-6.904101372E-1
1.241440168E1,-1.434574842E0,-1.670972705E0,-5.867187977E-1
1.242355402E1,-1.786728263E0,-1.063790560E0,-1.928750277E-1
1.243269361E1,-1.892862916E0,1.095249176E0,4.338542521E-1
1.244185871E1,-2.026943922E0,1.677081108E0,7.548545003E-1
1.245101105E1,-2.058249950E0,-6.810946763E-2,5.830537081E-1
1.246015069E1,-1.337144613E0,-1.044854283E0,3.098522723E-1
1.246931579E1,-8.015843034E-1,-4.824166298E-1,2.906105816E-1
1.247846814E1,-1.306296825E0,-5.314370990E-2,4.161396921E-1
1.248760772E1,-1.681509733E0,-3.938437700E-1,4.967715442E-1
1.249677288E1,-1.354248405E0,-9.399412274E-1,4.756973088E-1
1.250592522E1,-1.051268101E0,-1.127929449E0,3.755183518E-1
1.251506480E1,-1.132358074E0,-1.030346632E0,2.397575527E-1
1.252422991E1,-1.245670319E0,-8.333483934E-1,1.033858955E-1
1.253338230E1,-1.151141644E0,-6.560499668E-1,-4.275930673E-2
1.254252189E1,-1.086849928E0,-4.256078303E-1,-1.511846930E-1
1.255168699E1,-1.155875683E0,-1.156028435E-1,-2.189887464E-1
1.256083934E1,-1.260788798E0,2.577775419E-1,-2.432699203E-1
1.256997897E1,-1.318361044E0,5.638120174E-1,-2.292204350E-1
1.257914408E1,-1.283542752E0,7.177455425E-1,-1.795890927E-1
1.258829642E1,-1.230246425E0,8.562551737E-1,-9.193251282E-2
1.259743600E1,-1.222305417E0,9.428427219E-1,2.229592577E-2
1.260660111E1,-1.199245930E0,8.661814332E-1,1.250709742E-1
1.261575350E1,-1.153890491E0,6.730009913E-1,1.713426560E-1
1.262489308E1,-1.133579850E0,4.625640810E-1,1.647760421E-1
1.263405819E1,-1.122889996E0,3.161134422E-1,1.302631795E-1
1.264321058E1,-1.116323352E0,1.611109674E-1,8.582404256E-2
1.265236293E1,-1.130831003E0,6.016845629E-2,3.817795217E-2
1.266151527E1,-1.145338655E0,-4.428642802E-3,3.359660041E-3
1.267066762E1,-1.198482275E0,6.261184346E-3,-1.542389300E-2
1.267981996E1,-1.288276911E0,7.116370648E-2,-1.542389300E-2
1.268897236E1,-1.355011940E0,1.482831687E-1,-1.420219894E-2
1.269812470E1,-1.376697063E0,3.029802442E-1,-1.450762246E-2
1.270727704E1,-1.420067191E0,5.380037427E-1,-1.068982668E-2
1.271642939E1,-1.465880752E0,6.952968836E-1,-7.482878864E-3
1.272558178E1,-1.470920205E0,7.742488980E-1,-1.527118147E-4
1.273473413E1,-1.454274654E0,7.744016051E-1,1.099525020E-2
1.274388647E1,-1.457787037E0,7.960866690E-1,2.855710872E-2
1.275303881E1,-1.470462084E0,8.359444737E-1,3.955236077E-2
1.276219121E1,-1.474127173E0,8.423583508E-1,2.718270384E-2
1.277134355E1,-1.488329291E0,8.614473343E-1,-1.130067464E-2
1.278049590E1,-1.499935389E0,8.776348233E-1,-5.848862603E-2
1.278964824E1,-1.514137626E0,9.020686746E-1,-1.044548824E-1
1.279880064E1,-1.547734261E0,9.538379908E-1,-1.346918195E-1
1.280795298E1,-1.559340358E0,1.004996419E0,-1.432436854E-1
1.281710532E1,-1.496423125E0,9.333745837E-1,-1.495048702E-1
1.282625767E1,-1.413347840E0,8.345700502E-1,-1.743968874E-1
1.283541006E1,-1.383416295E0,8.880192041E-1,-2.249445021E-1
1.284456241E1,-1.416707516E0,9.118422270E-1,-2.924431264E-1
1.285371475E1,-1.429993391E0,8.542698622E-1,-3.645231128E-1
1.286286710E1,-1.366465330E0,8.009734750E-1,-4.396573007E-1
1.287201949E1,-1.263842940E0,7.394306064E-1,-5.323534012E-1
1.288117184E1,-1.179240584E0,6.951441765E-1,-6.215370893E-1
1.289032418E1,-1.120293856E0,7.432484031E-1,-6.774296165E-1
1.289947652E1,-1.048213840E0,8.414421082E-1,-7.018635273E-1
1.290862892E1,-9.393303990E-1,9.217684865E-1,-7.012526393E-1
1.291778126E1,-7.913526297E-1,9.854493141E-1,-6.781931520E-1
1.292693361E1,-6.218425035E-1,1.045465112E0,-6.459710002E-1
1.293608595E1,-4.527905285E-1,1.071273327E0,-6.062659025E-1
1.294523835E1,-3.180987239E-1,1.014922738E0,-5.693096519E-1
1.295439069E1,-1.785201132E-1,9.002361298E-1,-5.358657837E-1
1.296354303E1,3.115320951E-2,8.047912717E-1,-5.001311898E-1
1.297269543E1,2.538070381E-1,7.673768401E-1,-4.648547769E-1
1.298184777E1,4.292729199E-1,7.062921524E-1,-4.495835900E-1
1.299100012E1,6.051968932E-1,5.593833923E-1,-4.683671296E-1
1.300015246E1,8.270871639E-1,3.721587062E-1,-5.027272701E-1
1.300930486E1,1.102884769E0,2.073826492E-1,-5.286883116E-1
1.301845720E1,1.424648523E0,7.116370648E-2,-5.282301903E-1
1.302760954E1,1.774511337E0,-5.650337040E-2,-4.993676245E-1
1.303676189E1,2.112309933E0,-1.479777545E-1,-4.578300118E-1
1.304591428E1,2.363673449E0,-2.209739983E-1,-4.266768098E-1
1.305506663E1,2.501266718E0,-2.431172132E-1,-4.202629030E-1
1.306420621E1,2.515163660E0,-1.304158866E-1,-4.312581718E-1
1.307337131E1,2.432852030E0,2.443389036E-2,-3.982724249E-1
1.308252371E1,2.297854662E0,-3.726168349E-2,-2.478512824E-1
1.309166329E1,2.205158710E0,-3.437542915E-1,1.130067464E-2
1.310082840E1,2.227149010E0,-6.925480962E-1,3.359659910E-1
1.310998074E1,2.345348120E0,-1.032637239E0,6.820109487E-1
1.311912038E1,2.467823029E0,-1.456107140E0,9.958337545E-1
1.312828548E1,2.528602123E0,-1.998844981E0,1.193900943E0
1.313743783E1,2.569376230E0,-2.504473686E0,1.184738278E0
1.314657746E1,2.649091959E0,-2.967801332E0,9.732323885E-1
1.315574256E1,2.776606321E0,-3.307585239E0,6.647545099E-1
1.316489491E1,2.913894176E0,-3.300102234E0,3.665083647E-1
1.317403449E1,2.980934620E0,-2.957264185E0,1.493521482E-1
1.318319960E1,2.908243895E0,-2.382762432E0,7.818844914E-2
1.319235199E1,2.766374588E0,-1.624090195E0,1.420219839E-1
1.320149158E1,2.658865452E0,-7.469134927E-1,2.687727809E-1
1.321065668E1,2.575942993E0,1.206423342E-1,4.324798584E-1
1.321980902E1,2.469197273E0,8.118160367E-1,6.155813336E-1
1.322894866E1,2.334047318E0,1.252694964E0,7.621846795E-1
1.323811376E1,2.239671469E0,1.434880257E0,8.388460279E-1
1.324726611E1,2.200729847E0,1.355317354E0,8.704573512E-1
1.325640574E1,2.196301222E0,1.095554590E0,8.693883419E-1
1.326557085E1,2.174768925E0,7.537854910E-1,8.310576677E-1
1.327472319E1,2.117043972E0,4.176668227E-1,7.631009221E-1
1.328386277E1,2.055195570E0,1.232384369E-1,6.876612902E-1
1.329302793E1,2.019002914E0,-1.464506239E-1,6.241331697E-1
1.330218027E1,1.982962966E0,-4.155288339E-1,5.496098399E-1
1.331131986E1,1.933789730E0,-6.804838181E-1,4.651601911E-1
1.332048496E1,1.851783514E0,-9.123004079E-1,3.665083647E-1
1.332963730E1,1.730072141E0,-1.107007980E0,2.631224692E-1
1.333877694E1,1.565907001E0,-1.254680276E0,1.656923145E-1
1.334794204E1,1.372726560E0,-1.322178841E0,8.124268800E-2
1.335709439E1,1.153432369E0,-1.309503794E0,8.246437646E-3
1.336623402E1,9.335273504E-1,-1.223985195E0,-5.635065958E-2
1.337539913E1,7.204943299E-1,-1.071578860E0,-1.232384369E-1
1.338455147E1,5.082249045E-1,-8.797727823E-1,-1.718007922E-1
1.339370381E1,2.864873707E-1,-6.904101372E-1,-1.979145110E-1
1.340285621E1,5.696150661E-2,-5.149442554E-1,-2.040229887E-1
1.341200855E1,-1.638597846E-1,-3.669664860E-1,-1.904316396E-1
1.342116090E1,-3.584146202E-1,-2.593046725E-1,-1.618745178E-1
1.343031324E1,-5.149442554E-1,-1.461452097E-1,-1.264453828E-1
1.343946564E1,-6.658235192E-1,1.043021679E-1,-9.483403713E-2
1.344861798E1,-8.098307252E-1,5.549547076E-1,-6.734590977E-2
1.345777032E1,-9.546015263E-1,1.025612593E0,-3.649812192E-2
1.346692267E1,-1.096928954E0,1.328134656E0,2.031067200E-2
1.347606230E1,-1.178171635E0,1.354248405E0,1.119377613E-1
1.348522741E1,-1.194053650E0,1.077381849E0,2.157817930E-1
1.349437975E1,-1.139688253E0,5.456393361E-1,2.832804024E-1
1.350351939E1,-1.021642089E0,-4.352286831E-2,2.875563502E-1
1.351268449E1,-9.759812355E-1,-3.177932799E-1,2.330382317E-1
1.352183684E1,-1.115712523E0,1.756185852E-2,9.819369763E-2
1.353098918E1,-1.263232112E0,7.638645172E-1,-1.269035190E-1
1.354014158E1,-1.147629261E0,1.327829242E0,-3.481829464E-1
1.354929392E1,-1.257276416E0,9.391776323E-1,-4.488200247E-1
1.355843350E1,-2.006938696E0,-1.540862173E-1,-4.631749392E-1
1.356759861E1,-2.640387297E0,-4.004103839E-1,-3.092414141E-1
1.357675100E1,-2.491798639E0,7.128587365E-1,1.447708011E-1
1.358589059E1,-1.869498014E0,2.070772171E0,7.331694365E-1
1.359505569E1,-1.439308882E0,1.550483108E0,9.636115432E-1
1.360420809E1,-1.179240584E0,1.858502775E-1,7.576032877E-1
1.361334767E1,-1.111742020E0,1.731752008E-1,4.277457893E-1
1.362251277E1,-1.321262598E0,-2.611372061E-2,8.750387281E-2
1.363166512E1,-1.482679009E0,-7.128587365E-1,-2.562504113E-1
1.364080475E1,-1.388303161E0,-9.223793745E-1,-4.092676640E-1
1.364996986E1,-1.075396657E0,-6.134433746E-1,-2.754921019E-1
1.365912220E1,-9.407047629E-1,-8.964183182E-2,1.710372418E-2
1.366826184E1,-1.052184463E0,2.803788781E-1,2.480039895E-1
1.367742694E1,-1.196497083E0,3.956763148E-1,3.139754832E-1
1.368657928E1,-1.304769754E0,4.269822240E-1,2.247917950E-1
1.369571887E1,-1.335617542E0,5.092939138E-1,3.268032894E-2
1.370488397E1,-1.235896707E0,4.900522232E-1,-1.718007922E-1
1.371403637E1,-1.102884769E0,4.323271513E-1,-3.338280320E-1
1.372317595E1,-1.066081166E0,5.062396526E-1,-4.191939235E-1
1.373234105E1,-1.133121610E0,4.741701782E-1,-4.146125913E-1
1.374149340E1,-1.183669329E0,3.642176688E-1,-3.355078697E-1
1.375063303E1,-1.168856263E0,3.646758199E-1,-2.011214644E-1
1.375979814E1,-1.147629261E0,4.141544402E-1,-4.581354558E-2
1.376895048E1,-1.152516007E0,4.117110670E-1,8.170082420E-2
1.377810283E1,-1.150988936E0,3.445178568E-1,1.653869003E-1
1.378725522E1,-1.147476554E0,2.765611112E-1,2.119639963E-1
1.379640756E1,-1.165496588E0,2.168507725E-1,2.130329758E-1
1.380555991E1,-1.181989431E0,2.089097649E-1,1.780619770E-1
1.381471225E1,-1.214517117E0,3.020639718E-1,1.166718230E-1
1.382386465E1,-1.252847672E0,3.498627543E-1,4.566083103E-2
1.383301699E1,-1.285680771E0,4.037700295E-1,-2.672456764E-2
1.384216934E1,-1.325080395E0,4.992149174E-1,-8.872556686E-2
1.385132173E1,-1.365549088E0,5.610632300E-1,-1.342336833E-1
1.386047408E1,-1.424037695E0,5.699204803E-1,-1.670667231E-1
1.386962642E1,-1.486496806E0,5.341859460E-1,-1.754658818E-1
1.387877881E1,-1.515359282E0,4.964661002E-1,-1.408002973E-1
1.388793116E1,-1.479777455E0,4.966188073E-1,-9.834641218E-2
1.389708350E1,-1.422663212E0,5.219689608E-1,-9.315420687E-2
1.390623585E1,-1.412126184E0,5.893148780E-1,-1.192679256E-1
1.391538824E1,-1.462826490E0,7.012526393E-1,-1.575985998E-1
1.392454058E1,-1.517191887E0,7.884510756E-1,-1.983726472E-1
1.393369293E1,-1.500393629E0,8.666395545E-1,-2.386885732E-1
1.394284527E1,-1.427550077E0,9.546015263E-1,-2.796153426E-1
1.395199767E1,-1.364632726E0,1.034164429E0,-3.129065037E-1
1.396115001E1,-1.380056620E0,1.117086887E0,-3.503209054E-1
1.397030236E1,-1.428008199E0,1.054169655E0,-3.970507085E-1
1.397945470E1,-1.424648523E0,8.907679915E-1,-4.231644273E-1
1.398860710E1,-1.335922956E0,8.354863524E-1,-4.169032574E-1
1.399775944E1,-1.240630746E0,8.556442857E-1,-3.985778391E-1
1.400691178E1,-1.208714008E0,8.617527485E-1,-3.935383558E-1
1.401606413E1,-1.173437595E0,8.527427912E-1,-4.078932703E-1
1.402521652E1,-1.099830508E0,7.682931423E-1,-4.482091665E-1
1.403436887E1,-9.885035753E-1,5.404471159E-1,-5.016583204E-1
1.404352121E1,-8.854231238E-1,2.591519356E-1,-5.239542127E-1
1.405266085E1,-8.023478985E-1,-2.809897438E-2,-4.747810364E-1
1.406182595E1,-7.791357040E-1,-1.838650256E-1,-3.952181637E-1
1.407097829E1,-8.177717924E-1,-1.559187621E-1,-3.545968235E-1
1.408011793E1,-8.544226289E-1,-4.107947648E-2,-3.909422457E-1
1.408928303E1,-8.477032781E-1,1.568350345E-1,-4.789042473E-1
1.409843538E1,-8.067765236E-1,3.126010895E-1,-5.685460567E-1
1.410758772E1,-7.751652002E-1,3.811686933E-1,-6.343649030E-1
1.411674012E1,-7.565343380E-1,4.564556181E-1,-6.592568755E-1
1.412589246E1,-7.432484031E-1,5.444176197E-1,-6.482616663E-1
1.413503204E1,-7.414158583E-1,6.013791561E-1,-6.042806506E-1
1.414419720E1,-7.302678823E-1,6.358919740E-1,-5.431959033E-1
1.415334954E1,-6.789567471E-1,6.513158679E-1,-4.842491746E-1
1.416248913E1,-5.920637250E-1,6.305471063E-1,-4.311054647E-1
1.417165423E1,-4.578300118E-1,6.219952106E-1,-3.813214004E-1
1.418080663E1,-2.712161839E-1,6.265766025E-1,-3.396310806E-1
1.418994621E1,-4.611896724E-2,6.036698222E-1,-3.130592108E-1
1.419911131E1,2.309002578E-1,5.528167486E-1,-2.970244884E-1
1.420826366E1,5.522059202E-1,3.985778391E-1,-2.841966748E-1
1.421741605E1,8.761076927E-1,1.484358907E-1,-2.512109280E-1
1.422656840E1,1.193595529E0,-9.972081333E-2,-2.053973973E-1
1.423572074E1,1.489551067E0,-2.869454920E-1,-1.391204596E-1
1.424487314E1,1.744579792E0,-3.687990308E-1,-5.848862603E-2
1.425402548E1,1.965248346E0,-3.391729295E-1,2.305948362E-2
1.426317783E1,2.139187098E0,-1.621799469E-1,8.338065445E-2
1.427231746E1,2.277391195E0,1.598892659E-1,1.122431830E-1
1.428148256E1,2.358939409E0,4.005630910E-1,1.278197914E-1
1.429063491E1,2.407959938E0,4.443913698E-1,2.313583940E-1
1.429977449E1,2.405210972E0,1.711899489E-1,4.709632397E-1
1.430893965E1,2.431935549E0,-4.211791754E-1,7.786775231E-1
1.431809199E1,2.539750099E0,-1.253153205E0,1.081657767E0
1.432723158E1,2.677190781E0,-2.127122879E0,1.322178841E0
1.433639668E1,2.741024256E0,-2.706969738E0,1.412889719E0
1.434554908E1,2.727432966E0,-2.863499165E0,1.308434844E0
1.435468866E1,2.733999729E0,-3.016211033E0,1.079519868E0
1.436385376E1,2.833873034E0,-3.379207134E0,8.087617755E-1
1.437300611E1,3.024304867E0,-3.590254784E0,5.409052372E-1
1.438214574E1,3.182667017E0,-3.566126347E0,3.319954872E-1
1.439131085E1,3.213361979E0,-3.357980013E0,2.257080674E-1
1.440046319E1,3.132119417E0,-2.927332878E0,1.925695986E-1
1.440960282E1,3.010102510E0,-2.200119019E0,2.417428046E-1
1.441876793E1,2.920918941E0,-1.286138892E0,3.443651497E-1
1.442792027E1,2.856932640E0,-3.168770075E-1,4.610369802E-1
1.443707267E1,2.796153307E0,5.138752460E-1,5.845808387E-1
1.444622501E1,2.700097561E0,1.062110662E0,7.185090780E-1
1.445537736E1,2.562504292E0,1.366770744E0,8.547280431E-1
1.446451699E1,2.424911022E0,1.470003963E0,9.591829181E-1
1.447368210E1,2.309918880E0,1.364480019E0,9.964445829E-1
1.448283444E1,2.201493502E0,1.152057886E0,9.781191945E-1
1.449197402E1,2.090013981E0,8.805363178E-1,9.384140968E-1
1.450113918E1,1.970135093E0,5.926745534E-1,8.913788795E-1
1.451029152E1,1.857281089E0,2.800734639E-1,8.315158486E-1
1.451943111E1,1.762752533E0,-7.101099193E-2,7.388197780E-1
1.452859621E1,1.693726778E0,-4.379774928E-1,6.189410090E-1
1.453774861E1,1.614011168E0,-7.760814428E-1,4.940227270E-1
1.454690095E1,1.506960154E0,-1.088835239E0,3.825430870E-1
1.455605329E1,1.372268319E0,-1.370130420E0,2.968717813E-1
1.456520569E1,1.210393786E0,-1.581483603E0,2.414373755E-1
1.457434527E1,1.021031141E0,-1.687465549E0,2.047865391E-1
1.458351038E1,8.299887180E-1,-1.682426095E0,1.821851879E-1
1.459266272E1,6.653653979E-1,-1.588050127E0,1.748550236E-1
1.460180236E1,5.036435723E-1,-1.437781692E0,1.777565479E-1
1.461096746E1,3.373403847E-1,-1.249946237E0,1.924168915E-1
1.462011980E1,1.876828223E-1,-1.067455530E0,2.223484069E-1
1.462927220E1,6.627693027E-2,-8.806890249E-1,2.573194206E-1
1.463842454E1,-4.382828996E-2,-6.462764144E-1,2.985515893E-1
1.464757689E1,-1.559187621E-1,-3.335226178E-1,3.390202224E-1
1.465672923E1,-2.557922900E-1,-1.527118147E-3,3.826957941E-1
1.466588163E1,-3.397837877E-1,2.194468826E-1,3.953709006E-1
1.467503397E1,-4.228590131E-1,2.980934680E-1,3.556658030E-1
1.468418631E1,-4.955498278E-1,3.213056624E-1,3.000787199E-1
1.469333871E1,-5.615213513E-1,3.330644667E-1,2.586938143E-1
1.470249105E1,-6.534538269E-1,3.660502136E-1,2.379250079E-1
1.471164340E1,-7.858549953E-1,4.301891923E-1,2.241809368E-1
1.472079574E1,-9.686510563E-1,4.738647640E-1,2.136438340E-1
1.472994814E1,-1.181684017E0,4.543176591E-1,1.998997629E-1
1.473908772E1,-1.391357303E0,3.387148082E-1,1.820324808E-1
1.474825283E1,-1.547581553E0,2.418955117E-1,1.394258887E-1
1.475740522E1,-1.624548316E0,4.036173224E-1,6.245913357E-2
1.476654480E1,-1.530935884E0,9.686510563E-1,-4.413371533E-2
1.477570991E1,-1.272242069E0,1.595838428E0,-1.685938388E-1
1.478486230E1,-1.073869467E0,1.665016890E0,-3.003841341E-1
1.479400189E1,-1.084101200E0,1.004538298E0,-4.366030693E-1
1.480316699E1,-1.293621778E0,1.229330078E-1,-4.876088202E-1
1.481231939E1,-1.478097677E0,-9.162709117E-2,-2.811424434E-1
1.482145897E1,-1.413653255E0,6.351284385E-1,1.591257155E-1
1.483062408E1,-1.491688967E0,1.482984424E0,5.132644176E-1
1.483977642E1,-1.787339091E0,1.109604001E0,5.083776116E-1
1.484891605E1,-1.754811406E0,9.223793447E-2,3.286358118E-1
1.485808116E1,-1.333021402E0,-4.448495209E-1,2.599155009E-1
1.486723350E1,-1.267966151E0,-2.365505993E-1,3.359659910E-1
1.487637314E1,-1.540098667E0,3.405473381E-2,4.364503622E-1
1.488553824E1,-1.659824729E0,8.276980370E-2,5.015056133E-1
1.489469059E1,-1.537960649E0,-1.863084137E-1,5.160132051E-1
1.490383022E1,-1.354553819E0,-5.375455618E-1,4.564556181E-1
1.491299532E1,-1.312252641E0,-7.421793938E-1,3.471139669E-1
1.492214767E1,-1.353179336E0,-8.084563613E-1,2.203631550E-1
1.493128725E1,-1.307213187E0,-7.786775231E-1,8.826743066E-2
1.494045241E1,-1.207186937E0,-5.987830162E-1,-3.573456407E-2
1.494960475E1,-1.131289124E0,-3.484883606E-1,-1.441599578E-1
1.495874434E1,-1.094332814E0,-1.021642014E-1,-2.118112892E-1
1.496790944E1,-1.108840466E0,1.521009654E-1,-2.182251811E-1
1.497706184E1,-1.146254897E0,4.527905285E-1,-1.789782494E-1
1.498621418E1,-1.229635477E0,7.114843726E-1,-1.029277667E-1
1.499536652E1,-1.293010950E0,8.852704167E-1,-2.535016090E-2
1.500451892E1,-1.290262103E0,1.036760569E0,2.412846684E-2
1.501365850E1,-1.261552334E0,1.059667230E0,4.199574888E-2
1.502282361E1,-1.211920977E0,9.608627558E-1,7.024743594E-3
1.503197595E1,-1.151447058E0,7.823426127E-1,-8.704573661E-2
1.504112835E1,-1.111894727E0,6.342121959E-1,-2.113531530E-1
1.505028069E1,-1.101662993E0,5.656445622E-1,-3.313846290E-1
1.505943303E1,-1.082574010E0,5.442649126E-1,-4.210264683E-1
1.506858543E1,-1.050046444E0,5.144860744E-1,-4.709632397E-1
1.507773777E1,-1.053558826E0,5.138752460E-1,-4.880669713E-1
1.508689012E1,-1.097081661E0,5.415160656E-1,-4.804313779E-1
1.509604251E1,-1.085170150E0,5.163186193E-1,-4.674508572E-1
1.510519486E1,-1.075091124E0,6.206207871E-1,-4.564556181E-1
1.511434720E1,-1.113269091E0,8.243383765E-1,-4.569137394E-1
1.512349960E1,-1.139688253E0,9.663603902E-1,-4.657710493E-1
1.513265194E1,-1.142895222E0,1.128387570E0,-4.811949134E-1
1.514180428E1,-1.182447553E0,1.351804972E0,-4.876088202E-1
1.515095663E1,-1.274838209E0,1.546970725E0,-4.928010404E-1
1.516010902E1,-1.403421521E0,1.666696787E0,-4.943281412E-1
1.516926137E1,-1.517955422E0,1.634016395E0,-4.731011987E-1
1.517840095E1,-1.538418770E0,1.506502032E0,-4.225535989E-1
1.518756611E1,-1.402963400E0,1.414111376E0,-3.762819171E-1
1.519671845E1,-1.233605981E0,1.429382563E0,-3.654393852E-1
1.520585803E1,-1.149919987E0,1.455954432E0,-3.898732662E-1
1.521502319E1,-1.107160687E0,1.310114622E0,-4.114056230E-1
1.522417553E1,-1.031873703E0,1.012632012E0,-4.063661397E-1
1.523332788E1,-9.660549164E-1,8.176190853E-1,-3.941491842E-1
1.524248022E1,-9.944593310E-1,6.149705052E-1,-4.052971601E-1
1.525163262E1,-1.084253907E0,3.332171738E-1,-4.343124032E-1
1.526078496E1,-1.118308663E0,2.209739983E-1,-4.686725736E-1
1.526993730E1,-1.073105931E0,2.864873707E-1,-5.007420182E-1
1.527908970E1,-1.010494113E0,3.800997138E-1,-5.120427012E-1
1.528822928E1,-9.961391687E-1,3.655920923E-1,-4.960079789E-1
1.529739439E1,-1.024238110E0,3.066453338E-1,-4.637857676E-1
1.530654678E1,-1.034469843E0,3.436015844E-1,-4.254551232E-1
1.531569913E1,-1.017976999E0,4.822639227E-1,-3.930802047E-1
1.532485147E1,-1.001484036E0,6.354338527E-1,-3.833066523E-1
1.533400381E1,-1.005454540E0,7.336275578E-1,-3.956763148E-1
1.534315621E1,-1.002705812E0,7.178982496E-1,-4.309527278E-1
1.535230855E1,-9.726215601E-1,6.164975762E-1,-4.862344265E-1
1.536146090E1,-9.371923804E-1,4.789042473E-1,-5.457920432E-1
1.537061329E1,-9.118422270E-1,3.439069986E-1,-5.699204803E-1
1.537976564E1,-8.875610828E-1,2.258607745E-1,-5.447230339E-1
1.538891798E1,-8.431219459E-1,2.008160353E-1,-4.984513521E-1
1.539805762E1,-7.449282408E-1,3.017585576E-1,-4.624113739E-1
1.540722272E1,-5.877877474E-1,4.268295169E-1,-4.382829070E-1
1.541637506E1,-3.707842827E-1,4.892886579E-1,-3.988832533E-1
1.542551470E1,-1.073564067E-1,4.853181541E-1,-3.219164908E-1
1.543467980E1,1.924168915E-1,4.126273096E-1,-2.086043358E-1
1.544383215E1,5.149442554E-1,2.654131353E-1,-8.353336155E-2
1.545298449E1,8.286142945E-1,9.284878522E-2,1.282779220E-2
1.546213689E1,1.125486016E0,-5.360184610E-2,7.727217674E-2
1.547128923E1,1.419609070E0,-1.528645307E-1,1.331647038E-1
1.548044158E1,1.730530262E0,-1.569877416E-1,1.977618039E-1
1.548959397E1,2.022820711E0,-6.887302548E-2,2.724378705E-1
1.549874631E1,2.267006874E0,2.367033064E-1,3.562766612E-1
1.550788595E1,2.398949862E0,5.911474228E-1,4.588989913E-1
1.551705105E1,2.449192047E0,6.519267559E-1,5.770979524E-1
1.552620340E1,2.483399630E0,1.873773932E-1,7.255338430E-1
1.553534298E1,2.544178724E0,-7.036960125E-1,9.054283500E-1
1.554450814E1,2.668944359E0,-1.725338101E0,1.089751482E0
1.555366048E1,2.853267431E0,-2.482025146E0,1.230246425E0
1.556281283E1,3.043699265E0,-2.770344973E0,1.248877168E0
1.557196522E1,3.161287308E0,-2.774315596E0,1.117697716E0
1.558111756E1,3.229549408E0,-2.724989653E0,9.039012194E-1
1.559025715E1,3.291855812E0,-2.685284615E0,6.875085831E-1
1.559942225E1,3.307432413E0,-2.625879765E0,5.025745630E-1
1.560857465E1,3.272308826E0,-2.421398640E0,3.891097009E-1
1.561771423E1,3.263451576E0,-2.106964827E0,3.565820754E-1
1.562687934E1,3.272766829E0,-1.625311852E0,3.715478480E-1
1.563603173E1,3.212598562E0,-9.859074950E-1,4.078932703E-1
1.564517131E1,3.088138342E0,-3.791834414E-1,4.474456310E-1
1.565433642E1,2.954362869E0,8.551861346E-2,5.121954083E-1
1.566348881E1,2.834789515E0,3.839175105E-1,6.062659025E-1
1.567264116E1,2.732319832E0,5.642701387E-1,7.007945180E-1
1.568179350E1,2.665584803E0,6.223006248E-1,7.649334669E-1
1.569094585E1,2.628781080E0,5.282301903E-1,7.843278646E-1
1.570008548E1,2.582356691E0,3.556658030E-1,7.638645172E-1
1.570925059E1,2.503252029E0,1.812689304E-1,7.262973785E-1
1.571840293E1,2.388870955E0,-2.993151546E-2,6.810947061E-1
1.572754256E1,2.281056404E0,-2.961082160E-1,6.322268844E-1
1.573670767E1,2.207754612E0,-5.453338623E-1,5.573981404E-1
1.574586001E1,2.124832153E0,-7.321004272E-1,4.500417113E-1
1.575499965E1,2.023736954E0,-8.785510659E-1,3.249707520E-1
1.576416475E1,1.903094649E0,-9.852966070E-1,2.075353563E-1
1.577331710E1,1.745648742E0,-1.120141149E0,1.209477559E-1
1.578246949E1,1.546512604E0,-1.228566527E0,6.398624927E-2
1.579162184E1,1.316528559E0,-1.284000993E0,1.969982497E-2
1.580077418E1,1.080283403E0,-1.307365894E0,-1.359135192E-2
1.580992652E1,8.579349518E-1,-1.253611326E0,-4.031591862E-2
1.581907892E1,6.491779089E-1,-1.116628766E0,-7.116370648E-2
1.582823126E1,4.480564594E-1,-9.393303990E-1,-1.062874198E-1
1.583738361E1,2.602209449E-1,-7.307260633E-1,-1.438545287E-1
1.584653600E1,9.132166207E-2,-5.207473040E-1,-1.786728203E-1
1.585568835E1,-5.635065958E-2,-3.222219348E-1,-1.951656938E-1
1.586484069E1,-1.820324808E-1,-1.288887709E-1,-1.705790907E-1
1.587399308E1,-2.973299026E-1,6.337540597E-2,-1.171299592E-1
1.588314543E1,-4.285093546E-1,2.182251811E-1,-4.550812021E-2
1.589229777E1,-5.706840754E-1,2.394521236E-1,2.305948362E-2
1.590145017E1,-7.191199064E-1,1.327065676E-1,8.002099395E-2
1.591060251E1,-8.710681796E-1,1.527118147E-4,1.359135211E-1
1.591974215E1,-1.073716760E0,-1.151447073E-1,1.797417998E-1
1.592890725E1,-1.365549088E0,-1.540862173E-1,1.863084137E-1
1.593805960E1,-1.712815762E0,-4.459185153E-2,1.488940120E-1
1.594721194E1,-2.033968687E0,1.383569092E-1,6.704048812E-2
1.595636434E1,-2.139339924E0,4.010212123E-1,-6.749862432E-2
1.596551668E1,-1.756796718E0,9.422318935E-1,-2.447970361E-1
1.597465626E1,-1.107007980E0,1.363105655E0,-4.217900336E-1
1.598382142E1,-6.627692580E-1,4.624113739E-1,-5.517477989E-1
1.599297376E1,-7.545490861E-1,-1.316375852E0,-6.409314871E-1
1.600211335E1,-1.465117097E0,-1.628213406E0,-6.035171151E-1
1.601127845E1,-2.031677961E0,5.251759291E-1,-2.463241518E-1
1.602043085E1,-1.934400558E0,2.212183237E0,2.171562016E-1
1.602957043E1,-1.826891422E0,1.993194580E0,4.359922409E-1
1.603873553E1,-1.595838428E0,1.043174386E0,4.199574888E-1
1.604788793E1,-1.106549859E0,9.663603902E-1,4.443913698E-1
1.605702751E1,-1.237729311E0,1.383110881E0,5.767925382E-1
1.606619262E1,-1.707012653E0,1.166870952E0,6.652126908E-1
1.607534501E1,-1.689450860E0,5.790832043E-1,6.200099587E-1
1.608448460E1,-1.449693203E0,-2.977880463E-2,4.443913698E-1
1.609364970E1,-1.384332657E0,-4.854708612E-1,2.229592502E-1
1.610280210E1,-1.405254126E0,-7.380561829E-1,3.191677108E-2
1.611194168E1,-1.308129430E0,-8.674030900E-1,-1.102579311E-1
1.612110678E1,-1.154959440E0,-9.827005267E-1,-2.226538211E-1
1.613025918E1,-1.129914761E0,-9.842276573E-1,-3.005368412E-1
1.613939876E1,-1.219098449E0,-7.307260633E-1,-3.167243004E-1
1.614856387E1,-1.282473803E0,-4.167505503E-1,-2.635805905E-1
1.615771626E1,-1.299883008E0,-2.993151546E-2,-1.571404636E-1
1.616686861E1,-1.339740753E0,3.029802442E-1,-1.908897609E-2
1.617602095E1,-1.388608575E0,5.366293192E-1,1.091889441E-1
1.618517329E1,-1.406323075E0,6.829272509E-1,1.988307834E-1
1.619432569E1,-1.408308387E0,7.595885396E-1,2.341072112E-1
1.620347803E1,-1.404337883E0,7.420266867E-1,2.220429778E-1
1.621263043E1,-1.398382068E0,6.375718117E-1,1.768402755E-1
1.622178277E1,-1.393189907E0,5.083776116E-1,1.140757278E-1
1.623093512E1,-1.394411564E0,4.503471553E-1,5.925218388E-2
1.624008746E1,-1.391662717E0,3.718532622E-1,2.626643144E-2
1.624923986E1,-1.396549582E0,3.096995652E-1,1.420219894E-2
1.625839220E1,-1.416707516E0,2.880144715E-1,-4.275931045E-3
1.626754454E1,-1.420372605E0,2.968717813E-1,-4.092676565E-2
1.627669689E1,-1.417776465E0,3.804051280E-1,-8.994726092E-2
1.628584928E1,-1.441599488E0,5.218162537E-1,-1.415638477E-1
1.629500163E1,-1.462215662E0,6.331431866E-1,-1.856975704E-1
1.630415402E1,-1.462521076E0,7.463026643E-1,-2.076880634E-1
1.631330637E1,-1.465117097E0,8.994725943E-1,-1.992889196E-1
1.632245871E1,-1.471683741E0,1.006218195E0,-1.707318127E-1
1.633161111E1,-1.520398855E0,1.130372882E0,-1.333174109E-1
1.634076345E1,-1.589119196E0,1.293774486E0,-9.239064902E-2
1.634991579E1,-1.605764747E0,1.425870180E0,-6.933116168E-2
1.635906819E1,-1.613247633E0,1.495659471E0,-7.559234649E-2
1.636822053E1,-1.663795233E0,1.516581059E0,-9.865183383E-2
1.637737288E1,-1.689298153E0,1.557355046E0,-1.385096163E-1
1.638651251E1,-1.643026471E0,1.564990640E0,-1.840177327E-1
1.639567762E1,-1.593853235E0,1.536586285E0,-2.287622988E-1
1.640482996E1,-1.523758531E0,1.438392639E0,-2.843494117E-1
1.641398230E1,-1.417471051E0,1.306144118E0,-3.758237660E-1
1.642313470E1,-1.380209327E0,1.198482275E0,-4.944808483E-1
1.643228704E1,-1.454580069E0,1.075702071E0,-5.949652195E-1
1.644143939E1,-1.519940734E0,9.765920639E-1,-6.394043565E-1
1.645059178E1,-1.453052878E0,1.004385591E0,-6.395570636E-1
1.645974413E1,-1.290567517E0,1.028819442E0,-6.372663975E-1
1.646889647E1,-1.191152096E0,1.069898963E0,-6.383354068E-1
1.647804887E1,-1.206270576E0,1.049893737E0,-6.452074051E-1
1.648720121E1,-1.218182087E0,9.281824231E-1,-6.445965767E-1
1.649635355E1,-1.137397647E0,8.501466513E-1,-6.183301210E-1
1.650550595E1,-1.032179117E0,8.522846103E-1,-5.937435627E-1
1.651465829E1,-9.579612017E-1,7.631009221E-1,-5.894675851E-1
1.652381064E1,-9.081771374E-1,5.648810267E-1,-6.000047326E-1
1.653296303E1,-8.596147895E-1,3.883461356E-1,-6.252021790E-1
1.654211538E1,-7.927270532E-1,2.961082160E-1,-6.673506498E-1
1.655126772E1,-6.977402568E-1,3.020639718E-1,-7.088882327E-1
1.656042012E1,-5.454866290E-1,3.823903799E-1,-7.145385742E-1
1.656957246E1,-2.987042964E-1,4.746283293E-1,-6.707102656E-1
1.657871204E1,9.926267900E-3,4.668400288E-1,-5.909947157E-1
1.658787720E1,3.703261614E-1,2.848075330E-1,-4.686725736E-1
1.659702954E1,7.595885396E-1,-1.032331884E-1,-3.147390485E-1
1.660618189E1,1.135870457E0,-6.383354068E-1,-1.548497826E-1
1.661533428E1,1.471378326E0,-1.133274436E0,-1.893626526E-2
1.662448663E1,1.763668776E0,-1.405406833E0,6.749862432E-2
1.663362621E1,2.024500608E0,-1.417623758E0,8.704573661E-2
1.664279137E1,2.231730461E0,-1.123958945E0,3.038965166E-2
1.665194371E1,2.442778111E0,-6.111527085E-1,-7.589777559E-2
1.666109605E1,2.636264086E0,-2.238755226E-1,-1.634016484E-1
1.667024840E1,2.767138004E0,-6.200099736E-2,-1.168245375E-1
1.667940079E1,2.779507637E0,-1.682884246E-1,1.134648770E-1
1.668854038E1,2.746216536E0,-4.790569544E-1,4.653128982E-1
1.669770553E1,2.763625622E0,-9.475768209E-1,8.388460279E-1
1.670685788E1,2.862124920E0,-1.431367874E0,1.152516007E0
1.671599746E1,2.990402699E0,-1.807649732E0,1.338213682E0
1.672516256E1,3.071340084E0,-2.108950138E0,1.337755442E0
1.673431496E1,3.071187258E0,-2.372072697E0,1.209019423E0
1.674345454E1,3.026137352E0,-2.573499441E0,1.030499339E0
1.675261965E1,3.019265175E0,-2.598544121E0,8.246437907E-1
1.676177204E1,3.081571817E0,-2.448428631E0,6.406260729E-1
1.677091163E1,3.124025583E0,-2.235090017E0,4.943281412E-1
1.678007673E1,3.076990366E0,-1.943257809E0,3.800997138E-1
1.678922913E1,2.973146439E0,-1.460993886E0,3.075616062E-1
1.679836871E1,2.874341726E0,-8.892409205E-1,3.303156495E-1
1.680753381E1,2.806385040E0,-2.977880239E-1,4.471401870E-1
1.681668621E1,2.742093325E0,2.722851634E-1,5.958815217E-1
1.682583855E1,2.634889603E0,7.076665759E-1,7.220214605E-1
1.683499090E1,2.495463848E0,9.645278454E-1,8.098307252E-1
1.684414329E1,2.363215446E0,1.039203882E0,8.608365059E-1
1.685328288E1,2.270213842E0,9.517000318E-1,8.748859763E-1
1.686244798E1,2.215390205E0,7.623373866E-1,8.440381885E-1
1.687160038E1,2.181335449E0,5.274665952E-1,7.707365155E-1
1.688073996E1,2.119181871E0,2.702999115E-1,6.800256968E-1
1.688990506E1,2.026027679E0,-1.572931744E-2,5.935907960E-1
1.689905746E1,1.930277348E0,-3.054236174E-1,5.161659122E-1
1.690820980E1,1.846743941E0,-5.734328628E-1,4.301891923E-1
1.691736215E1,1.759087443E0,-7.837170362E-1,3.303156495E-1
1.692651454E1,1.657381296E0,-9.500201941E-1,2.246390730E-1
1.693566689E1,1.533379316E0,-1.114948988E0,1.560714692E-1
1.694481923E1,1.383263588E0,-1.201536536E0,1.087308154E-1
1.695397163E1,1.203216434E0,-1.171910524E0,6.474980712E-2
1.696311121E1,1.010188699E0,-1.066997409E0,1.252236869E-2
1.697227631E1,8.125795722E-1,-9.271134138E-1,-4.337015375E-2
1.698142871E1,6.117635369E-1,-7.798992395E-1,-9.193251282E-2
1.699058105E1,4.048390090E-1,-6.617003083E-1,-1.166718230E-1
1.699973340E1,2.305948436E-1,-6.053496599E-1,-1.325538605E-1
1.700888579E1,9.284878522E-2,-5.676298141E-1,-1.261399537E-1
1.701803814E1,-3.130592033E-2,-4.880669713E-1,-8.322793990E-2
1.702719048E1,-1.545443535E-1,-3.156553209E-1,-2.901524538E-3
1.703634288E1,-2.728960216E-1,-7.864658535E-2,8.215895295E-2
1.704549522E1,-3.880407214E-1,1.575985998E-1,1.397313178E-1
1.705464756E1,-5.160132051E-1,3.255815804E-1,1.748550236E-1
1.706379996E1,-6.455128193E-1,3.898732662E-1,1.878355294E-1
1.707293954E1,-7.574505806E-1,3.561239541E-1,1.950129867E-1
1.708210465E1,-8.736643195E-1,2.690782249E-1,1.936385781E-1
1.709125704E1,-1.018435121E0,1.928750277E-1,1.634016484E-1
1.710039663E1,-1.197107911E0,1.548497826E-1,8.521319181E-2
1.710956173E1,-1.356997132E0,1.125486046E-1,-4.779879749E-2
1.711871413E1,-1.378682256E0,1.973036677E-1,-2.153236568E-1
1.712786647E1,-1.193900943E0,8.605310917E-1,-3.988832533E-1
1.713701881E1,-9.510892034E-1,1.650203824E0,-5.864133835E-1
1.714617121E1,-8.913788795E-1,1.287055135E0,-6.962131858E-1
1.715531079E1,-1.371199369E0,6.841489673E-2,-6.981984377E-1
1.716447590E1,-2.112157106E0,-3.026748300E-1,-5.204418898E-1
1.717362829E1,-2.116127729E0,8.548807502E-1,-8.719844371E-2
1.718276788E1,-1.542847514E0,2.569681644E0,6.000047326E-1
1.719193298E1,-1.537807941E0,3.373098612E0,1.063637733E0
1.720108538E1,-1.841704488E0,2.102536201E0,8.290724158E-1
1.721022496E1,-1.405254126E0,2.480039895E-1,2.736595869E-1
1.721939006E1,-7.452336550E-1,-2.615953386E-1,-1.036913246E-1
1.722854246E1,-8.709154725E-1,9.681928903E-2,-2.629697323E-1
1.723768204E1,-1.369214177E0,2.122694254E-1,-2.835858464E-1
1.724684715E1,-1.432131410E0,1.673721522E-1,-1.856975704E-1
1.725599954E1,-1.148851037E0,-1.679830020E-3,-5.971032009E-2
1.726513913E1,-1.013090134E0,-2.507528067E-1,-1.939439960E-2
1.727430423E1,-1.115407109E0,-4.378247857E-1,-5.848862603E-2
1.728345663E1,-1.189472318E0,-5.986303091E-1,-1.235438585E-1
1.729259621E1,-1.118766785E0,-6.771242023E-1,-2.141019702E-1
1.730176131E1,-9.959864616E-1,-5.725166202E-1,-3.286358118E-1
1.731091371E1,-9.503256083E-1,-3.825430870E-1,-4.413371384E-1
1.732005329E1,-9.503256083E-1,-1.392731816E-1,-5.259394646E-1
1.732921840E1,-9.969027042E-1,1.727170646E-1,-5.282301903E-1
1.733837079E1,-1.094943762E0,4.898995161E-1,-4.346178174E-1
1.734752314E1,-1.187028885E0,7.983773947E-1,-2.858765125E-1
1.735667548E1,-1.261246920E0,1.100135922E0,-1.229330078E-1
1.736582788E1,-1.299119353E0,1.263995647E0,2.809897438E-2
1.737496746E1,-1.279572248E0,1.228261113E0,1.528645307E-1
1.738413256E1,-1.247655511E0,1.066539288E0,2.362451702E-1
1.739328496E1,-1.248877168E0,8.376243114E-1,2.559449971E-1
1.740243730E1,-1.286291599E0,6.361974478E-1,2.162399292E-1
1.741158965E1,-1.295912504E0,4.320217371E-1,1.325538605E-1
1.742074204E1,-1.265522838E0,1.936385781E-1,2.122694254E-2
1.742989439E1,-1.230246425E0,1.908897609E-2,-9.697200358E-2
1.743904673E1,-1.215738773E0,-4.627167806E-2,-2.041756958E-1
1.744819913E1,-1.215738773E0,-6.780404598E-2,-2.848075330E-1
1.745735147E1,-1.214364409E0,6.872031838E-3,-3.190149665E-1
1.746650387E1,-1.202300072E0,9.849911928E-2,-3.165715933E-1
1.747565621E1,-1.242005229E0,1.733279079E-1,-2.851129472E-1
1.748480855E1,-1.349972486E0,2.473931462E-1,-2.432699203E-1
1.749396090E1,-1.431978703E0,3.075616062E-1,-2.151709497E-1
1.750311329E1,-1.455343604E0,4.161396921E-1,-1.921114624E-1
1.751226564E1,-1.432284117E0,5.306735635E-1,-1.731752008E-1
1.752141803E1,-1.385401607E0,6.502469182E-1,-1.577513069E-1
1.753057038E1,-1.337297320E0,7.207997441E-1,-1.574458778E-1
1.753972272E1,-1.356997132E0,7.255338430E-1,-1.776038408E-1
1.754887512E1,-1.422052383E0,7.789829373E-1,-1.953184158E-1
1.755802746E1,-1.410293579E0,9.080244303E-1,-1.995943487E-1
1.756717980E1,-1.307824016E0,9.713998437E-1,-2.073826492E-1
1.757633220E1,-1.183058381E0,9.468132257E-1,-2.235700935E-1
1.758548454E1,-1.143200636E0,9.124531150E-1,-2.562504113E-1
1.759463689E1,-1.176644564E0,8.820634484E-1,-3.011476994E-1
1.760378928E1,-1.164427638E0,8.564078808E-1,-3.626905680E-1
1.761294163E1,-1.049893737E0,8.257128000E-1,-4.204156399E-1
1.762209397E1,-9.425373077E-1,7.763868570E-1,-4.654656053E-1
1.763124637E1,-9.520054460E-1,7.459971905E-1,-5.088357925E-1
1.764039871E1,-1.016755223E0,7.637118101E-1,-5.599942207E-1
1.764955105E1,-1.008356094E0,9.016105533E-1,-6.155813336E-1
1.765870345E1,-9.206995368E-1,1.102273822E0,-6.499415040E-1
1.766785579E1,-8.365553021E-1,1.137397647E0,-6.511631608E-1
1.767700814E1,-8.113578558E-1,9.228374958E-1,-6.252021790E-1
1.768616053E1,-8.501466513E-1,6.132906675E-1,-5.679352283E-1
1.769531288E1,-8.929060102E-1,3.200839758E-1,-4.921901822E-1
1.770446522E1,-9.049702287E-1,5.039490014E-2,-4.213318825E-1
1.771361762E1,-9.138274789E-1,-1.513374150E-1,-3.765873313E-1
1.772276996E1,-9.261971712E-1,-2.188360244E-1,-3.704788685E-1
1.773192230E1,-9.287932515E-1,-2.026485801E-1,-4.010212123E-1
1.774107470E1,-9.127585292E-1,-1.727170646E-1,-4.474456310E-1
1.775022704E1,-8.683193922E-1,-1.624853760E-1,-4.782933891E-1
1.775937939E1,-8.072346449E-1,-1.630962193E-1,-4.863871336E-1
1.776853178E1,-7.545490861E-1,-1.279724985E-1,-4.714213610E-1
1.777768413E1,-7.015580535E-1,-1.328592747E-2,-4.430169761E-1
1.778682376E1,-6.102364063E-1,1.659977436E-1,-4.016320705E-1
1.779598887E1,-4.303418994E-1,3.539859951E-1,-3.455868363E-1
1.780514121E1,-1.565296054E-1,5.077667832E-1,-2.686200738E-1
1.781429355E1,1.681357026E-1,5.471664071E-1,-1.630962193E-1
1.782344595E1,4.998257756E-1,4.210264683E-1,-6.047387794E-2
1.783259829E1,8.134958148E-1,2.023431510E-1,1.572931744E-2
1.784175064E1,1.090362310E0,-3.863608837E-2,6.612421572E-2
1.785090303E1,1.340046167E0,-2.777827978E-1,1.053711548E-1
1.786005538E1,1.578276634E0,-4.720322192E-1,1.534753740E-1
1.786919501E1,1.805969954E0,-6.033644080E-1,2.095206082E-1
1.787836012E1,1.968455315E0,-5.957288146E-1,2.473931462E-1
1.788751246E1,2.096275091E0,-2.128802687E-1,2.504473627E-1
1.789665210E1,2.178739548E0,3.101576865E-1,2.231119573E-1
1.790581720E1,2.236006498E0,6.087092757E-1,2.134911120E-1
1.791496954E1,2.254789829E0,4.613423944E-1,2.999260128E-1
1.792410918E1,2.231883287E0,-3.817795217E-2,4.808894992E-1
1.793327428E1,2.260287523E0,-7.705838084E-1,6.946860552E-1
1.794242663E1,2.389328957E0,-1.570030212E0,8.684720993E-1
1.795157897E1,2.584189415E0,-2.105132341E0,9.349017143E-1
1.796073137E1,2.759960651E0,-2.224553108E0,8.648070097E-1
1.796988371E1,2.871898413E0,-2.115364075E0,6.908682585E-1
1.797902335E1,2.922446012E0,-1.938218355E0,4.828747511E-1
1.798818845E1,2.950697660E0,-1.788866162E0,3.205420971E-1
1.799734079E1,2.957722425E0,-1.711288571E0,2.368560284E-1
1.800648043E1,2.916337490E0,-1.689756274E0,2.225011140E-1
1.801564553E1,2.794320822E0,-1.635085344E0,2.392994165E-1
1.802479788E1,2.618702173E0,-1.505585790E0,2.715215981E-1
1.803393751E1,2.456216812E0,-1.274380088E0,3.032856584E-1
1.804310262E1,2.345653534E0,-9.141329527E-1,3.454341292E-1
1.805225496E1,2.307170153E0,-5.667135715E-1,4.133908749E-1
1.806140736E1,2.331756592E0,-3.199312389E-1,4.879142344E-1
1.807055970E1,2.379250050E0,-8.994726092E-2,5.729747415E-1
1.807971204E1,2.391467094E0,1.615691036E-1,6.516213417E-1
1.808886444E1,2.342904568E0,3.975088596E-1,7.255338430E-1
1.809801678E1,2.262578249E0,5.247178078E-1,8.000571728E-1
1.810716913E1,2.179044962E0,5.369347334E-1,8.617527485E-1
1.811630876E1,2.085585356E0,4.874561131E-1,8.849649429E-1
1.812547387E1,1.978839636E0,3.846810758E-1,8.603783846E-1
1.813462621E1,1.857891917E0,2.191414535E-1,7.986828089E-1
1.814376585E1,1.756644011E0,-3.054236295E-3,7.198835015E-1
1.815293095E1,1.688992620E0,-2.667875290E-1,6.352811456E-1
1.816208329E1,1.634321809E0,-5.173876286E-1,5.514423847E-1
1.817123569E1,1.578429341E0,-7.232431769E-1,4.749337435E-1
1.818038803E1,1.493368864E0,-9.019159675E-1,4.133908749E-1
1.818954038E1,1.371352077E0,-1.098761559E0,3.814741075E-1
1.819869277E1,1.238187432E0,-1.221389055E0,3.581092060E-1
1.820784512E1,1.118003249E0,-1.286749721E0,3.335226178E-1
1.821699746E1,1.011104941E0,-1.310420036E0,3.064926267E-1
1.822614986E1,9.057337642E-1,-1.290872931E0,2.855710983E-1
1.823530220E1,7.826480269E-1,-1.238034725E0,2.742704153E-1
1.824445460E1,6.334486008E-1,-1.150988936E0,2.554868758E-1
1.825360694E1,4.808894992E-1,-9.856020808E-1,2.279987335E-1
1.826275928E1,3.429907262E-1,-7.780666947E-1,2.000524700E-1
1.827191168E1,2.053973973E-1,-5.488462448E-1,1.713426560E-1
1.828106402E1,5.772506446E-2,-3.442124426E-1,1.476723254E-1
1.829021637E1,-7.711946964E-2,-2.173089087E-1,1.354553849E-1
1.829936876E1,-1.743968874E-1,-1.669140160E-1,1.440072358E-1
1.830852111E1,-2.380777150E-1,-1.505738497E-1,1.704263836E-1
1.831767345E1,-3.072561622E-1,-8.139539510E-2,1.936385781E-1
1.832682585E1,-3.907895386E-1,8.185353130E-2,2.130329758E-1
1.833597819E1,-4.932591617E-1,2.982461751E-1,2.292204350E-1
1.834513053E1,-6.207735538E-1,4.987567961E-1,2.496838123E-1
1.835428293E1,-7.817317843E-1,6.305471063E-1,2.667875290E-1
1.836343527E1,-9.755230546E-1,6.693359017E-1,2.640387416E-1
1.837258767E1,-1.184738278E0,5.700731874E-1,2.382304370E-1
1.838174001E1,-1.377460599E0,3.652866483E-1,1.838650256E-1
1.839087960E1,-1.488940239E0,1.175880954E-1,9.422318637E-2
1.840004475E1,-1.499935389E0,1.832541823E-2,-2.428117767E-2
1.840919710E1,-1.379445791E0,3.875826001E-1,-1.372879148E-1
1.841833668E1,-1.065470338E0,1.107771516E0,-2.418955117E-1
1.842750184E1,-7.617265582E-1,1.582705259E0,-3.475720882E-1
1.843665418E1,-5.451811552E-1,1.354859233E0,-4.709632397E-1
1.844579376E1,-3.800997138E-1,2.736595869E-1,-5.318952799E-1
1.845495892E1,-5.648810267E-1,-9.060391784E-1,-4.280512035E-1
1.846411126E1,-8.391514421E-1,-6.406260729E-1,-9.483403713E-2
1.847325090E1,-8.819107413E-1,1.228108406E0,4.256078303E-1
1.848241600E1,-1.228871942E0,2.381693363E0,7.753179073E-1
1.849156835E1,-1.776343822E0,9.758284688E-1,6.838434935E-1
1.850070798E1,-1.630198598E0,-3.796415627E-1,4.190412164E-1
1.850987309E1,-1.081046939E0,-2.538070381E-1,3.080197275E-1
1.851902543E1,-9.936957955E-1,3.654393852E-1,2.403683960E-1
1.852817777E1,-1.226581335E0,6.733064055E-1,1.560714692E-1
1.853733017E1,-1.357760787E0,4.727957845E-1,8.628217876E-2
1.854648251E1,-1.270867705E0,8.460234851E-2,3.344388679E-2
1.855562215E1,-1.274074674E0,-2.209739983E-1,2.596100792E-3
1.856478725E1,-1.381125689E0,-4.663818777E-1,3.206948051E-3
1.857393960E1,-1.336533785E0,-6.277982593E-1,6.566607859E-3
1.858309199E1,-1.200467587E0,-6.090146899E-1,-1.740914769E-2
1.859224434E1,-1.142589808E0,-4.210264683E-1,-7.085828483E-2
1.860139668E1,-1.155417562E0,-1.960819662E-1,-1.426328421E-1
1.861054908E1,-1.164580345E0,4.169032723E-2,-2.112004459E-1
1.861970142E1,-1.207492352E0,2.276933193E-1,-2.440334857E-1
1.862885376E1,-1.306144118E0,4.480564594E-1,-2.425063550E-1
1.863800616E1,-1.413805962E0,6.861341596E-1,-2.171562016E-1
1.864715850E1,-1.471072912E0,8.628217578E-1,-1.748550236E-1
1.865631085E1,-1.479013920E0,9.791881442E-1,-1.218640283E-1
1.866545048E1,-1.477334142E0,9.715525508E-1,-6.322269142E-2
1.867461558E1,-1.487718463E0,8.718317747E-1,-7.635590620E-3
1.868376793E1,-1.485275149E0,7.085828185E-1,2.168507688E-2
1.869290756E1,-1.494285107E0,5.500679612E-1,1.817270555E-2
1.870207267E1,-1.474279881E0,3.240544796E-1,-1.023169141E-2
1.871122506E1,-1.424190402E0,1.058292910E-1,-5.008947477E-2
1.872037741E1,-1.396091461E0,2.137965336E-2,-8.704573661E-2
1.872952975E1,-1.394564271E0,-2.290677279E-3,-1.090362370E-1
1.873868215E1,-1.404490590E0,-4.581354442E-4,-1.108687744E-1
1.874783449E1,-1.392884493E0,9.162709117E-3,-1.041494608E-1
1.875698684E1,-1.378682256E0,7.742489129E-2,-1.009425074E-1
1.876613923E1,-1.374253631E0,1.424801201E-1,-1.119377613E-1
1.877529158E1,-1.382500052E0,1.795890927E-1,-1.469087601E-1
1.878444392E1,-1.396549582E0,2.516690791E-1,-1.934858710E-1
1.879359631E1,-1.396244168E0,3.087832928E-1,-2.331909388E-1
1.880274866E1,-1.367992401E0,3.413109183E-1,-2.605263591E-1
1.881190100E1,-1.310725451E0,4.196520746E-1,-2.706053257E-1
1.882105340E1,-1.255291104E0,5.625903010E-1,-2.696890533E-1
1.883020574E1,-1.203674555E0,6.435275674E-1,-2.577775419E-1
1.883935814E1,-1.151752472E0,6.960604787E-1,-2.336490750E-1
1.884851048E1,-1.107466102E0,7.692093849E-1,-2.217375487E-1
1.885766283E1,-1.045159698E0,8.397622705E-1,-2.377723008E-1
1.886681522E1,-9.443698525E-1,8.831323981E-1,-2.750339806E-1
1.887596756E1,-8.292251825E-1,8.463288546E-1,-3.248180151E-1
1.888511991E1,-7.266027927E-1,7.667660117E-1,-3.826957941E-1
1.889427230E1,-6.806365848E-1,8.304468393E-1,-4.349232614E-1
1.890342465E1,-6.920899153E-1,1.012326598E0,-4.613423944E-1
1.891257699E1,-7.256865501E-1,1.181684017E0,-4.508052766E-1
1.892172939E1,-7.653915882E-1,1.203369141E0,-4.236225784E-1
1.893088173E1,-7.866185308E-1,1.088987947E0,-3.985778391E-1
1.894003413E1,-7.597413063E-1,9.691091776E-1,-3.781144619E-1
1.894918647E1,-7.166765332E-1,8.970292211E-1,-3.741439581E-1
1.895833881E1,-7.383615971E-1,8.570187092E-1,-3.944546282E-1
1.896749121E1,-8.302941322E-1,8.796200752E-1,-4.298837483E-1
1.897664355E1,-9.225320816E-1,9.349017143E-1,-4.524851143E-1
1.898579590E1,-9.556705356E-1,9.107732773E-1,-4.381301999E-1
1.899494829E1,-8.938222528E-1,8.079982400E-1,-4.040754735E-1
1.900410064E1,-7.948650122E-1,6.925480962E-1,-3.868190348E-1
1.901325298E1,-7.444701195E-1,5.044071078E-1,-3.961344361E-1
1.902240538E1,-7.876875401E-1,3.174878657E-1,-4.230117202E-1
1.903155772E1,-8.922951221E-1,1.491994411E-1,-4.358395338E-1
1.904071006E1,-9.475768209E-1,-1.725643501E-2,-4.153761268E-1
1.904986246E1,-9.203941226E-1,-1.114796251E-1,-3.590254784E-1
1.905901480E1,-8.828269839E-1,-1.420219839E-1,-3.019112647E-1
1.906816715E1,-8.733588457E-1,-1.195733473E-1,-2.701472044E-1
1.907731954E1,-8.750386834E-1,-6.658235192E-2,-2.664821148E-1
1.908647189E1,-8.554915786E-1,-4.550812021E-2,-2.822114229E-1
1.909562428E1,-7.963921428E-1,-8.826743066E-2,-3.129065037E-1
1.910477663E1,-7.055285573E-1,-1.598892659E-1,-3.483356535E-1
1.911392897E1,-6.059604883E-1,-2.521272004E-1,-3.895678520E-1
1.912308137E1,-5.088357925E-1,-3.280249834E-1,-4.378247857E-1
1.913222095E1,-3.800997138E-1,-3.768927455E-1,-4.727957845E-1
1.914138605E1,-1.908897758E-1,-4.590517282E-1,-4.604261220E-1
1.915053845E1,4.810422286E-2,-6.096255779E-1,-3.756710589E-1
1.915967803E1,3.379512429E-1,-7.808154821E-1,-2.110477239E-1
1.916884314E1,6.543701291E-1,-8.929060102E-1,-7.177455351E-3
1.917799553E1,9.330691695E-1,-9.133693576E-1,1.585148573E-1
1.918713512E1,1.129609346E0,-8.808417320E-1,2.391466945E-1
1.919630022E1,1.262315869E0,-8.251019120E-1,2.583884001E-1
1.920545262E1,1.371504784E0,-7.682931423E-1,2.548760176E-1
1.921459220E1,1.470920205E0,-7.230904698E-1,2.531961799E-1
1.922375736E1,1.559340358E0,-6.812474132E-1,2.560977042E-1
1.923290970E1,1.642873645E0,-5.900784731E-1,2.628170252E-1
1.924206204E1,1.713884711E0,-4.068242610E-1,2.704526186E-1
1.925121444E1,1.731446505E0,-1.601946950E-1,2.880144715E-1
1.926036678E1,1.716786265E0,1.580567211E-1,3.158080280E-1
1.926950642E1,1.676012158E0,4.436278343E-1,3.391729295E-1
1.927867152E1,1.641193867E0,5.413633585E-1,3.602471650E-1
1.928782387E1,1.628518820E0,2.841966748E-1,4.017847776E-1
1.929696350E1,1.628671527E0,-3.194731176E-1,4.669927359E-1
1.930612861E1,1.675095916E0,-1.024696231E0,5.477772951E-1
1.931528095E1,1.790393353E0,-1.612331390E0,6.193991303E-1
1.932442059E1,1.954253078E0,-2.028929234E0,6.409314871E-1
1.933358569E1,2.108797550E0,-2.196454048E0,5.951179266E-1
1.934273803E1,2.202867985E0,-2.134147644E0,4.894413650E-1
1.935187767E1,2.230508804E0,-1.977770686E0,3.460449576E-1
1.936104277E1,2.234173775E0,-1.822920918E0,1.994416267E-1
1.937019512E1,2.255248070E0,-1.712510347E0,7.559234649E-2
1.937933475E1,2.305490255E0,-1.645927906E0,-3.161134571E-2
1.938849986E1,2.346722364E0,-1.588355541E0,-1.039967462E-1
1.939765225E1,2.341682911E0,-1.489092946E0,-1.524063945E-1
1.940679184E1,2.276933193E0,-1.281862974E0,-1.585148573E-1
1.941595694E1,2.179808378E0,-9.926267862E-1,-9.773556143E-2
1.942510934E1,2.073673725E0,-6.711684465E-1,2.153236605E-2
1.943426168E1,1.976243615E0,-3.248180151E-1,1.617218107E-1
1.944341402E1,1.895000935E0,4.123219103E-2,2.725905776E-1
1.945256642E1,1.833916187E0,3.637595475E-1,3.410054743E-1
1.946171876E1,1.795432806E0,5.958815217E-1,3.533751369E-1
1.947087111E1,1.772678733E0,7.487460375E-1,3.096995652E-1
1.948002350E1,1.763821483E0,8.170081973E-1,2.217375487E-1
1.948916308E1,1.751909971E0,8.089144826E-1,1.232384369E-1
1.949832819E1,1.723352790E0,7.343910933E-1,5.100574717E-2
1.950748058E1,1.669292808E0,6.503996253E-1,1.893626526E-2
1.951663293E1,1.596143842E0,5.694623590E-1,1.863084175E-2
1.952578532E1,1.510625243E0,4.651601911E-1,4.734066129E-2
1.953493767E1,1.437628984E0,3.356605768E-1,8.536590636E-2
1.954409001E1,1.396854997E0,1.863084137E-1,1.169772521E-1
1.955324241E1,1.384638071E0,3.145863488E-2,1.267508119E-1
1.956239475E1,1.385859728E0,-1.030804738E-1,1.104106456E-1
1.957154710E1,1.389219403E0,-1.924168915E-1,7.681404054E-2
1.958069949E1,1.392884493E0,-2.925958335E-1,3.115320951E-2
1.958985184E1,1.387539506E0,-4.271349311E-1,-1.939439960E-2
1.959900418E1,1.357913494E0,-5.460974574E-1,-8.307522535E-2
1.960815658E1,1.300493836E0,-6.398624778E-1,-1.420219839E-1
1.961730892E1,1.218029380E0,-7.052231431E-1,-1.864611208E-1
1.962646131E1,1.127776742E0,-7.368345261E-1,-2.115058601E-1
1.963561366E1,1.035996914E0,-7.418739796E-1,-2.243336588E-1
1.964476600E1,9.388722181E-1,-6.859814525E-1,-2.354816198E-1
1.965391840E1,8.440381885E-1,-5.596888065E-1,-2.496838123E-1
1.966307074E1,7.559235096E-1,-4.049917459E-1,-2.761029601E-1
1.967222309E1,6.661289334E-1,-2.612899244E-1,-3.098522723E-1
1.968137548E1,5.615213513E-1,-1.433963925E-1,-3.442124426E-1
1.969052782E1,4.317162931E-1,-7.925742865E-2,-3.671191931E-1
1.969968022E1,2.857238054E-1,-1.878355257E-2,-3.871244490E-1
1.970883256E1,1.504211426E-1,9.422318637E-2,-4.077405334E-1
1.971798491E1,4.153761268E-2,2.049392611E-1,-4.104893506E-1
1.972713730E1,-5.054761097E-2,2.988570333E-1,-3.970507085E-1
1.973628965E1,-1.146865711E-1,3.723114133E-1,-3.762819171E-1
1.974544199E1,-1.571404636E-1,4.187358022E-1,-3.545968235E-1
1.975459439E1,-2.067717910E-1,4.309527278E-1,-3.231382072E-1
1.976374673E1,-2.861819267E-1,4.152234197E-1,-2.870981991E-1
1.977289908E1,-3.771981895E-1,3.759764731E-1,-2.608317733E-1
1.978205147E1,-4.477510452E-1,3.258870244E-1,-2.496838123E-1
1.979120381E1,-5.027272701E-1,2.643441558E-1,-2.342599183E-1
1.980035621E1,-5.575508475E-1,1.896680743E-1,-2.131856978E-1
1.980950855E1,-6.219952106E-1,1.331647038E-1,-1.769929975E-1
1.981866090E1,-7.035433054E-1,1.325538605E-1,-1.249182671E-1
1.982781329E1,-7.960866690E-1,1.844758689E-1,-6.826218218E-2
1.983696564E1,-8.924478292E-1,2.525853515E-1,-1.466033421E-2
1.984611803E1,-9.765920639E-1,2.791571915E-1,3.115320951E-2
1.985527038E1,-1.030957460E0,2.568612695E-1,6.673506647E-2
1.986442272E1,-1.028514028E0,1.792836636E-1,9.437590092E-2
1.987356236E1,-9.254335761E-1,2.336490713E-2,9.636115283E-2
1.988272746E1,-7.200362086E-1,-1.162136942E-1,6.016845629E-2
1.989187980E1,-5.416688323E-1,-1.782146841E-1,8.857285604E-3
1.990101944E1,-4.920374751E-1,-1.976090819E-1,-4.627167806E-2
1.991018454E1,-5.285356045E-1,-2.680092454E-1,-1.423274130E-1
1.991933694E1,-5.034908652E-1,-5.305208564E-1,-2.690782249E-1
1.992847652E1,-3.651339412E-1,-6.029062271E-1,-3.614688516E-1
1.993764163E1,-2.348707765E-1,-4.840964451E-2,-3.840702176E-1
1.994679402E1,-1.801999360E-1,7.404996157E-1,-3.837648034E-1
1.995593361E1,-2.258607745E-1,9.112313986E-1,-3.003841341E-1
1.996509871E1,-3.811686933E-1,5.548020005E-1,-1.485885978E-1
1.997425111E1,-5.595360994E-1,3.211529553E-1,-2.092151903E-2
1.998339069E1,-7.162184119E-1,3.127537966E-1,3.115320951E-2
1.999255579E1,-8.990144730E-1,5.505260825E-1,4.978405312E-2
2.000170819E1,-1.088835239E0,1.095096469E0,7.788302749E-2
2.001084777E1,-1.207186937E0,1.707318068E0,9.009996802E-2
2.002001293E1,-1.387234092E0,1.819408536E0,4.474456236E-2
2.002916527E1,-1.591867924E0,1.228108406E0,-5.024218559E-2
2.003830491E1,-1.645164371E0,4.033119082E-1,-1.397313178E-1
2.004747001E1,-1.625159144E0,-1.059819981E-1,-1.740914732E-1
2.005662236E1,-1.586523056E0,-4.300364852E-1,-1.736333370E-1
2.006576199E1,-1.592936993E0,-4.233171642E-1,-1.382041872E-1
2.007492710E1,-1.599656224E0,-3.235963285E-1,-6.933116168E-2
2.008407944E1,-1.509709001E0,-2.910687327E-1,2.779355086E-2
2.009321908E1,-1.349208832E0,-2.344126403E-1,1.522536725E-1
2.010238418E1,-1.270867705E0,-1.609582454E-1,2.571666837E-1
2.011153652E1,-1.295912504E0,-7.589777559E-2,3.118375242E-1
2.012067616E1,-1.325385809E0,-1.130067464E-2,3.165715933E-1
2.012984126E1,-1.323095202E0,1.679829881E-2,2.915268540E-1
2.013899361E1,-1.328440070E0,1.359135192E-2,2.406738251E-1
2.014814600E1,-1.338366389E0,6.215370819E-2,1.673721522E-1
2.015729835E1,-1.330425382E0,1.154501289E-1,8.612946421E-2
2.016645074E1,-1.314085126E0,1.212531775E-1,-2.901524538E-3
2.017560309E1,-1.312558055E0,1.866138428E-1,-8.292251825E-2
2.018475543E1,-1.343558550E0,3.104631305E-1,-1.424801201E-1
2.019390782E1,-1.347987175E0,3.994941115E-1,-1.803526580E-1
2.020306017E1,-1.316070437E0,4.982986450E-1,-1.991362125E-1
2.021221256E1,-1.272853017E0,5.610632300E-1,-1.873773932E-1
2.022136491E1,-1.244143128E0,5.665608048E-1,-1.589729935E-1
2.023051725E1,-1.219861984E0,5.957288146E-1,-1.247655526E-1
2.023966965E1,-1.193442822E0,6.586460471E-1,-9.345962852E-2
2.024882199E1,-1.181836724E0,7.281299233E-1,-6.887302548E-2
2.025797434E1,-1.173895717E0,7.962393761E-1,-4.749337584E-2
2.026712673E1,-1.146102190E0,8.530482054E-1,-2.977880463E-2
2.027627908E1,-1.104106426E0,8.446490765E-1,-2.641914412E-2
2.028543142E1,-1.107313395E0,8.663341403E-1,-3.191677108E-2
2.029458381E1,-1.145796776E0,8.951966763E-1,-3.771981969E-2
2.030373616E1,-1.186570764E0,9.101623893E-1,-3.313846514E-2
2.031288855E1,-1.180004239E0,9.162709117E-1,-1.298050396E-2
2.032204090E1,-1.116934180E0,8.935168386E-1,-5.650337320E-3
2.033119324E1,-1.058140159E0,7.947123051E-1,-1.435491070E-2
2.034034564E1,-1.033553600E0,6.681141853E-1,-4.031591862E-2
2.034949798E1,-1.040578246E0,5.877877474E-1,-7.452336699E-2
2.035865038E1,-1.056918502E0,5.653391480E-1,-9.972081333E-2
2.036780272E1,-1.014311910E0,6.274928451E-1,-1.024696305E-1
2.037695506E1,-9.316948056E-1,6.801784039E-1,-8.842013776E-2
2.038610746E1,-8.669449687E-1,6.013791561E-1,-7.040014863E-2
2.039525980E1,-8.396095634E-1,4.381301999E-1,-5.848862603E-2
2.040441215E1,-8.182299137E-1,3.158080280E-1,-5.085303262E-2
2.041356454E1,-7.994463444E-1,2.803788781E-1,-4.825693369E-2
2.042271689E1,-7.695148587E-1,2.392994165E-1,-6.566607952E-2
2.043186923E1,-7.192726731E-1,1.513374150E-1,-9.208522737E-2
2.044102163E1,-6.752916574E-1,6.520794332E-2,-1.094943732E-1
2.045017397E1,-6.812474132E-1,-1.145338640E-2,-1.211004704E-1
2.045932637E1,-6.978929639E-1,-8.200624585E-2,-1.253764033E-1
2.046847871E1,-6.549809575E-1,-1.360662282E-1,-1.214058921E-1
2.047763105E1,-5.584670901E-1,-1.841704547E-1,-1.127013192E-1
2.048678345E1,-4.718795121E-1,-2.171562016E-1,-1.053711548E-1
2.049593579E1,-4.388937652E-1,-2.466295809E-1,-1.068982705E-1
2.050508819E1,-4.475983381E-1,-2.382304370E-1,-1.241547018E-1
2.051424053E1,-4.721849263E-1,-1.559187621E-1,-1.505738497E-1
2.052339288E1,-4.953971207E-1,-3.771981969E-2,-1.673721522E-1
2.053254527E1,-5.106683373E-1,8.689302206E-2,-1.632489264E-1
2.054169762E1,-5.077667832E-1,1.653869003E-1,-1.491994411E-1
2.055084996E1,-4.993676245E-1,1.930277348E-1,-1.363716573E-1
2.056000236E1,-4.999784827E-1,1.901262105E-1,-1.357607991E-1
2.056915470E1,-5.060869455E-1,1.840177327E-1,-1.406475753E-1
2.057830710E1,-4.857762754E-1,2.003578991E-1,-1.449235082E-1
2.058745944E1,-4.410317242E-1,2.148655206E-1,-1.421747059E-1
2.059661178E1,-4.175141156E-1,2.136438340E-1,-1.394258887E-1
2.060576418E1,-4.266768098E-1,2.021904439E-1,-1.469087601E-1
2.061491652E1,-4.353813827E-1,2.093679011E-1,-1.585148573E-1
2.062406892E1,-4.298837483E-1,2.220429778E-1,-1.688992679E-1
2.063322126E1,-4.304946065E-1,2.322746664E-1,-1.786728203E-1
2.064237361E1,-4.304946065E-1,2.339545041E-1,-1.847812980E-1
2.065152600E1,-4.234698713E-1,2.116585821E-1,-1.896680743E-1
2.066067835E1,-4.224008918E-1,1.658450365E-1,-1.931804419E-1
2.066983069E1,-4.413371384E-1,1.249182671E-1,-1.860029846E-1
2.067898309E1,-4.694361091E-1,1.081199646E-1,-1.714953631E-1
2.068813543E1,-5.079194903E-1,1.159082651E-1,-1.559187621E-1
2.069728782E1,-5.468609929E-1,1.212531775E-1,-1.391204596E-1
2.070644017E1,-5.668662786E-1,8.765657991E-2,-1.160609797E-1
2.071559251E1,-5.694623590E-1,1.114796288E-2,-9.162709117E-2
2.072474491E1,-5.694623590E-1,-7.253811508E-2,-7.437065244E-2
2.073389725E1,-5.774033666E-1,-1.412584335E-1,-7.437065244E-2
2.074304960E1,-5.908420086E-1,-2.232646793E-1,-8.658760041E-2
2.075220199E1,-5.905365944E-1,-3.130592108E-1,-1.006370857E-1
2.076135434E1,-5.676298141E-1,-3.932329118E-1,-1.127013192E-1
2.077050673E1,-5.267030597E-1,-4.292729199E-1,-1.105633527E-1
2.077965908E1,-4.984513521E-1,-4.069769979E-1,-9.926267713E-2
2.078881142E1,-4.934118688E-1,-3.611634374E-1,-9.009996802E-2
2.079796381E1,-5.112791657E-1,-3.026748300E-1,-8.735115826E-2
2.080711616E1,-5.299099684E-1,-2.134911120E-1,-8.506047726E-2
2.081626855E1,-5.376983285E-1,-1.075091213E-1,-7.788302749E-2
2.082542090E1,-5.369347334E-1,8.246437646E-3,-6.200099736E-2
2.083457324E1,-5.355603099E-1,1.211004704E-1,-4.016320780E-2
2.084372564E1,-5.245651007E-1,2.032594234E-1,-1.634016447E-2
2.085287798E1,-4.905103445E-1,2.382304370E-1,1.068982668E-2
2.086203033E1,-4.367557764E-1,2.246390730E-1,2.397575416E-2
2.087118272E1,-3.765873313E-1,1.679829955E-1,1.771457121E-2
2.088033506E1,-3.092414141E-1,9.926267713E-2,-3.054236295E-3
2.088948746E1,-2.521272004E-1,5.833591148E-2,-2.535016090E-2
2.089863980E1,-2.102841735E-1,6.490252167E-2,-3.787253052E-2
2.090779215E1,-1.971509457E-1,1.137702987E-1,-3.527642787E-2
2.091694454E1,-2.107423097E-1,1.976090819E-1,-2.443389036E-2
2.092609689E1,-2.418955117E-1,2.814478874E-1,-7.024743594E-3
2.093524928E1,-2.722851634E-1,3.712424338E-1,2.443389036E-3
2.094440163E1,-2.980934680E-1,4.445441067E-1,-1.527118147E-3
2.095355397E1,-3.248180151E-1,4.793623984E-1,-1.817270555E-2
2.096270637E1,-3.475720882E-1,4.828747511E-1,-4.825693369E-2
2.097185871E1,-3.513898849E-1,4.472928941E-1,-8.674030751E-2
2.098101105E1,-3.353551328E-1,3.837648034E-1,-1.201841980E-1
2.099016345E1,-3.045073450E-1,3.217637837E-1,-1.375933439E-1
2.099931579E1,-2.690782249E-1,2.777827978E-1,-1.415638477E-1
2.100846819E1,-2.446443290E-1,2.446443290E-1,-1.420219839E-1
2.101762053E1,-2.374668717E-1,2.092151791E-1,-1.461452097E-1
2.102677288E1,-2.487675399E-1,1.566823274E-1,-1.601946950E-1
2.103592527E1,-2.707580328E-1,8.719844371E-2,-1.811162084E-1
2.104507762E1,-2.959555089E-1,1.236965694E-2,-1.989834905E-1
2.105423001E1,-3.093941510E-1,-6.658235192E-2,-2.032594234E-1
2.106338236E1,-3.006895781E-1,-1.551551968E-1,-1.890572309E-1
2.107253470E1,-2.747285664E-1,-2.470877171E-1,-1.553079188E-1
2.108168710E1,-2.396048307E-1,-3.330644667E-1,-1.159082651E-1
2.109083944E1,-2.040229887E-1,-4.118637741E-1,-8.139539510E-2
2.109999178E1,-1.653869003E-1,-4.575245976E-1,-5.543438718E-2
2.110914418E1,-1.279724985E-1,-4.530959427E-1,-4.046862945E-2
2.111829652E1,-9.575030953E-2,-3.964398801E-1,-3.542914242E-2
2.112744892E1,-7.207997888E-2,-2.896943092E-1,-3.710897267E-2
2.113660126E1,-5.360184610E-2,-1.534753740E-1,-3.710897267E-2
2.114575361E1,-4.260659590E-2,-7.635590620E-3,-3.344388679E-2
2.115490600E1,-3.649812192E-2,1.412584335E-1,-2.870982140E-2
2.116405835E1,-2.962609194E-2,2.738122940E-1,-2.993151546E-2
2.117321074E1,-1.954711229E-2,3.822376728E-1,-3.481829539E-2
2.118236309E1,-9.620844387E-3,4.569137394E-1,-4.153761268E-2
2.119151543E1,-5.650337320E-3,4.955498278E-1,-4.459185153E-2
2.120066782E1,-7.024743594E-3,5.027272701E-1,-4.886778072E-2
2.120982017E1,-1.114796288E-2,4.955498278E-1,-4.886778072E-2
2.121897256E1,-1.404948719E-2,4.792096615E-1,-5.070032179E-2
2.122812491E1,-1.511846948E-2,4.520269632E-1,-5.314370990E-2
2.123727725E1,-1.786728203E-2,4.165978432E-1,-5.741964281E-2
2.124642965E1,-2.229592577E-2,3.544441164E-1,-6.474980712E-2
2.125558199E1,-2.748812735E-2,2.609844804E-1,-6.902574003E-2
2.126473439E1,-3.329117596E-2,1.519482583E-1,-7.009471953E-2
2.127388673E1,-3.603998944E-2,3.436015919E-2,-6.765133142E-2
2.128303908E1,-3.115320951E-2,-9.086353332E-2,-6.383354217E-2
2.129219147E1,-2.458660305E-2,-2.072299272E-1,-5.818320066E-2
2.130134381E1,-1.893626526E-2,-3.052709103E-1,-4.657710344E-2
2.131049616E1,-1.328592747E-2,-3.872771561E-1,-2.809897438E-2
2.131964855E1,-9.926267900E-3,-4.317162931E-1,-1.649287529E-2
2.132880090E1,-1.175880991E-2,-4.347705245E-1,-1.771457121E-2
2.133795329E1,-1.740914769E-2,-4.081986845E-1,-2.260134928E-2
2.134710564E1,-2.412846684E-2,-3.600944579E-1,-2.336490713E-2
2.135625798E1,-2.825168520E-2,-3.009949923E-1,-2.336490713E-2
2.136541038E1,-3.130592033E-2,-2.354816198E-1,-2.473931387E-2
2.137456272E1,-3.008422814E-2,-1.702736765E-1,-2.901524492E-2
2.138371512E1,-2.321219631E-2,-1.070509851E-1,-3.634541109E-2
2.139286746E1,-1.007897966E-2,-5.161659420E-2,-4.611896724E-2
2.140201980E1,1.298050396E-2,-5.803049076E-3,-5.268557742E-2
2.141117220E1,3.787253052E-2,3.817795217E-2,-5.070032179E-2
2.142032454E1,5.909947306E-2,8.536590636E-2,-4.566083103E-2
2.142947694E1,6.413896382E-2,1.322484314E-1,-4.321744293E-2
2.143862928E1,4.764608666E-2,1.733279079E-1,-4.275930673E-2
2.144778163E1,2.107422985E-2,1.991362125E-1,-4.001049697E-2
2.145693402E1,0.000000000E0,1.905843467E-1,-3.512371704E-2
2.146608637E1,-8.246437646E-3,1.582094431E-1,-3.329117596E-2
2.147523876E1,-6.566607859E-3,1.007898003E-1,-3.390202299E-2
2.148439111E1,1.527118147E-3,2.855710872E-2,-3.695625812E-2
2.149354345E1,1.511846948E-2,-4.367557913E-2,-3.436015919E-2
2.150269585E1,2.855710872E-2,-9.972081333E-2,-2.809897438E-2
2.151184819E1,3.985778242E-2,-1.285833418E-1,-1.939439960E-2
2.152100059E1,4.413371533E-2,-1.224748790E-1,-9.009997360E-3
2.153015293E1,3.756710514E-2,-9.483403713E-2,-4.581354442E-4
2.153930527E1,2.183778957E-2,-5.314370990E-2,3.054236295E-3
2.154845767E1,3.512371797E-3,-1.221694518E-2,1.068982761E-3
2.155761001E1,-9.620844387E-3,1.725643501E-2,-3.054236295E-4
2.156676236E1,-1.160609815E-2,3.771981969E-2,-3.359660041E-3
2.157591475E1,-5.039489828E-3,5.222744122E-2,-3.970507067E-3
2.158506710E1,9.773556143E-3,5.467082933E-2,-1.985253533E-3
2.159421949E1,2.596100792E-2,4.443913698E-2,-7.635590737E-4
2.160337184E1,4.031591862E-2,2.092151903E-2,-4.275931045E-3
2.161252418E1,4.795150831E-2,1.068982761E-3,-1.023169141E-2
2.162167658E1,5.039490014E-2,-9.162709117E-3,-1.572931744E-2
2.163082892E1,4.917320609E-2,-3.206948051E-3,-1.878355257E-2
2.163998131E1,4.840964451E-2,1.007897966E-2,-1.878355257E-2
2.164913366E1,4.657710344E-2,1.847812906E-2,-1.511846948E-2
2.165828600E1,4.275930673E-2,1.908897609E-2,-1.145338640E-2
2.166743840E1,3.542914242E-2,1.542389300E-2,-8.551862091E-3
2.167659074E1,2.565558441E-2,3.970507067E-3,-7.941014133E-3
2.168574314E1,1.603474095E-2,-1.832541823E-2,-8.704573847E-3
2.169489548E1,8.246437646E-3,-5.085303262E-2,-9.926267900E-3
2.170404782E1,8.093725890E-3,-9.605573118E-2,-1.236965694E-2
2.171320022E1,1.221694518E-2,-1.466033459E-1,-1.343864016E-2
2.172235256E1,1.924168877E-2,-1.798945218E-1,-1.221694518E-2
2.173150496E1,2.550287358E-2,-1.887518018E-1,-5.955760833E-3
2.174065730E1,2.916795574E-2,-1.815743446E-1,2.596100792E-3
2.174980965E1,3.145863488E-2,-1.688992679E-1,1.053711493E-2
2.175896204E1,3.252761811E-2,-1.525591016E-1,1.175880991E-2
2.176811439E1,3.298575059E-2,-1.272089481E-1,1.114796288E-2
2.177726673E1,3.390202299E-2,-9.055810422E-2,1.053711493E-2
2.178641913E1,3.100049868E-2,-4.825693369E-2,7.330167107E-3
2.179557147E1,2.580829710E-2,-1.099525020E-2,4.275931045E-3
2.180472387E1,2.000524849E-2,1.786728203E-2,4.581354442E-4
2.181387621E1,1.801999472E-2,3.481829539E-2,-7.635590737E-4
2.182302855E1,2.412846684E-2,3.955236077E-2,-1.832541777E-3
2.183218095E1,3.206948191E-2,3.848337755E-2,-0.000000000E0
2.184133329E1,4.016320780E-2,3.420744836E-2,4.275931045E-3
2.185048569E1,4.504998401E-2,2.641914412E-2,5.650337320E-3
2.185963803E1,4.459185153E-2,1.924168877E-2,7.482878864E-3
2.186879038E1,4.153761268E-2,1.618745178E-2,7.941014133E-3
2.187794277E1,3.527642787E-2,2.397575416E-2,9.773556143E-3
2.188709512E1,2.962609194E-2,3.909422457E-2,1.160609815E-2
2.189624751E1,2.764083818E-2,5.176930502E-2,1.282779220E-2
2.190539986E1,2.947338112E-2,5.589252338E-2,1.282779220E-2
2.191455220E1,2.702999115E-2,5.344913527E-2,1.343864016E-2
2.192370460E1,1.969982497E-2,4.566083103E-2,9.009997360E-3
2.193285694E1,1.236965694E-2,3.237490356E-2,6.566607859E-3
2.194200934E1,6.413896102E-3,1.603474095E-2,6.566607859E-3
2.195116168E1,5.955760833E-3,4.581354442E-4,9.620844387E-3
2.196031402E1,7.177455351E-3,-6.108472589E-3,1.206423342E-2
2.196946642E1,1.084253844E-2,-5.497625098E-3,1.572931744E-2
2.197861876E1,1.328592747E-2,-5.497625098E-3,1.634016447E-2
2.198777116E1,1.511846948E-2,-4.886778072E-3,1.572931744E-2
2.199692350E1,2.504473738E-2,-1.221694518E-3,1.466033421E-2
2.200607585E1,3.726168349E-2,3.512371797E-3,1.527118124E-2
2.201522824E1,4.825693369E-2,1.740914769E-2,1.664558798E-2
2.202438059E1,5.115845799E-2,3.603998944E-2,2.031067200E-2
2.203353298E1,4.489727318E-2,4.993676394E-2,2.260134928E-2
2.204268532E1,3.374931216E-2,5.176930502E-2,2.137965336E-2
2.205183767E1,2.825168520E-2,4.627167806E-2,1.710372418E-2
2.206099006E1,2.840439789E-2,3.665083647E-2,1.038440317E-2
2.207014241E1,3.161134571E-2,2.702999115E-2,5.497625098E-3
2.207929480E1,3.100049868E-2,2.336490713E-2,6.108472589E-4
2.208844715E1,2.855710872E-2,2.580829710E-2,-1.832541777E-3
2.209759949E1,2.550287358E-2,2.214321308E-2,-3.054236295E-3
2.210675189E1,1.939439960E-2,1.786728203E-2,-3.206948051E-3
2.211590423E1,1.313321572E-2,1.313321572E-2,-1.527118147E-4
2.212505663E1,6.413896102E-3,8.246437646E-3,4.123218823E-3
2.213420897E1,3.970507067E-3,4.734066315E-3,8.399149403E-3
2.214336131E1,5.803049076E-3,2.901524538E-3,1.145338640E-2
2.215251371E1,1.206423342E-2,-1.374406274E-3,1.634016447E-2
2.216166605E1,1.710372418E-2,-1.160609815E-2,1.878355257E-2
2.217081845E1,2.137965336E-2,-1.695101149E-2,1.649287529E-2
2.217997079E1,2.137965336E-2,-1.817270555E-2,1.404948719E-2
2.218912314E1,2.199050039E-2,-1.634016447E-2,9.162709117E-3
2.219827553E1,2.519745007E-2,-1.572931744E-2,7.941014133E-3
2.220742788E1,2.641914412E-2,-1.572931744E-2,9.773556143E-3
2.221658022E1,2.687728032E-2,-1.282779220E-2,9.773556143E-3
2.222573262E1,2.748812735E-2,-9.162709117E-3,1.099525020E-2
2.223488496E1,2.504473738E-2,-8.551862091E-3,1.160609815E-2
2.224403736E1,2.260134928E-2,-7.330167107E-3,1.221694518E-2
2.225318970E1,2.015795931E-2,-6.108472589E-3,1.343864016E-2
2.226234204E1,2.061609551E-2,-2.596100792E-3,1.221694518E-2
2.227149444E1,1.634016447E-2,-2.596100792E-3,9.620844387E-3
2.228064678E1,1.145338640E-2,2.901524538E-3,7.177455351E-3
2.228979918E1,6.413896102E-3,7.635590620E-3,6.566607859E-3
2.229895152E1,1.527118147E-3,9.468132630E-3,6.566607859E-3
2.230810392E1,-1.527118147E-3,8.246437646E-3,2.901524538E-3
2.231725626E1,3.054236295E-4,4.581354558E-3,1.068982761E-3
2.232640861E1,3.359660041E-3,4.581354558E-3,4.123218823E-3
2.233556100E1,1.084253844E-2,-1.374406274E-3,6.566607859E-3
2.234471335E1,1.404948719E-2,-9.162709117E-3,7.788302377E-3
2.235386569E1,1.145338640E-2,-7.941014133E-3,7.177455351E-3
2.236301808E1,6.566607859E-3,-3.206948051E-3,7.177455351E-3
2.237217043E1,1.527118147E-3,-3.206948051E-3,7.177455351E-3
2.238132282E1,-3.054236295E-4,-5.650337320E-3,6.566607859E-3
2.239047517E1,2.290677279E-3,-1.985253533E-3,4.734066315E-3
2.239962756E1,7.177455351E-3,2.901524538E-3,4.123218823E-3
2.240877991E1,1.007897966E-2,8.246437646E-3,4.123218823E-3
2.241793225E1,7.024743594E-3,1.007897966E-2,7.788302377E-3
2.242708465E1,2.137965523E-3,1.130067464E-2,1.145338640E-2
2.243623699E1,-5.955760833E-3,1.007897966E-2,1.374406368E-2
2.244538939E1,-7.635590620E-3,2.901524538E-3,1.374406368E-2
2.245454173E1,-2.137965523E-3,-5.650337320E-3,1.191152167E-2
2.246369408E1,5.344913341E-3,-5.497625098E-3,1.084253844E-2
2.247284647E1,1.084253844E-2,-1.985253533E-3,1.206423342E-2
2.248199881E1,1.511846948E-2,-1.527118147E-4,1.206423342E-2
2.249115121E1,1.450762246E-2,2.901524538E-3,1.084253844E-2
2.250030355E1,1.007897966E-2,1.007897966E-2,1.145338640E-2
2.250945590E1,5.803049076E-3,1.374406368E-2,9.620844387E-3
2.251860829E1,5.803049076E-3,1.618745178E-2,8.399149403E-3
2.252776064E1,3.817795310E-3,1.969982497E-2,1.267508045E-2
2.253691303E1,0.000000000E0,3.054236248E-2,1.557660475E-2
2.254606538E1,-3.665083554E-3,3.909422457E-2,1.740914769E-2
2.255521772E1,-7.482878864E-3,4.016320780E-2,1.618745178E-2
2.256437012E1,-8.704573847E-3,3.481829539E-2,1.557660475E-2
2.257352246E1,-4.734066315E-3,2.153236605E-2,1.435491070E-2
2.258267486E1,3.970507067E-3,1.007897966E-2,1.328592747E-2
2.259182720E1,1.695101149E-2,-1.527118147E-4,1.450762246E-2
2.260097960E1,2.702999115E-2,-1.282779220E-2,1.404948719E-2
2.261013194E1,3.069507517E-2,-1.328592747E-2,1.466033421E-2
2.261928428E1,2.382304333E-2,-4.886778072E-3,2.015795931E-2
2.262843668E1,1.496575773E-2,1.007897966E-2,2.305948362E-2
2.263758902E1,9.315420873E-3,2.397575416E-2,2.428117767E-2
2.264674137E1,7.941014133E-3,3.542914242E-2,2.122694254E-2
2.265589376E1,6.108472589E-3,4.382828996E-2,1.756185852E-2
2.266504611E1,3.512371797E-3,4.749337584E-2,1.389677543E-2
2.267419850E1,3.512371797E-3,4.810422286E-2,1.328592747E-2
2.268335085E1,5.497625098E-3,4.627167806E-2,1.328592747E-2
2.269250324E1,7.330167107E-3,3.894151375E-2,1.206423342E-2
2.270165558E1,8.093725890E-3,2.870982140E-2,1.206423342E-2
2.271080793E1,9.468132630E-3,1.786728203E-2,1.572931744E-2
2.271996033E1,1.313321572E-2,5.955760833E-3,2.000524849E-2
2.272911267E1,2.015795931E-2,-6.108472589E-3,2.000524849E-2
2.273826506E1,2.870982140E-2,-1.450762246E-2,2.015795931E-2
2.274741741E1,3.558185324E-2,-1.634016447E-2,2.321219631E-2
2.275656975E1,3.558185324E-2,-1.634016447E-2,2.504473738E-2
2.276572215E1,3.115320951E-2,-1.634016447E-2,2.504473738E-2
2.277487449E1,2.825168520E-2,-2.107422985E-2,2.565558441E-2
2.278402689E1,2.458660305E-2,-2.596100792E-2,2.260134928E-2
2.279317923E1,1.664558798E-2,-3.084778599E-2,2.000524849E-2