"Time (s)","Gyroscope x (rad/s)","Gyroscope y (rad/s)","Gyroscope z (rad/s)"
6.526366170E0,6.352811307E-2,-3.695625812E-2,4.627167806E-2
6.535519972E0,7.024743408E-2,-3.145863488E-2,3.894151375E-2
6.544673774E0,6.459710002E-2,-9.773556143E-3,4.306473210E-2
6.553827576E0,4.963133857E-2,5.955760833E-3,4.428642616E-2
6.562981378E0,3.038965166E-2,1.130067464E-2,4.718795046E-2
6.572135232E0,1.878355257E-2,-7.635590737E-4,4.825693369E-2
6.581289034E0,1.954711229E-2,-1.710372418E-2,4.520269856E-2
6.590442836E0,2.580829710E-2,-1.343864016E-2,4.230117425E-2
6.599596638E0,3.481829539E-2,1.664558798E-2,4.107947648E-2
6.608750440E0,3.512371704E-2,4.260659590E-2,4.107947648E-2
6.617904242E0,2.535016090E-2,3.176405653E-2,3.298575059E-2
6.627058097E0,2.015795931E-2,2.137965523E-3,2.809897438E-2
6.636211899E0,1.282779220E-2,-1.481304597E-2,2.870982140E-2
6.645365701E0,6.108472589E-3,-3.817795310E-3,3.054236248E-2
6.654519503E0,-6.566607859E-3,2.565558441E-2,2.672456764E-2
6.663673305E0,-1.969982497E-2,4.963133857E-2,1.985253580E-2
6.672827107E0,-2.962609194E-2,5.619794875E-2,1.496575773E-2
6.681980961E0,-3.313846514E-2,4.535540938E-2,1.130067464E-2
6.691134763E0,-2.932066843E-2,2.428117767E-2,5.803049076E-3
6.700288565E0,-2.672456764E-2,1.099525020E-2,5.803049076E-3
6.709442367E0,-2.183778957E-2,1.160609815E-2,7.024743594E-3
6.718596170E0,-1.817270555E-2,1.404948719E-2,1.511846948E-2
6.727749972E0,-1.756185852E-2,9.315420873E-3,2.367033064E-2
6.736903826E0,-1.359135192E-2,-8.093725890E-3,2.916795574E-2
6.746057628E0,-3.054236295E-3,-2.855710872E-2,2.748812735E-2
6.755211430E0,3.206948051E-3,-3.527642787E-2,2.015795931E-2
6.764365232E0,-1.221694518E-3,-1.725643501E-2,2.015795931E-2
6.773519034E0,-1.145338640E-2,1.893626526E-2,2.733541466E-2
6.782672836E0,-2.168507688E-2,6.169557199E-2,3.451287001E-2
6.791826638E0,-3.237490356E-2,8.704573661E-2,3.695625812E-2
6.800980492E0,-3.603998944E-2,7.437065244E-2,3.268032894E-2
6.810134295E0,-2.275406010E-2,4.978405312E-2,2.718270384E-2
6.819288097E0,-1.114796288E-2,4.795150831E-2,2.244863659E-2
6.828441899E0,-1.114796288E-2,6.536065787E-2,1.878355257E-2
6.837595701E0,-1.939439960E-2,7.620319724E-2,2.107422985E-2
6.846749503E0,-2.183778957E-2,7.437065244E-2,2.718270384E-2
6.855903305E0,-2.046338283E-2,6.230641901E-2,3.268032894E-2
6.865057159E0,-2.351761982E-2,4.978405312E-2,3.573456407E-2
6.874210961E0,-2.947338112E-2,2.809897438E-2,3.329117596E-2
6.883364763E0,-3.283303976E-2,1.527118147E-3,2.840439789E-2
6.892518565E0,-3.451287001E-2,-1.664558798E-2,2.535016090E-2
6.901672367E0,-3.695625812E-2,-1.908897609E-2,2.351761982E-2
6.910826222E0,-3.634541109E-2,-2.031067200E-2,2.168507688E-2
6.919980024E0,-4.001049697E-2,-3.054236248E-2,1.985253580E-2
6.929133826E0,-3.970507160E-2,-4.856235534E-2,1.740914769E-2
6.938287628E0,-3.726168349E-2,-6.184828654E-2,1.740914769E-2
6.947441430E0,-3.237490356E-2,-6.306997687E-2,2.351761982E-2
6.956595232E0,-2.993151546E-2,-5.146388337E-2,3.084778599E-2
6.965749034E0,-3.497100621E-2,-3.894151375E-2,3.512371704E-2
6.974902888E0,-4.245388508E-2,-3.100049868E-2,3.695625812E-2
6.984056690E0,-4.871506989E-2,-3.283303976E-2,3.436015919E-2
6.993210492E0,-5.100574717E-2,-3.771981969E-2,3.191677108E-2
7.002364295E0,-5.238015205E-2,-3.115320951E-2,3.191677108E-2
7.011518097E0,-4.886778072E-2,-9.315420873E-3,3.130592033E-2
7.020671899E0,-4.596625641E-2,2.199050039E-2,3.191677108E-2
7.029825701E0,-4.932591692E-2,4.367557913E-2,3.313846514E-2
7.038979503E0,-5.115845799E-2,5.146388337E-2,3.252761811E-2
7.048133357E0,-4.749337584E-2,5.146388337E-2,2.764083818E-2
7.057287159E0,-3.939964995E-2,4.657710344E-2,3.130592033E-2
7.066440961E0,-3.527642787E-2,5.207473040E-2,3.756710514E-2
7.075594763E0,-4.337015375E-2,6.841489673E-2,4.230117425E-2
7.084748565E0,-5.344913527E-2,8.292251825E-2,5.146388337E-2
7.093902367E0,-6.032116711E-2,8.765657991E-2,5.741964281E-2
7.103056222E0,-6.337540597E-2,9.132166207E-2,5.925218388E-2
7.112210024E0,-5.726693198E-2,9.315420687E-2,5.986303091E-2
7.121363826E0,-4.978405312E-2,8.582404256E-2,5.390727147E-2
7.130517628E0,-4.611896724E-2,8.826743066E-2,5.329642445E-2
7.139671430E0,-4.627167806E-2,1.142284349E-1,5.329642445E-2
7.148825232E0,-4.840964451E-2,1.473668963E-1,5.757235363E-2
7.157979034E0,-5.665608495E-2,1.696628332E-1,6.047387794E-2
7.167132836E0,-6.474980712E-2,1.737860441E-1,6.047387794E-2
7.176286690E0,-7.467607409E-2,1.780619770E-1,5.848862603E-2
7.185440492E0,-7.406523079E-2,1.768402755E-1,6.032116711E-2
7.194594295E0,-5.711421743E-2,1.557660550E-1,6.474980712E-2
7.203748097E0,-3.054236248E-2,1.317902952E-1,6.994201243E-2
7.212901899E0,-1.130067464E-2,1.215586066E-1,7.543963939E-2
7.222055701E0,-7.024743594E-3,1.137702987E-1,7.788302749E-2
7.231209503E0,-1.557660475E-2,1.143811494E-1,7.116370648E-2
7.240363357E0,-2.305948362E-2,1.281252056E-1,5.894676223E-2
7.249517159E0,-2.382304333E-2,1.539335102E-1,4.428642616E-2
7.258670961E0,-1.786728203E-2,1.882936656E-1,3.451287001E-2
7.267824763E0,-9.926267900E-3,1.931804419E-1,3.512371704E-2
7.276978565E0,3.206948051E-3,1.769929975E-1,4.016320780E-2
7.286132367E0,1.908897609E-2,1.823379099E-1,3.955236077E-2
7.295286170E0,2.794626169E-2,1.768402755E-1,1.404948719E-2
7.304439972E0,3.100049868E-2,1.267508119E-1,-2.367033064E-2
7.313593826E0,4.596625641E-2,4.046862945E-2,-4.428642616E-2
7.322747628E0,6.963659078E-2,-4.993676394E-2,-3.863608837E-2
7.331901430E0,8.108997345E-2,-1.094943732E-1,-2.076880634E-2
7.341055232E0,7.207997888E-2,-1.412584335E-1,6.108472589E-4
7.350209034E0,4.260659590E-2,-1.701209545E-1,2.122694254E-2
7.359362836E0,1.328592747E-2,-1.954711229E-1,3.313846514E-2
7.368516638E0,-1.068982668E-2,-2.112004459E-1,2.993151546E-2
7.377670440E0,-2.855710872E-2,-2.095206082E-1,2.428117767E-2
7.386824295E0,-4.031591862E-2,-1.986780763E-1,2.428117767E-2
7.395978097E0,-5.772506446E-2,-1.860029846E-1,2.657185495E-2
7.405131899E0,-9.269607067E-2,-1.974563748E-1,2.443389036E-2
7.414285701E0,-1.339282542E-1,-2.047865391E-1,2.000524849E-2
7.423439503E0,-1.614163816E-1,-1.675248593E-1,1.542389300E-2
7.432593305E0,-1.731752008E-1,-9.101624042E-2,1.160609815E-2
7.441747107E0,-1.672194302E-1,4.123218823E-3,6.108472589E-3
7.450900909E0,-1.371352077E-1,1.000262350E-1,7.482878864E-3
7.460054711E0,-9.177979827E-2,1.893626451E-1,1.695101149E-2
7.469208565E0,-5.573981255E-2,2.828222811E-1,3.115320951E-2
7.478362367E0,-4.734066129E-2,3.762819171E-1,4.627167806E-2
7.487516170E0,-5.299099907E-2,4.517215490E-1,5.971032009E-2
7.496669972E0,-6.291726977E-2,5.276193023E-1,6.200099736E-2
7.505823774E0,-7.269082218E-2,5.969504714E-1,5.146388337E-2
7.514977576E0,-7.620319724E-2,6.426113248E-1,3.252761811E-2
7.524131378E0,-6.505523622E-2,6.581879258E-1,1.542389300E-2
7.533285180E0,-4.535540938E-2,6.594096422E-1,1.007897966E-2
7.542438982E0,-3.588727489E-2,6.407787800E-1,8.399149403E-3
7.551592784E0,-4.474456236E-2,5.937435627E-1,-1.985253533E-3
7.560746638E0,-7.055285573E-2,5.212054253E-1,-2.596100792E-2
7.569900440E0,-1.010952219E-1,4.390464723E-1,-6.093201414E-2
7.579054242E0,-1.174353883E-1,3.552076817E-1,-8.903098851E-2
7.588208045E0,-1.142284349E-1,2.822114229E-1,-1.061347127E-1
7.597361847E0,-1.099525094E-1,2.177670449E-1,-1.169772521E-1
7.606515649E0,-1.217113137E-1,1.621799469E-1,-1.230857223E-1
7.615669451E0,-1.452289373E-1,1.001789495E-1,-1.238492802E-1
7.624823253E0,-1.730224788E-1,3.451287001E-2,-1.154501289E-1
7.633977055E0,-1.947075576E-1,-2.519745007E-2,-1.021642014E-1
7.643130857E0,-2.023431510E-1,-7.574506104E-2,-8.933641016E-2
7.652284711E0,-1.873773932E-1,-1.094943732E-1,-7.635590434E-2
7.661438513E0,-1.504211426E-1,-1.177408099E-1,-5.772506446E-2
7.670592315E0,-1.026223376E-1,-9.590301663E-2,-3.481829539E-2
7.679746117E0,-6.306997687E-2,-5.115845799E-2,-1.878355257E-2
7.688899920E0,-3.878879920E-2,-8.246437646E-3,-1.252236869E-2
7.698053722E0,-3.405473381E-2,7.330167107E-3,-1.618745178E-2
7.707207524E0,-4.688252881E-2,1.511846948E-2,-2.535016090E-2
7.716361326E0,-7.101099193E-2,2.290677279E-2,-4.031591862E-2
7.725515128E0,-8.872556686E-2,1.557660475E-2,-5.497625470E-2
7.734668930E0,-9.788827598E-2,1.527118147E-3,-6.551336497E-2
7.743822732E0,-1.014006436E-1,-3.817795310E-3,-6.856760383E-2
7.752976534E0,-1.088835225E-1,3.359660041E-3,-7.040014863E-2
7.762130388E0,-1.163664013E-1,6.413896102E-3,-6.933116168E-2
7.771284190E0,-1.311794519E-1,1.603474095E-2,-6.505523622E-2
7.780437992E0,-1.603474021E-1,3.939964995E-2,-6.536065787E-2
7.789591795E0,-1.959292591E-1,8.765657991E-2,-7.406523079E-2
7.798745597E0,-2.316638231E-1,1.627907902E-1,-8.964183182E-2
7.807899399E0,-2.716743052E-1,2.338017821E-1,-1.119377613E-1
7.817053201E0,-3.193204105E-1,2.696890533E-1,-1.374406368E-1
7.826207003E0,-3.704788685E-1,2.797680497E-1,-1.652341783E-1
7.835360805E0,-4.262186885E-1,2.554868758E-1,-2.028012872E-1
7.844514607E0,-4.662291706E-1,2.081461996E-1,-2.556395829E-1
7.853668409E0,-4.566083252E-1,1.302631795E-1,-3.104631305E-1
7.862822211E0,-3.982724249E-1,1.756185852E-2,-3.436015844E-1
7.871976013E0,-3.275668323E-1,-9.025268257E-2,-3.539859951E-1
7.881129815E0,-2.707580328E-1,-1.659977436E-1,-3.431434333E-1
7.890283617E0,-2.409792393E-1,-2.057028115E-1,-3.173351586E-1
7.899437472E0,-2.183778882E-1,-1.976090819E-1,-2.829749882E-1
7.908591274E0,-1.908897758E-1,-1.233911440E-1,-2.382304370E-1
7.917745076E0,-1.737860441E-1,6.413896102E-3,-1.881409585E-1
7.926898878E0,-1.876828223E-1,1.560714692E-1,-1.375933439E-1
7.936052680E0,-2.223484069E-1,2.929012477E-1,-1.007898003E-1
7.945206482E0,-2.493783981E-1,3.544441164E-1,-8.628217876E-2
7.954360284E0,-2.498365343E-1,3.442124426E-1,-9.239064902E-2
7.963514086E0,-2.191414535E-1,3.025220931E-1,-1.110214889E-1
7.972667888E0,-1.656923145E-1,2.458660156E-1,-1.314848661E-1
7.981821690E0,-1.094943732E-1,1.766875684E-1,-1.524063945E-1
7.990975492E0,-8.170082420E-2,1.168245375E-1,-1.728697717E-1
8.000129295E0,-8.857285231E-2,5.833591148E-2,-1.973036677E-1
8.009283097E0,-1.220167428E-1,8.857285604E-3,-2.157817930E-1
8.018436899E0,-1.728697717E-1,-1.649287529E-2,-2.199050188E-1
8.027590701E0,-2.338017821E-1,-3.344388679E-2,-2.079934925E-1
8.036744503E0,-2.909159958E-1,-4.856235534E-2,-1.870719790E-1
8.045898305E0,-3.310792148E-1,-6.780404598E-2,-1.611109674E-1
8.055052107E0,-3.495573401E-1,-8.887827396E-2,-1.325538605E-1
8.064205909E0,-3.475720882E-1,-9.849911928E-2,-1.093416587E-1
8.073359763E0,-3.405473530E-1,-6.887302548E-2,-9.651386738E-2
8.082513565E0,-3.271087110E-1,1.068982668E-2,-9.391776472E-2
8.091667367E0,-2.971771955E-1,1.186570823E-1,-9.865183383E-2
8.100821170E0,-2.564031482E-1,2.434226274E-1,-1.003316641E-1
8.109974972E0,-2.211267054E-1,3.665083647E-1,-9.529217333E-2
8.119128774E0,-2.058555335E-1,4.587462842E-1,-9.345962852E-2
8.128282576E0,-2.026485801E-1,5.086830258E-1,-1.075091213E-1
8.137436378E0,-1.982199401E-1,5.236487985E-1,-1.362189353E-1
8.146590180E0,-1.826433241E-1,5.048652887E-1,-1.678302884E-1
8.155743982E0,-1.484358907E-1,4.758500159E-1,-1.834068894E-1
8.164897784E0,-1.081199646E-1,4.446968138E-1,-1.769929975E-1
8.174051586E0,-9.162709117E-2,3.910949528E-1,-1.591257155E-1
8.183192628E0,-8.979454637E-2,3.206948042E-1,-1.499630064E-1
8.192359190E0,-6.978929788E-2,3.025220931E-1,-1.624853760E-1
8.201512992E0,-3.512371797E-3,3.936910629E-1,-1.542389393E-1
8.210666795E0,4.504998401E-2,5.277720094E-1,-1.052184403E-1
8.219820597E0,3.390202299E-2,5.893148780E-1,-6.245913357E-2
8.228974399E0,5.512896553E-2,5.376983285E-1,-4.092676565E-2
8.238128201E0,1.388150454E-1,4.016320705E-1,-2.260134928E-2
8.247282003E0,2.328855246E-1,2.156290859E-1,-1.206423342E-2
8.256435805E0,3.026748300E-1,-6.108472589E-3,-2.290677279E-2
8.265589607E0,3.385621011E-1,-2.098260373E-1,-4.932591692E-2
8.274743409E0,3.535278440E-1,-3.681881726E-1,-6.016845629E-2
8.283897211E0,3.628432751E-1,-5.303681493E-1,-4.107947648E-2
8.293051013E0,3.936910629E-1,-7.507312894E-1,1.527118147E-3
8.302204815E0,4.306473136E-1,-9.866710305E-1,4.764608666E-2
8.311358617E0,4.685198367E-1,-1.176186442E0,9.880454093E-2
8.320499711E0,5.292991400E-1,-1.252389550E0,1.682884246E-1
8.329666222E0,6.328377724E-1,-1.162595034E0,2.525853515E-1
8.338820076E0,7.718055248E-1,-9.475768209E-1,3.523061574E-1
8.347961117E0,9.344435930E-1,-7.142331600E-1,4.601207078E-1
8.357127680E0,1.116170645E0,-5.418215394E-1,5.741963983E-1
8.366281430E0,1.318971992E0,-4.451549351E-1,6.751389503E-1
8.375435284E0,1.557813168E0,-3.723114133E-1,7.360709310E-1
8.384589086E0,1.846591234E0,-2.794626355E-1,7.692093849E-1
8.393742888E0,2.177670479E0,-1.638597846E-1,7.750124335E-1
8.402896690E0,2.530434847E0,-4.932591692E-2,7.737907767E-1
8.412050492E0,2.878312349E0,4.291202128E-2,8.202151656E-1
8.421204295E0,3.190455198E0,9.941539168E-2,9.626953006E-1
8.430345336E0,3.416010618E0,1.333174109E-1,1.192068458E0
8.439511899E0,3.460449696E0,1.546970755E-1,1.451373100E0
8.448665701E0,3.273072243E0,1.632489264E-1,1.690061688E0
8.457806742E0,2.965816259E0,1.617218107E-1,1.902178407E0
8.466973305E0,2.692003965E0,1.143811494E-1,2.069397688E0
8.476127107E0,2.522188425E0,-3.069507517E-2,2.163010120E0
8.485268149E0,2.466753960E0,-2.664821148E-1,2.177365065E0
8.494434711E0,2.517759800E0,-5.015056133E-1,2.132162333E0
8.503588513E0,2.623283625E0,-7.004891038E-1,2.065885544E0
8.512729555E0,2.733388662E0,-8.561024070E-1,2.005106211E0
8.521896117E0,2.813409805E0,-1.030957460E0,1.961125135E0
8.531049920E0,2.847617149E0,-1.399145603E0,1.925696015E0
8.540190961E0,2.863041162E0,-1.946312070E0,1.896222591E0
8.549357524E0,2.888391256E0,-2.420787573E0,1.849798203E0
8.558511326E0,2.906105757E0,-2.706664085E0,1.784132123E0
8.567652367E0,2.883962631E0,-2.813104391E0,1.694337606E0
8.576818930E0,2.847159147E0,-2.786990643E0,1.582247138E0
8.585972732E0,2.847311735E0,-2.610303164E0,1.461757541E0
8.595113774E0,2.898317575E0,-2.314805746E0,1.353332043E0
8.604280336E0,2.953446388E0,-1.971509576E0,1.265522838E0
8.613434138E0,2.940007925E0,-1.548803210E0,1.214975238E0
8.622575180E0,2.824557781E0,-1.039662004E0,1.227344871E0
8.631741742E0,2.657643795E0,-5.256340504E-1,1.294690728E0
8.640895545E0,2.518828630E0,-5.314370990E-2,1.371504784E0
8.650049347E0,2.440945625E0,3.626905680E-1,1.436560035E0
8.659203149E0,2.411472321E0,6.739172339E-1,1.487565756E0
8.668356951E0,2.402004242E0,9.042066336E-1,1.509861708E0
8.677497992E0,2.384747744E0,1.033095479E0,1.499935389E0
8.686664555E0,2.345500708E0,1.026070714E0,1.455038190E0
8.695818357E0,2.280903578E0,9.155073166E-1,1.378987670E0
8.704959399E0,2.186069727E0,7.455390692E-1,1.277587056E0
8.714125961E0,2.050919771E0,5.454866290E-1,1.163816690E0
8.723279763E0,1.866138339E0,3.115321100E-1,1.041189194E0
8.732420805E0,1.642110109E0,5.222744122E-2,9.115368128E-1
8.741587367E0,1.431673288E0,-2.072299272E-1,7.655443549E-1
8.750741170E0,1.278350592E0,-4.249969721E-1,6.131379604E-1
8.759882211E0,1.179393291E0,-5.928272605E-1,4.618005157E-1
8.769048774E0,1.083337665E0,-6.826218367E-1,3.310792148E-1
8.778202576E0,9.489512444E-1,-7.007945180E-1,2.159345001E-1
8.787343617E0,7.588250041E-1,-6.911736727E-1,1.163664013E-1
8.796510180E0,5.390726924E-1,-6.948387623E-1,3.909422457E-2
8.805663982E0,3.182514310E-1,-7.218687534E-1,-1.801999472E-2
8.814805024E0,1.244601309E-1,-7.362236381E-1,-5.726693198E-2
8.823971586E0,-2.412846684E-2,-7.262973785E-1,-9.116895497E-2
8.833125388E0,-1.365243644E-1,-6.832326651E-1,-1.256818175E-1
8.842266430E0,-2.350234836E-1,-5.986303091E-1,-1.722589284E-1
8.851432992E0,-3.315373361E-1,-4.669927359E-1,-2.170034945E-1
8.860586795E0,-4.225535989E-1,-2.701472044E-1,-2.452551723E-1
8.869740597E0,-5.154023767E-1,-8.124268800E-2,-2.704526186E-1
8.878894399E0,-6.258130074E-1,8.292251825E-2,-2.958027720E-1
8.888048201E0,-7.565343380E-1,2.382304370E-1,-3.188622594E-1
8.897189242E0,-8.660287261E-1,3.770454824E-1,-3.446705639E-1
8.906355805E0,-8.194515705E-1,5.470137000E-1,-3.652866483E-1
8.915509607E0,-6.216897964E-1,9.739959836E-1,-3.593308926E-1
8.924650649E0,-3.930802047E-1,1.526965380E0,-3.324536085E-1
8.933817211E0,-2.938175201E-1,1.574306130E0,-2.909159958E-1
8.942971013E0,-4.703523815E-1,9.726215601E-1,-2.977880239E-1
8.952112055E0,-8.448017836E-1,5.917583108E-1,-3.000787199E-1
8.961278617E0,-1.214822531E0,7.067502737E-1,-3.541387022E-1
8.970432420E0,-1.231620789E0,3.054236174E-1,-4.987567961E-1
8.979573461E0,-6.462764144E-1,4.978405312E-2,-4.741701782E-1
8.988740024E0,-2.279987335E-1,4.198047817E-1,-1.895153672E-1
8.997893826E0,-2.367033064E-1,4.120164812E-1,-7.635590737E-4
9.007034867E0,-4.498890042E-1,-3.054236295E-3,-1.718007922E-1
9.016201430E0,-7.481352091E-1,-9.468132630E-3,-3.374931216E-1
9.025355232E0,-8.735115528E-1,2.451024652E-1,-3.501681983E-1
9.034496274E0,-8.252546191E-1,3.901786804E-1,-4.172086716E-1
9.043662784E0,-9.559759498E-1,5.925218463E-1,-5.312843919E-1
9.052816586E0,-1.211004734E0,5.346440673E-1,-6.209262609E-1
9.061957628E0,-1.286138892E0,3.373403847E-1,-6.390989423E-1
9.071124190E0,-1.249640822E0,3.474193811E-1,-5.404471159E-1
9.080277992E0,-1.256054640E0,3.906368315E-1,-4.085040987E-1
9.089419034E0,-1.283848286E0,3.214583695E-1,-4.019374847E-1
9.098585597E0,-1.270562291E0,1.437018216E-1,-5.636593103E-1
9.107739399E0,-1.213295341E0,8.399149776E-2,-7.415685654E-1
9.116880440E0,-1.202605486E0,1.615691036E-1,-7.805100679E-1
9.126047003E0,-1.196191669E0,2.180724740E-1,-6.748335361E-1
9.135200805E0,-1.206270576E0,2.571666837E-1,-5.407525301E-1
9.144341847E0,-1.257429123E0,2.205158621E-1,-4.731011987E-1
9.153508409E0,-1.277281642E0,9.345962852E-2,-4.659237564E-1
9.162662211E0,-1.311489105E0,-3.817795310E-3,-5.076140761E-1
9.171803253E0,-1.362189412E0,-8.979454637E-2,-5.775560737E-1
9.180969815E0,-1.368603230E0,-1.575985998E-1,-6.471926570E-1
9.190123617E0,-1.350736022E0,-2.076880634E-1,-7.007945180E-1
9.199277420E0,-1.366159916E0,-1.916533262E-1,-7.314895988E-1
9.208431222E0,-1.417623758E0,-1.556133330E-1,-7.464553714E-1
9.217585024E0,-1.446639061E0,-1.484358907E-1,-7.514948249E-1
9.226738826E0,-1.426175594E0,-1.030804738E-1,-7.183563709E-1
9.235892628E0,-1.424801230E0,-1.603474095E-2,-6.445965767E-1
9.245046430E0,-1.445111871E0,1.496575773E-2,-5.549547076E-1
9.254200232E0,-1.447708011E0,-1.588202827E-2,-4.645493329E-1
9.263354034E0,-1.449540496E0,-5.115845799E-2,-3.808632791E-1
9.272507836E0,-1.461452127E0,-7.207997888E-2,-3.034383655E-1
9.281661638E0,-1.448929667E0,-1.108687744E-1,-2.391466945E-1
9.290815440E0,-1.467407823E0,-1.475196183E-1,-1.959292591E-1
9.299969242E0,-1.511083364E0,-1.583621502E-1,-1.766875684E-1
9.309122992E0,-1.503905892E0,-1.421747059E-1,-1.827960461E-1
9.318276795E0,-1.508640051E0,-8.200624585E-2,-2.108950168E-1
9.327430597E0,-1.538266063E0,-5.390727147E-2,-2.557922900E-1
9.336584399E0,-1.544069171E0,-5.405998230E-2,-3.162661791E-1
9.345738201E0,-1.520093441E0,-2.351761982E-2,-3.727695346E-1
9.354892003E0,-1.474585295E0,-1.527118147E-4,-4.133908749E-1
9.364045805E0,-1.430909753E0,2.748812735E-2,-4.376720488E-1
9.373199607E0,-1.410293579E0,7.207997888E-2,-4.534013867E-1
9.382353409E0,-1.371657491E0,9.391776472E-2,-4.677563012E-1
9.391507211E0,-1.308282137E0,1.377460510E-1,-5.045598149E-1
9.400661013E0,-1.255901933E0,2.273878902E-1,-5.661026835E-1
9.409814815E0,-1.213448048E0,3.465031087E-1,-6.390989423E-1
9.418968617E0,-1.160762548E0,4.782933891E-1,-6.986565590E-1
9.428122420E0,-1.097692490E0,6.006155610E-1,-7.392778993E-1
9.437276222E0,-1.016297102E0,6.897992492E-1,-7.673768401E-1
9.446430024E0,-9.434536099E-1,7.650861740E-1,-7.895200849E-1
9.455583826E0,-8.667922616E-1,8.092198968E-1,-7.957812548E-1
9.464737628E0,-7.768449783E-1,8.070819378E-1,-7.762341499E-1
9.473891430E0,-6.894938350E-1,7.302678823E-1,-7.345438004E-1
9.483045232E0,-6.096255779E-1,6.745280623E-1,-6.882721782E-1
9.492199034E0,-5.544965863E-1,6.223006248E-1,-6.505523324E-1
9.501352836E0,-5.250232220E-1,5.399889946E-1,-6.148177385E-1
9.510506638E0,-5.274665952E-1,4.624113739E-1,-5.769452453E-1
9.519660440E0,-5.409052372E-1,4.292729199E-1,-5.433486104E-1
9.528814242E0,-5.473191738E-1,4.451549351E-1,-5.154023767E-1
9.537968045E0,-5.557183027E-1,4.711159468E-1,-4.940227270E-1
9.547121847E0,-5.664080977E-1,4.969242513E-1,-4.892886579E-1
9.556275649E0,-5.688515306E-1,5.034908652E-1,-5.015056133E-1
9.565429451E0,-5.708367825E-1,5.360184908E-1,-5.241069198E-1
9.574583253E0,-5.778614879E-1,5.653391480E-1,-5.456393361E-1
9.583737055E0,-6.048914790E-1,5.641174316E-1,-5.561764240E-1
9.592890857E0,-6.284091473E-1,5.712949038E-1,-5.599942207E-1
9.602044607E0,-6.445965767E-1,5.888567567E-1,-5.589252710E-1
9.611198409E0,-6.563553810E-1,6.079457402E-1,-5.688515306E-1
9.620352211E0,-6.716265678E-1,6.748335361E-1,-5.983248949E-1
9.629506013E0,-7.160657048E-1,7.653915882E-1,-6.401679516E-1
9.638659815E0,-7.821899056E-1,7.989882231E-1,-6.827745438E-1
9.647813617E0,-8.554915786E-1,7.366818190E-1,-7.052231431E-1
9.656967420E0,-9.213103652E-1,5.804576278E-1,-7.069029808E-1
9.666121222E0,-9.659022093E-1,3.930802047E-1,-7.064448595E-1
9.675275024E0,-1.000262380E0,2.447970361E-1,-7.072083950E-1
9.684428826E0,-1.041189194E0,1.308740228E-1,-7.091936469E-1
9.693582628E0,-1.089904189E0,-1.832541777E-3,-7.033905983E-1
9.702736430E0,-1.135106921E0,-1.200314835E-1,-6.943806410E-1
9.711890232E0,-1.174964666E0,-2.110477239E-1,-6.989619732E-1
9.721044034E0,-1.203369141E0,-2.816005945E-1,-7.001836896E-1
9.730197836E0,-1.223221660E0,-3.442124426E-1,-6.783458591E-1
9.739351638E0,-1.227344871E0,-3.851391971E-1,-6.361974478E-1
9.748505440E0,-1.221999884E0,-3.836120665E-1,-5.861079693E-1
9.757659242E0,-1.218793035E0,-3.533751369E-1,-5.494571328E-1
9.766813045E0,-1.213600755E0,-3.100049794E-1,-5.360184908E-1
9.775966847E0,-1.200773001E0,-2.321219593E-1,-5.476245880E-1
9.785120649E0,-1.175117373E0,-1.154501289E-1,-5.847335458E-1
9.794274451E0,-1.149461865E0,1.985253533E-3,-6.334486008E-1
9.803428253E0,-1.141062737E0,1.204896197E-1,-6.774296165E-1
9.812582055E0,-1.129609346E0,3.095468581E-1,-7.062921524E-1
9.821735857E0,-1.102273822E0,5.566345453E-1,-7.130114436E-1
9.830876899E0,-1.045923233E0,8.134958148E-1,-7.079719901E-1
9.840043461E0,-9.527690411E-1,9.926267862E-1,-6.988092661E-1
9.849197263E0,-8.057075143E-1,1.018282413E0,-6.720846891E-1
9.858338305E0,-6.113054156E-1,8.875610828E-1,-6.108472347E-1
9.867504815E0,-3.889569938E-1,6.592568755E-1,-5.082249045E-1
9.876658617E0,-1.808107942E-1,4.136963189E-1,-3.857500553E-1
9.885812420E0,-2.733541466E-2,2.093679011E-1,-2.715215981E-1
9.894966222E0,7.513421029E-2,1.282779220E-2,-1.783674061E-1
9.904120024E0,1.556133330E-1,-1.939440072E-1,-9.345962852E-2
9.913273826E0,2.215848416E-1,-3.918585181E-1,-1.527118124E-2
9.922427628E0,2.796153426E-1,-5.668662786E-1,5.482354015E-2
9.931581430E0,3.347443044E-1,-6.913263798E-1,1.224748790E-1
9.940722472E0,3.964398801E-1,-7.330167294E-1,1.950129867E-1
9.949889034E0,4.744756222E-1,-6.844543815E-1,2.724378705E-1
9.959042836E0,5.685460567E-1,-5.526640415E-1,3.451287150E-1
9.968196638E0,6.972821355E-1,-3.526115716E-1,4.027010500E-1
9.977350440E0,8.898517489E-1,-1.743968874E-1,4.320217371E-1
9.986504242E0,1.130372882E0,-6.444438547E-2,4.463766217E-1
9.995658045E0,1.367228866E0,-4.443913698E-2,5.036435723E-1
1.000481185E1,1.557507753E0,-2.177670449E-1,6.247440577E-1
1.001396565E1,1.688839912E0,-5.690042377E-1,7.866185308E-1
1.002310669E1,1.793905735E0,-8.791618943E-1,9.261971712E-1
1.003227325E1,1.903247356E0,-1.014922738E0,1.008814216E0
1.004142706E1,1.967844486E0,-9.639169574E-1,1.073411345E0
1.005056810E1,1.920351028E0,-7.232431769E-1,1.150988936E0
1.005973466E1,1.766723037E0,-3.917058110E-1,1.235896707E0
1.006888846E1,1.581483603E0,-1.133121699E-1,1.320957184E0
1.007802950E1,1.459619522E0,2.962609194E-2,1.403727055E0
1.008719606E1,1.442363143E0,8.292251825E-2,1.457939744E0
1.009634987E1,1.507876515E0,1.191152185E-1,1.466186166E0
1.010550367E1,1.601336122E0,1.554606259E-1,1.448013425E0
1.011465747E1,1.667307615E0,1.591257155E-1,1.430146098E0
1.012381127E1,1.677844763E0,8.429691941E-2,1.421594262E0
1.013295232E1,1.651272893E0,-1.128540337E-1,1.405712247E0
1.014211883E1,1.633558273E0,-3.901786804E-1,1.371046662E0
1.015127263E1,1.668529272E0,-6.850652099E-1,1.307976723E0
1.016042643E1,1.747634053E0,-9.588775039E-1,1.225054145E0
1.016958023E1,1.817881465E0,-1.181989431E0,1.142742515E0
1.017873403E1,1.827960372E0,-1.323247910E0,1.084864736E0
1.018787513E1,1.767028451E0,-1.389830232E0,1.066081166E0
1.019704169E1,1.662726283E0,-1.390441060E0,1.077687263E0
1.020619544E1,1.567739487E0,-1.312252641E0,1.084253907E0
1.021533648E1,1.519329786E0,-1.131594539E0,1.066691995E0
1.022450304E1,1.518718958E0,-9.100096822E-1,1.033553600E0
1.023365685E1,1.533532023E0,-7.540909648E-1,9.999569654E-1
1.024281065E1,1.553689957E0,-7.082774043E-1,9.640696645E-1
1.025196445E1,1.607139111E0,-6.867450476E-1,9.283351302E-1
1.026111825E1,1.686091185E0,-5.963396430E-1,8.933641315E-1
1.027027206E1,1.737707734E0,-5.059342384E-1,8.765658140E-1
1.027942586E1,1.725185394E0,-4.799732268E-1,8.655705452E-1
1.028857966E1,1.698002696E0,-4.523324072E-1,8.548807502E-1
1.029773346E1,1.716633558E0,-3.975088596E-1,8.415948153E-1
1.030688726E1,1.768860936E0,-3.095468581E-1,8.162446618E-1
1.031604106E1,1.816201568E0,-2.029540092E-1,7.823426127E-1
1.032519487E1,1.835748672E0,-1.495048702E-1,7.383615971E-1
1.033434867E1,1.829029441E0,-1.363716573E-1,6.907155514E-1
1.034350247E1,1.814369082E0,-1.414111406E-1,6.400152445E-1
1.035265627E1,1.788255334E0,-1.632489264E-1,5.971031785E-1
1.036181008E1,1.750230074E0,-2.249445021E-1,5.541911721E-1
1.037096388E1,1.709303379E0,-3.283303976E-1,5.062396526E-1
1.038011768E1,1.662420869E0,-4.483618736E-1,4.731011987E-1
1.038927143E1,1.610804200E0,-5.819846988E-1,4.172086716E-1
1.039842523E1,1.535211921E0,-7.107207775E-1,3.672719002E-1
1.040757903E1,1.434574842E0,-8.170081973E-1,3.245126009E-1
1.041673284E1,1.333326817E0,-9.017632604E-1,2.689255178E-1
1.042588664E1,1.244753957E0,-9.558232427E-1,1.968455315E-1
1.043504044E1,1.158929944E0,-9.912523627E-1,1.243074164E-1
1.044419424E1,1.065317631E0,-1.031415582E0,6.749862432E-2
1.045334804E1,9.555178285E-1,-1.068371892E0,2.947338112E-2
1.046250185E1,8.251019120E-1,-1.093416572E0,4.123218823E-3
1.047165565E1,6.791094542E-1,-1.114185452E0,-8.551862091E-3
1.048080945E1,5.146388412E-1,-1.119377613E0,-1.695101149E-2
1.048996325E1,3.332171738E-1,-1.079825282E0,-3.481829539E-2
1.049911706E1,1.458397806E-1,-9.935430884E-1,-7.589777559E-2
1.050827086E1,-4.504998401E-2,-8.579349518E-1,-1.261399537E-1
1.051741190E1,-2.518217862E-1,-6.481089592E-1,-1.747023165E-1
1.052657846E1,-4.912739098E-1,-3.756710589E-1,-2.347180545E-1
1.053573226E1,-7.679877281E-1,-7.574506104E-2,-3.071034551E-1
1.054487331E1,-1.067913771E0,2.133384049E-1,-3.692571819E-1
1.055403987E1,-1.364938259E0,4.326325655E-1,-4.233171642E-1
1.056319367E1,-1.627297044E0,5.680879354E-1,-4.906630516E-1
1.057234747E1,-1.786728263E0,5.989357233E-1,-5.743491650E-1
1.058150127E1,-1.772831440E0,5.245651007E-1,-6.499415040E-1
1.059065508E1,-1.592631459E0,5.169295073E-1,-6.791094542E-1
1.059979612E1,-1.148698330E0,4.840964675E-1,-6.320741773E-1
1.060896268E1,-2.064663768E-1,4.850127101E-1,-4.469874799E-1
1.061811648E1,9.352071285E-1,4.268295169E-1,-7.559234649E-2
1.062725752E1,1.056918502E0,-4.489727318E-1,2.666348219E-1
1.063642409E1,-1.493521482E-1,-1.100594044E0,4.332434237E-1
1.064557789E1,-1.154043198E0,2.701472044E-1,4.837910235E-1
1.065471893E1,-1.043021679E0,-7.524111271E-1,-3.008422814E-2
1.066388549E1,-6.033644080E-1,-2.576859236E0,-7.939487100E-1
1.067303924E1,-5.086830258E-1,-8.026533127E-1,-7.707365155E-1
1.068218034E1,-1.063485026E0,7.838697433E-1,-4.404208660E-1
1.069134685E1,-1.296370625E0,8.980981708E-1,-3.926220834E-1
1.070050065E1,-1.374406338E0,1.943105102E0,-3.145863414E-1
1.070964169E1,-1.228261113E0,3.156247854E0,-2.338017821E-1
1.071880825E1,-1.121515512E0,3.472361326E0,-3.469612300E-1
1.072796206E1,-1.411820769E0,3.511913538E0,-5.908420086E-1
1.073710310E1,-1.544221878E0,3.217027187E0,-8.693883419E-1
1.074626966E1,-1.408308387E0,2.743314981E0,-1.113574505E0
1.075542346E1,-1.222763538E0,2.050003290E0,-1.292552829E0
1.076456450E1,-1.167634487E0,1.356691718E0,-1.364938259E0
1.077373107E1,-1.254680276E0,8.101361990E-1,-1.362189412E0
1.078288487E1,-1.357608080E0,3.941491842E-1,-1.352110386E0
1.079202591E1,-1.459772229E0,9.620844573E-2,-1.362494826E0
1.080119247E1,-1.590340853E0,-4.443913698E-2,-1.387081385E0
1.081034627E1,-1.701209664E0,-1.116323397E-1,-1.415180445E0
1.081948732E1,-1.775732994E0,-1.220167428E-1,-1.400520086E0
1.082865388E1,-1.831167340E0,-9.177979827E-2,-1.344780207E0
1.083780768E1,-1.866596460E0,-3.512371797E-3,-1.278503299E0
1.084694872E1,-1.809940457E0,-1.401894391E-1,-1.118614078E0
1.085611528E1,-1.621799469E0,-7.114843726E-1,-7.237012982E-1
1.086526909E1,-1.627907991E0,-9.217684865E-1,-8.573241234E-1
1.087441013E1,-1.819408536E0,-4.399627447E-1,-1.188097954E0
1.088357669E1,-1.884311080E0,-2.982461751E-1,-1.282168388E0
1.089273049E1,-1.833305359E0,-3.093941510E-1,-1.220014691E0
1.090188430E1,-1.863847733E0,5.818320066E-2,-1.209630251E0
1.091103810E1,-1.946464777E0,4.184303582E-1,-1.209782958E0
1.092019190E1,-2.001746416E0,6.523848772E-1,-1.167023659E0
1.092933294E1,-2.141019583E0,1.401130915E0,-8.466343284E-1
1.093849945E1,-2.324426651E0,1.946006656E0,-4.239279926E-1
1.094765331E1,-2.413151979E0,2.085585356E0,-2.994678617E-1
1.095679435E1,-2.317554474E0,1.642415524E0,-5.519005060E-1
1.096596086E1,-1.979603291E0,6.474980712E-1,-7.266027927E-1
1.097511466E1,-1.838802934E0,1.458855987E0,-6.858287454E-1
1.098426846E1,-1.860182643E0,2.240740538E0,-7.739434838E-1
1.099342226E1,-1.829792976E0,2.243642092E0,-9.978190064E-1
1.100257607E1,-1.610804200E0,1.629740477E0,-1.041647315E0
1.101171711E1,-1.339588046E0,1.179545999E0,-9.764393568E-1
1.102088367E1,-1.122889996E0,1.352873921E0,-8.431219459E-1
1.103003747E1,-9.759812355E-1,1.645011663E0,-7.678350210E-1
1.103917851E1,-8.900044560E-1,1.138772011E0,-6.795675755E-1
1.104834508E1,-8.605310917E-1,4.877615273E-1,-5.775560737E-1
1.105749888E1,-8.812998533E-1,1.786728203E-2,-5.070032477E-1
1.106665268E1,-9.205468297E-1,-2.339545041E-1,-5.028799772E-1
1.107580648E1,-9.411629438E-1,-3.179459870E-1,-5.383091569E-1
1.108496028E1,-9.371923804E-1,-3.384093940E-1,-5.584670901E-1
1.109410133E1,-9.425373077E-1,-3.571929336E-1,-5.548020005E-1
1.110326789E1,-9.620844126E-1,-3.800997138E-1,-5.604523420E-1
1.111242169E1,-9.830059409E-1,-3.724641204E-1,-5.868715048E-1
1.112156273E1,-9.707890153E-1,-3.458922505E-1,-6.088619828E-1
1.113072930E1,-8.878664970E-1,-3.228327632E-1,-5.832064152E-1
1.113988310E1,-7.192726731E-1,-3.468085229E-1,-4.836383164E-1
1.114902414E1,-4.960079789E-1,-4.369085133E-1,-3.310792148E-1
1.115819070E1,-2.896943092E-1,-5.525113344E-1,-1.922641695E-1
1.116734450E1,-1.343863904E-1,-5.862606764E-1,-1.073564067E-1
1.117648554E1,-2.137965336E-2,-4.935645759E-1,-5.054761097E-2
1.118565211E1,4.138490185E-2,-2.811424434E-1,-8.093725890E-3
1.119480591E1,5.329642445E-2,1.481304597E-2,1.435491070E-2
1.120395971E1,3.634541109E-2,3.347443044E-1,2.321219631E-2
1.121311351E1,4.734066315E-3,6.227588058E-1,2.214321308E-2
1.122226732E1,-2.305948362E-2,8.457180262E-1,1.267508045E-2
1.123142112E1,-4.214845970E-2,9.949174523E-1,-4.734066315E-3
1.124057492E1,-5.741964281E-2,1.077992678E0,-5.131116882E-2
1.124972872E1,-7.070557028E-2,1.075854778E0,-1.314848661E-1
1.125888252E1,-9.529217333E-2,9.698727131E-1,-2.200577259E-1
1.126803633E1,-1.406475753E-1,7.641699314E-1,-2.959555089E-1
1.127719013E1,-2.050919682E-1,4.902049303E-1,-3.535278440E-1
1.128634393E1,-2.750339806E-1,1.893626451E-1,-3.862081766E-1
1.129549768E1,-3.300102353E-1,-7.406523079E-2,-3.790307343E-1
1.130465148E1,-3.471139669E-1,-2.553341687E-1,-3.301629424E-1
1.131380528E1,-3.208475113E-1,-3.448232710E-1,-2.554868758E-1
1.132295909E1,-2.594573796E-1,-3.449759781E-1,-1.676775664E-1
1.133211289E1,-2.002051920E-1,-2.463241518E-1,-1.007898003E-1
1.134125398E1,-1.693574041E-1,-5.589252338E-2,-9.345962852E-2
1.135042049E1,-1.310267299E-1,1.640124917E-1,-1.250709742E-1
1.135957430E1,-2.672456764E-2,2.971771955E-1,-1.536280811E-1
1.136871534E1,1.571404636E-1,2.860292196E-1,-1.548497826E-1
1.137788190E1,4.106420577E-1,1.039967462E-1,-1.223221645E-1
1.138703570E1,6.710157394E-1,-3.074088693E-1,-6.291726977E-2
1.139617674E1,8.611419201E-1,-8.498412371E-1,9.773556143E-3
1.140534330E1,9.532271624E-1,-1.341115117E0,1.200314835E-1
1.141449711E1,9.669712186E-1,-1.664558768E0,2.999260128E-1
1.142363815E1,8.973346353E-1,-1.683800459E0,5.057815313E-1
1.143280471E1,7.915053368E-1,-1.430146098E0,6.679614782E-1
1.144195851E1,7.518002391E-1,-1.097234368E0,7.601994276E-1
1.145109956E1,8.400676847E-1,-7.921161652E-1,8.107470274E-1
1.146026612E1,1.036455035E0,-5.280774832E-1,8.918370008E-1
1.146941992E1,1.293621778E0,-3.359659910E-1,1.048061132E0
1.147856096E1,1.561783671E0,-2.406738251E-1,1.270256877E0
1.148772752E1,1.800166845E0,-1.910424829E-1,1.526659966E0
1.149688133E1,2.057638884E0,-1.637070626E-1,1.780008912E0
1.150602237E1,2.414679289E0,-2.214321345E-1,1.995638013E0
1.151518893E1,2.855710983E0,-3.996468186E-1,2.169882059E0
1.152434273E1,3.173198700E0,-5.546492934E-1,2.309002638E0
1.153348377E1,3.222372055E0,-4.450022280E-1,2.440029383E0
1.154265034E1,3.029496908E0,-2.906105816E-1,2.553341627E0
1.155180414E1,2.706053257E0,-3.170297146E-1,2.543720722E0
1.156094518E1,2.452704430E0,-4.978405237E-1,2.346569777E0
1.157011174E1,2.373446941E0,-7.340856791E-1,2.056111813E0
1.157926554E1,2.437738657E0,-9.373451471E-1,1.854074121E0
1.158840659E1,2.536848783E0,-1.128845692E0,1.826738715E0
1.159757315E1,2.546469450E0,-1.361578584E0,1.941883445E0
1.160672695E1,2.449650288E0,-1.653258085E0,2.132467747E0
1.161586799E1,2.325495481E0,-1.978839636E0,2.290677309E0
1.162503456E1,2.273878813E0,-2.228370905E0,2.330840349E0
1.163418836E1,2.346416950E0,-2.301367044E0,2.237228155E0
1.164332940E1,2.523410082E0,-2.221651554E0,2.059471607E0
1.165249596E1,2.723615170E0,-2.040688038E0,1.856822968E0
1.166164976E1,2.860903025E0,-1.797876239E0,1.673874259E0
1.167079081E1,2.900150061E0,-1.505891204E0,1.543305635E0
1.167995737E1,2.868233204E0,-1.147781968E0,1.479777455E0
1.168911117E1,2.803178072E0,-8.134958148E-1,1.460841179E0
1.169825221E1,2.723767996E0,-5.515950918E-1,1.447249889E0
1.170741877E1,2.627712250E0,-3.466558158E-1,1.447708011E0
1.171657258E1,2.532419920E0,-1.870719790E-1,1.476723194E0
1.172571362E1,2.456675053E0,-5.925218388E-2,1.517039180E0
1.173488018E1,2.408265352E0,3.710897267E-2,1.538724303E0
1.174403398E1,2.374821424E0,5.451811850E-2,1.528034449E0
1.175317502E1,2.331604004E0,2.596100792E-2,1.470920205E0
1.176234159E1,2.253415585E0,-1.496575773E-2,1.370283127E0
1.177149539E1,2.133383989E0,-1.059819981E-1,1.250404358E0
1.178064914E1,1.987086177E0,-2.388412803E-1,1.110825777E0
1.178980299E1,1.831472754E0,-3.921639323E-1,9.345963001E-1
1.179895674E1,1.655243397E0,-5.077667832E-1,7.282826304E-1
1.180809784E1,1.445111871E0,-5.619794726E-1,5.289937258E-1
1.181726435E1,1.211768270E0,-5.775560737E-1,3.497100472E-1
1.182641815E1,9.663603902E-1,-5.645755529E-1,1.892099380E-1
1.183557200E1,7.235485911E-1,-5.082249045E-1,5.665608495E-2
1.184472575E1,4.799732268E-1,-3.926220834E-1,-4.886778072E-2
1.185387956E1,2.191414535E-1,-2.434226274E-1,-1.553079188E-1
1.186302065E1,-7.314895838E-2,-1.156028435E-1,-2.880144715E-1
1.187218716E1,-3.761292100E-1,-5.146388337E-2,-4.550811946E-1
1.188134096E1,-6.662816405E-1,-6.413896382E-2,-6.355865598E-1
1.189048206E1,-9.150491953E-1,-1.447708011E-1,-8.217422962E-1
1.189964857E1,-1.128082156E0,-2.073826492E-1,-1.013701081E0
1.190880237E1,-1.274685502E0,-1.324011385E-1,-1.205201626E0
1.191794346E1,-1.302020907E0,3.115321100E-1,-1.373642802E0
1.192710997E1,-1.199856758E0,1.139382839E0,-1.466949701E0
1.193626377E1,-8.029587269E-1,1.916227818E0,-1.441599488E0
1.194540487E1,-5.048652887E-1,1.913937211E0,-1.238645554E0
1.195457138E1,-1.027445078E0,1.155875683E0,-9.969027042E-1
1.196372518E1,-1.824600816E0,9.898779988E-1,-8.955020905E-1
1.197286622E1,-2.455911398E0,1.115559816E0,-1.011104941E0
1.198203278E1,-2.611677408E0,9.827005267E-1,-1.190541267E0
1.199118659E1,-2.349318504E0,1.011868477E0,-1.062874198E0
1.200032763E1,-2.008924007E0,8.293778896E-1,-5.621321797E-1
1.200949419E1,-1.751299143E0,5.789304972E-1,-2.974826097E-1
1.201864799E1,-1.572015405E0,3.223746419E-1,-4.986040890E-1
1.202780180E1,-1.604084849E0,5.482354015E-2,-6.478035450E-1
1.203695560E1,-1.725032687E0,-3.313846514E-2,-5.777087808E-1
1.204610940E1,-1.776496530E0,1.629435122E-1,-4.932591617E-1
1.205525044E1,-1.771457076E0,1.653869003E-1,-4.926483035E-1
1.206441700E1,-1.755116940E0,-8.246437646E-3,-5.118899941E-1
1.207357081E1,-1.732820988E0,-1.653869003E-1,-5.158604980E-1
1.208272461E1,-1.704111099E0,-2.058555335E-1,-5.199837089E-1
1.209187841E1,-1.696322799E0,-2.246390730E-1,-5.535803437E-1
1.210103221E1,-1.763210654E0,-2.973299026E-1,-6.387935281E-1
1.211018601E1,-1.816201568E0,-4.527905285E-1,-7.508839965E-1
1.211933982E1,-1.819408536E0,-5.285356045E-1,-8.399149776E-1
1.212849362E1,-1.792073131E0,-4.718795121E-1,-8.770239353E-1
1.213763466E1,-1.739540339E0,-4.248442650E-1,-8.761076927E-1
1.214680122E1,-1.654327035E0,-4.347705245E-1,-8.742751479E-1
1.215595502E1,-1.594311357E0,-3.860554695E-1,-8.829796910E-1
1.216510883E1,-1.630656719E0,-2.420482337E-1,-9.066500664E-1
1.217426263E1,-1.758018374E0,-1.091889441E-1,-9.356653094E-1
1.218341643E1,-1.945395827E0,5.115845799E-2,-9.842276573E-1
1.219255747E1,-2.121625185E0,2.735068500E-1,-1.047908425E0
1.220172403E1,-2.219055414E0,4.556920528E-1,-1.117086887E0
1.221087784E1,-2.242420197E0,5.506787896E-1,-1.187487125E0
1.222001888E1,-2.243183851E0,5.937435627E-1,-1.255901933E0
1.222918544E1,-2.236311913E0,6.248967648E-1,-1.319430113E0
1.223833924E1,-2.215390205E0,7.078192830E-1,-1.362647533E0
1.224749304E1,-2.232952118E0,8.325847983E-1,-1.372726560E0
1.225664685E1,-2.288691998E0,9.119949341E-1,-1.357302666E0
1.226580065E1,-2.390092611E0,9.420791864E-1,-1.342184186E0
1.227495445E1,-2.524937153E0,9.901834130E-1,-1.329661727E0
1.228410825E1,-2.669708014E0,1.047755718E0,-1.320346355E0
1.229326206E1,-2.812951565E0,1.057834744E0,-1.301868200E0
1.230240310E1,-2.947032690E0,1.083032131E0,-1.278503299E0
1.231156966E1,-3.047975063E0,1.141978979E0,-1.257123709E0
1.232072346E1,-3.075310469E0,1.230551839E0,-1.240325332E0
1.232986450E1,-2.996205807E0,1.326607585E0,-1.237423778E0
1.233903106E1,-2.833109617E0,1.441294074E0,-1.246128440E0
1.234818487E1,-2.633057117E0,1.542694807E0,-1.266744494E0
1.235732591E1,-2.422620296E0,1.480235577E0,-1.326302052E0
1.236649247E1,-2.260592937E0,1.260025144E0,-1.451983929E0
1.237564627E1,-2.165911674E0,9.115368128E-1,-1.683189631E0
1.238478732E1,-2.161635637E0,4.373666346E-1,-1.999608517E0
1.239395388E1,-2.245627165E0,-3.512371704E-2,-2.289302826E0
1.240310768E1,-2.348402262E0,-5.642701387E-1,-2.386733055E0
1.241224872E1,-2.392688751E0,-1.063332319E0,-2.090013981E0
1.242141528E1,-2.103757858E0,-1.696170092E0,-1.317444801E0
1.243056909E1,-8.675557971E-1,-2.655811071E0,-3.523061574E-1
1.243971013E1,1.159235358E0,-3.202672243E0,3.206948042E-1
1.244887669E1,2.069855928E0,-2.967801332E0,5.198310018E-1
1.245803049E1,1.095554590E0,-1.944479585E0,6.453601122E-1
1.246717153E1,8.368607610E-2,3.084778786E-1,8.509102464E-1
1.247633810E1,-7.649334669E-1,3.213667393E0,8.849649429E-1
1.248549190E1,-1.233911514E0,5.441274643E0,7.175928354E-1
1.249463294E1,-1.323553324E0,6.412980080E0,3.388675153E-1
1.250379950E1,-1.216502309E0,5.911015987E0,-1.704263836E-1
1.251295330E1,-9.509364963E-1,3.575594425E0,-6.658235192E-1
1.252209435E1,-4.604261220E-1,4.613423944E-1,-1.009425044E0
1.253126091E1,1.455343664E-1,-1.416096687E0,-1.037371397E0
1.254041471E1,6.314633489E-1,-1.562547326E0,-7.762341499E-1
1.254955575E1,8.733588457E-1,-9.130639434E-1,-4.152234197E-1
1.255872232E1,8.857285380E-1,-3.023693860E-1,-7.971556485E-2
1.256787612E1,6.221479177E-1,-3.787253052E-2,1.710372269E-1
1.257701716E1,-3.130592033E-2,-8.979454637E-2,2.782409191E-1
1.258618372E1,-6.244385839E-1,-2.075353563E-1,2.948864996E-1
1.259533752E1,-8.848122358E-1,-1.641651988E-1,2.545706034E-1
1.260447856E1,-9.529217482E-1,-3.817795310E-3,1.525591016E-1
1.261364513E1,-9.367342591E-1,1.343864016E-2,8.490777016E-2
1.262279893E1,-8.770239353E-1,-2.635805905E-1,8.918370306E-2
1.263193997E1,-7.298097610E-1,-7.635591030E-1,1.149920002E-1
1.264110653E1,-4.475983381E-1,-1.305380583E0,1.174353883E-1
1.265026034E1,-6.566607952E-2,-1.623632073E0,8.002099395E-2
1.265941414E1,3.323009014E-1,-1.552162886E0,1.313321572E-2
1.266856794E1,6.755970716E-1,-1.196955204E0,-3.283303976E-2
1.267772174E1,8.993198872E-1,-6.849125028E-1,-2.809897438E-2
1.268686278E1,9.909469485E-1,-1.293469071E-1,3.817795217E-2
1.269602935E1,9.556705356E-1,3.747547865E-1,1.640124917E-1
1.270518315E1,8.025006056E-1,7.505785823E-1,3.342861533E-1
1.271432419E1,6.755970716E-1,9.359707236E-1,5.053234100E-1
1.272349075E1,7.159129977E-1,9.245173335E-1,6.253548861E-1
1.273264456E1,9.462023973E-1,7.835643291E-1,6.899519563E-1
1.274179836E1,1.298203111E0,6.215370893E-1,7.298097610E-1
1.275095216E1,1.681815267E0,5.083776116E-1,7.655443549E-1
1.276010596E1,2.031219959E0,4.272876680E-1,8.170081973E-1
1.276924706E1,2.332978487E0,2.863346636E-1,8.735115528E-1
1.277841362E1,2.607401609E0,4.520269856E-2,9.129112363E-1
1.278756742E1,2.883046389E0,-1.873773932E-1,9.321529269E-1
1.279670846E1,3.189844370E0,-3.223746419E-1,9.575030804E-1
1.280587502E1,3.493282795E0,-3.788780272E-1,1.044548869E0
1.281502883E1,3.673177242E0,-3.796415627E-1,1.208408594E0
1.282416987E1,3.642024040E0,-4.320217371E-1,1.418845415E0
1.283333643E1,3.475262880E0,-5.688515306E-1,1.633863688E0
1.284249023E1,3.336295128E0,-7.009472251E-1,1.805817246E0
1.285163127E1,3.324230671E0,-7.892146707E-1,1.920045614E0
1.286079784E1,3.413109064E0,-8.881719112E-1,1.998234153E0
1.286995164E1,3.508401155E0,-9.617789984E-1,2.071688414E0
1.287910544E1,3.546884537E0,-9.029849768E-1,2.150793314E0
1.288825924E1,3.542608738E0,-7.279772162E-1,2.223178625E0
1.289741304E1,3.497864008E0,-5.525113344E-1,2.257691383E0
1.290656685E1,3.433572531E0,-5.256340504E-1,2.225927353E0
1.291572065E1,3.367448330E0,-6.242858768E-1,2.162093878E0
1.292487445E1,3.296284437E0,-7.252284288E-1,2.129260778E0
1.293402825E1,3.236421585E0,-8.649597168E-1,2.146059036E0
1.294318206E1,3.219775915E0,-1.007745266E0,2.183320761E0
1.295233586E1,3.224968195E0,-1.126860499E0,2.234173775E0
1.296147690E1,3.193662167E0,-1.173590302E0,2.284568787E0
1.297064346E1,3.110281467E0,-1.026070714E0,2.298007488E0
1.297979726E1,3.064620733E0,-8.420529366E-1,2.232799530E0
1.298893831E1,3.008117437E0,-2.823641598E-1,2.188665628E0
1.299810487E1,2.829902649E0,2.777827978E-1,2.208365440E0
1.300725867E1,2.772635698E0,-2.744231224E-1,2.006785870E0
1.301639976E1,2.779507637E0,-7.482879162E-1,1.662115335E0
1.302556627E1,2.678717852E0,-6.757497787E-1,1.437781692E0
1.303472013E1,2.504473686E0,-6.852179170E-1,1.401130915E0
1.304386117E1,2.334963560E0,-8.102889061E-1,1.400825500E0
1.305302773E1,2.239518881E0,-9.318475127E-1,1.318361044E0
1.306218153E1,2.244558334E0,-9.868237376E-1,1.145644069E0
1.307132258E1,2.225621939E0,-1.000873208E0,9.414683580E-1
1.308048914E1,2.064969063E0,-8.565605879E-1,7.576032877E-1
1.308964294E1,1.653563499E0,-5.780141950E-1,6.525375843E-1
1.309878398E1,1.278961420E0,-9.926267862E-1,4.602734149E-1
1.310795055E1,9.564340711E-1,-1.193595529E0,2.212794125E-1
1.311710435E1,6.051968932E-1,-1.269035220E0,1.740914769E-2
1.312625815E1,2.761029601E-1,-1.329356313E0,-1.644706279E-1
1.313541195E1,6.872031838E-3,-1.373948216E0,-3.628432751E-1
1.314456575E1,-2.020377368E-1,-1.409530044E0,-6.019899845E-1
1.315370680E1,-3.720059693E-1,-1.329814434E0,-8.017370105E-1
1.316287336E1,-4.964661002E-1,-1.087613583E0,-9.078717232E-1
1.317202716E1,-5.861079693E-1,-6.352811456E-1,-9.081771374E-1
1.318116820E1,-6.980457306E-1,6.887302548E-2,-8.197570443E-1
1.319033476E1,-7.655443549E-1,6.783458591E-1,-7.076665759E-1
1.319948862E1,-6.890357137E-1,1.096012712E0,-5.900784731E-1
1.320862966E1,-4.182776511E-1,1.080741525E0,-4.367557764E-1
1.321779622E1,-2.799207568E-1,7.192726731E-1,-3.261924386E-1
1.322695002E1,-8.599202037E-1,1.122431830E-1,-2.553341687E-1
1.323609106E1,-1.847202063E0,1.089293361E0,-1.287360638E-1
1.324525763E1,-2.509207726E0,2.961845636E0,-4.173613787E-1
1.325441143E1,-2.248834133E0,2.303810358E0,-1.013090134E0
1.326355247E1,-2.021599054E0,2.405974627E0,-1.170230627E0
1.327271903E1,-2.124068737E0,2.573194027E0,-7.247702479E-1
1.328187284E1,-1.728697777E0,2.121625185E0,-1.322484314E-1
1.329101388E1,-9.898779988E-1,1.451373100E0,1.354553849E-1
1.330018044E1,-7.699729800E-1,6.722373962E-1,-8.414421231E-2
1.330933424E1,-1.015075445E0,6.001574174E-2,-3.107685447E-1
1.331847528E1,-1.133274436E0,-9.208522737E-2,-3.400892019E-1
1.332764185E1,-1.044854283E0,-1.753131598E-1,-3.730749488E-1
1.333679570E1,-9.426900148E-1,-4.023956358E-1,-4.326325655E-1
1.334593674E1,-8.941276670E-1,-7.673768401E-1,-5.010474920E-1
1.335510330E1,-9.364288449E-1,-8.470924497E-1,-5.453338623E-1
1.336425711E1,-1.128540277E0,-5.262449384E-1,-5.334223509E-1
1.337341091E1,-1.331036210E0,-2.345653474E-1,-4.972296655E-1
1.338256471E1,-1.388150454E0,-1.774511337E-1,-5.123481154E-1
1.339171851E1,-1.360356808E0,-9.315420687E-2,-5.323534012E-1
1.340085956E1,-1.331647038E0,-2.076880634E-2,-5.063923597E-1
1.341002612E1,-1.304617047E0,-3.374931216E-2,-4.530959427E-1
1.341917992E1,-1.303853512E0,7.009471953E-2,-4.007157981E-1
1.342833372E1,-1.341878772E0,2.257080674E-1,-3.443651497E-1
1.343748752E1,-1.353179336E0,2.929012477E-1,-2.657185495E-1
1.344664133E1,-1.291025639E0,2.528907657E-1,-1.772984117E-1
1.345579513E1,-1.253916740E0,2.116585821E-1,-1.079672500E-1
1.346494898E1,-1.300951958E0,1.375933439E-1,-7.345438004E-2
1.347410278E1,-1.396091461E0,1.939439960E-2,-6.123743951E-2
1.348325659E1,-1.521009684E0,8.246437646E-3,-7.498150319E-2
1.349241039E1,-1.584537745E0,-9.987352788E-2,-1.265980899E-1
1.350156419E1,-1.563463569E0,-2.206685692E-1,-2.154763639E-1
1.351071799E1,-1.497950196E0,-3.293993771E-1,-3.168770075E-1
1.351987180E1,-1.462368369E0,-4.677563012E-1,-4.143071473E-1
1.352902560E1,-1.494132400E0,-5.267030597E-1,-5.030327439E-1
1.353816669E1,-1.481762767E0,-5.738909841E-1,-5.853443742E-1
1.354733320E1,-1.452900171E0,-5.187620521E-1,-6.621584296E-1
1.355648706E1,-1.499477267E0,-3.846810758E-1,-7.414158583E-1
1.356562810E1,-1.537197113E0,-2.518217862E-1,-8.235748410E-1
1.357479466E1,-1.567892194E0,-7.635590434E-2,-9.130639434E-1
1.358394846E1,-1.634321809E0,8.826743066E-2,-1.017976999E0
1.359310226E1,-1.694184899E0,2.757975459E-1,-1.118766785E0
1.360225606E1,-1.737096906E0,4.375193417E-1,-1.205812454E0
1.361140987E1,-1.803526521E0,5.919110179E-1,-1.274227381E0
1.362055091E1,-1.852088928E0,8.079982400E-1,-1.315001488E0
1.362971747E1,-1.874232054E0,9.579612017E-1,-1.335464835E0
1.363887127E1,-1.891946673E0,1.062263370E0,-1.327829242E0
1.364802513E1,-1.923252583E0,1.162442327E0,-1.282321095E0
1.365717893E1,-1.944021344E0,1.195886254E0,-1.208561301E0
1.366633273E1,-1.941272616E0,1.175117373E0,-1.111894727E0
1.367548653E1,-1.910119414E0,1.156792045E0,-1.006676316E0
1.368464034E1,-1.874537468E0,1.133121610E0,-9.210049510E-1
1.369379414E1,-1.825364351E0,1.065317631E0,-8.771766424E-1
1.370293518E1,-1.773442268E0,1.045006990E0,-8.677085042E-1
1.371210174E1,-1.718924165E0,1.081810474E0,-8.599202037E-1
1.372125560E1,-1.623632073E0,1.098914266E0,-8.330429196E-1
1.373040940E1,-1.518566251E0,1.114948988E0,-7.986828089E-1
1.373956320E1,-1.456870675E0,1.163969398E0,-7.721109390E-1
1.374871700E1,-1.428160906E0,1.199551344E0,-7.719582319E-1
1.375787081E1,-1.404032469E0,1.209630251E0,-8.060129285E-1
1.376702461E1,-1.395480514E0,1.242616057E0,-8.675557971E-1
1.377617841E1,-1.419150949E0,1.450151443E0,-9.423846006E-1
1.378533221E1,-1.451525807E0,1.776496530E0,-9.910996556E-1
1.379448607E1,-1.441904902E0,2.024806023E0,-9.985825419E-1
1.380363987E1,-1.381125689E0,2.109255552E0,-9.852966070E-1
1.381278091E1,-1.298203111E0,2.083447218E0,-9.889616966E-1
1.382194747E1,-1.219709277E0,1.928597450E0,-1.025612593E0
1.383110127E1,-1.157250166E0,1.639208674E0,-1.070815206E0
1.384024232E1,-1.094791055E0,1.212226391E0,-1.072495103E0
1.384940888E1,-1.034469843E0,7.134696245E-1,-1.023474574E0
1.385856273E1,-9.544488192E-1,3.420744538E-1,-9.646805525E-1
1.386771653E1,-8.115105629E-1,1.056765765E-1,-8.962656260E-1
1.387687034E1,-6.311579347E-1,-1.214058921E-1,-7.965448499E-1
1.388602419E1,-5.195255876E-1,-3.955236077E-1,-6.671979427E-1
1.389516518E1,-5.528167486E-1,-6.681141853E-1,-5.347967744E-1
1.390433174E1,-6.552863717E-1,-8.377770185E-1,-4.358395338E-1
1.391348560E1,-7.229377031E-1,-8.183826208E-1,-3.794888556E-1
1.392262664E1,-7.298097610E-1,-6.212316751E-1,-3.344388604E-1
1.393179320E1,-7.163711190E-1,-3.515425920E-1,-2.820587158E-1
1.394094700E1,-7.058340311E-1,-1.675248593E-1,-2.223484069E-1
1.395008805E1,-6.872031689E-1,-1.360662282E-1,-1.873773932E-1
1.395925461E1,-6.400152445E-1,-9.926267713E-2,-2.108950168E-1
1.396840841E1,-5.412106514E-1,5.925218388E-2,-2.664821148E-1
1.397756226E1,-4.091149569E-1,3.206948042E-1,-3.121429384E-1
1.398671607E1,-2.800734639E-1,5.980194807E-1,-3.335226178E-1
1.399586987E1,-1.601946950E-1,8.261709213E-1,-3.168770075E-1
1.400501091E1,-3.390202299E-2,9.535325766E-1,-2.702999115E-1
1.401417747E1,1.075091213E-1,9.752176404E-1,-2.112004459E-1
1.402333127E1,2.560977042E-1,8.652651310E-1,-1.490467340E-1
1.403247237E1,3.678827584E-1,6.139014959E-1,-9.559759498E-2
1.404163893E1,4.063661397E-1,2.049392611E-1,-6.077930331E-2
1.405079273E1,3.872771561E-1,-2.800734639E-1,-4.657710344E-2
1.405994653E1,3.671191931E-1,-5.894675851E-1,-3.787253052E-2
1.406910034E1,3.877353072E-1,-7.145385742E-1,-4.734066315E-3
1.407825419E1,4.129327536E-1,-7.340856791E-1,6.016845629E-2
1.408740799E1,4.129327536E-1,-7.006418109E-1,1.371352077E-1
1.409656180E1,4.080459774E-1,-6.594096422E-1,2.011214644E-1
1.410571560E1,4.268295169E-1,-6.471926570E-1,2.458660156E-1
1.411486940E1,4.732539058E-1,-6.801784039E-1,2.730487287E-1
1.412402320E1,5.453338623E-1,-7.559235096E-1,2.950392365E-1
1.413317706E1,6.447492838E-1,-8.574768305E-1,3.269560039E-1
1.414233086E1,7.624900937E-1,-9.617789984E-1,3.914003670E-1
1.415148466E1,8.874083757E-1,-1.043937922E0,4.912739098E-1
1.416063846E1,1.011715770E0,-1.087918997E0,6.026008129E-1
1.416979226E1,1.134801507E0,-1.104717255E0,7.098045349E-1
1.417894612E1,1.275143623E0,-1.139077425E0,8.054021001E-1
1.418809992E1,1.454427361E0,-1.217418551E0,8.831323981E-1
1.419725372E1,1.674943209E0,-1.312710762E0,9.335273504E-1
1.420640752E1,1.925085187E0,-1.374253631E0,9.640696645E-1
1.421556133E1,2.170187712E0,-1.352568507E0,9.834640622E-1
1.422470242E1,2.366575003E0,-1.202758312E0,1.014770031E0
1.423386898E1,2.496532679E0,-9.371923804E-1,1.059361815E0
1.424302278E1,2.526617050E0,-6.629219651E-1,1.082574010E0
1.425216383E1,2.424605370E0,-4.811949134E-1,1.057376623E0
1.426133039E1,2.220429897E0,-3.539859951E-1,9.972081780E-1
1.427048424E1,2.036106586E0,-2.615953386E-1,9.481876493E-1
1.427963804E1,1.963110328E0,-2.298312783E-1,9.371923804E-1
1.428879185E1,2.004189968E0,-2.899997234E-1,9.637642503E-1
1.429794565E1,2.074742794E0,-4.161396921E-1,1.008356094E0
1.430709945E1,2.099176645E0,-5.419742465E-1,1.045312405E0
1.431625330E1,2.052599430E0,-6.505523324E-1,1.059667230E0
1.432540711E1,1.953642249E0,-7.507312894E-1,1.052337170E0
1.433456091E1,1.836512327E0,-8.058602214E-1,1.028361320E0
1.434371471E1,1.745496035E0,-8.025006056E-1,9.935430884E-1
1.435286857E1,1.700751424E0,-7.359182239E-1,9.315420985E-1
1.436202237E1,1.677233815E0,-6.073349118E-1,8.359444737E-1
1.437117617E1,1.649287581E0,-4.776825607E-1,7.343910933E-1
1.438032997E1,1.592478752E0,-4.333961308E-1,6.563553810E-1
1.438948383E1,1.504516840E0,-5.004366040E-1,6.319214702E-1
1.439863763E1,1.413805962E0,-6.355865598E-1,6.571189165E-1
1.440779143E1,1.351804972E0,-7.673768401E-1,7.165238261E-1
1.441694523E1,1.331341624E0,-8.648070097E-1,7.982246280E-1
1.442609903E1,1.350277901E0,-9.487984776E-1,8.767185211E-1
1.443525284E1,1.395022392E0,-9.407047629E-1,9.173398614E-1
1.444440669E1,1.448776960E0,-8.116632700E-1,9.243646264E-1
1.445356049E1,1.498866439E0,-7.036960125E-1,9.214630723E-1
1.446271430E1,1.520398855E0,-6.116108298E-1,9.130639434E-1
1.447186810E1,1.517650008E0,-5.140279531E-1,9.080244303E-1
1.448102195E1,1.506043911E0,-4.530959427E-1,9.011524320E-1
1.449017575E1,1.507570982E0,-3.321481943E-1,8.791618943E-1
1.449932956E1,1.542389274E0,-1.507265568E-1,8.652651310E-1
1.450848336E1,1.587439299E0,4.825693369E-2,8.550334573E-1
1.451763721E1,1.600419760E0,2.495311052E-1,8.574768305E-1
1.452679101E1,1.579192877E0,3.483356535E-1,8.681666851E-1
1.453594482E1,1.550635815E0,3.067980409E-1,8.857285380E-1
1.454509862E1,1.540098667E0,2.290677279E-1,9.058864713E-1
1.455425247E1,1.548192382E0,2.044811249E-1,9.297095537E-1
1.456340627E1,1.561936498E0,1.786728203E-1,9.481876493E-1
1.457256008E1,1.587439299E0,1.510319859E-1,9.477295280E-1
1.458170112E1,1.617981672E0,1.835595965E-1,9.466605186E-1
1.459086768E1,1.629893184E0,2.180724740E-1,9.553651214E-1
1.460002153E1,1.618745208E0,2.211267054E-1,9.735378027E-1
1.460917534E1,1.600419760E0,1.324011385E-1,9.796462655E-1
1.461832914E1,1.582399845E0,-5.131116882E-2,9.741486907E-1
1.462748294E1,1.579650998E0,-1.562241912E-1,9.772028923E-1
1.463663680E1,1.577513099E0,-2.235700935E-1,9.973608851E-1
1.464579060E1,1.518260837E0,-2.887780368E-1,1.007439852E0
1.465494440E1,1.428771734E0,-3.280249834E-1,9.933903813E-1
1.466409820E1,1.356233597E0,-3.510844707E-1,9.856020808E-1
1.467325200E1,1.308587551E0,-3.419217467E-1,1.031110168E0
1.468240586E1,1.262773991E0,-2.869454920E-1,1.099066973E0
1.469155966E1,1.227955699E0,-2.562504113E-1,1.116476059E0
1.470071346E1,1.210241079E0,-3.263451457E-1,1.063943267E0
1.470986726E1,1.169619799E0,-4.233171642E-1,9.709417224E-1
1.471900836E1,1.094485521E0,-5.154023767E-1,8.696937561E-1
1.472817492E1,1.003774762E0,-6.213843822E-1,7.750124335E-1
1.473732872E1,8.875610828E-1,-7.328640223E-1,6.815528274E-1
1.474646982E1,7.423321605E-1,-8.509102464E-1,5.755708218E-1
1.475563638E1,5.705313683E-1,-9.655967951E-1,4.466820657E-1
1.476479018E1,3.753656447E-1,-1.058598280E0,3.037438095E-1
1.477393122E1,1.580567211E-1,-1.087918997E0,1.551551968E-1
1.478309778E1,-6.978929788E-2,-1.048977494E0,1.068982668E-2
1.479225164E1,-2.831276953E-1,-9.600991607E-1,-1.307213157E-1
1.480139268E1,-4.790569544E-1,-8.411366940E-1,-2.678565085E-1
1.481055924E1,-6.621584296E-1,-6.332958937E-1,-3.816268146E-1
1.481971304E1,-8.779402375E-1,-2.243336588E-1,-5.099047422E-1
1.482885414E1,-1.050351858E0,2.663294077E-1,-6.977402568E-1
1.483802070E1,-1.053406119E0,6.904101372E-1,-8.996253014E-1
1.484717450E1,-1.085017443E0,1.106397152E0,-9.917105436E-1
1.485631555E1,-1.269187927E0,1.433353066E0,-9.804098606E-1
1.486548216E1,-1.318208337E0,1.765195847E0,-1.015228152E0
1.487463596E1,-1.413653255E0,1.375627995E0,-1.063179612E0
1.488377700E1,-2.186527729E0,3.046600819E-1,-9.158127308E-1
1.489294357E1,-3.534514904E0,2.649855375E0,-5.851916671E-1
1.490209742E1,-4.005936146E0,3.925762653E0,-6.271874309E-1
1.491123846E1,-2.533030987E0,1.421441555E0,-8.927532434E-1
1.492040502E1,-9.301676750E-1,3.979669809E-1,-7.159129977E-1
1.492955883E1,-1.309809208E0,2.727738380E0,-1.956238300E-1
1.493869992E1,-2.297243834E0,5.515950918E-1,-9.087880254E-1
1.494786648E1,-1.474279881E0,-3.056068897E0,-1.843231559E0
1.495702028E1,-2.490729690E-1,-2.460798264E0,-1.157860994E0
1.496616133E1,-3.964398801E-1,4.138490185E-2,1.992889196E-1
1.497532794E1,-9.988879561E-1,8.153283596E-1,9.973608851E-1
1.498448174E1,-1.225206852E0,1.591257155E-1,9.535325766E-1
1.499362278E1,-1.283237338E0,3.512371704E-2,2.021904439E-1
1.500278935E1,-1.381736517E0,2.757975459E-1,-6.403206587E-1
1.501194315E1,-1.508029222E0,3.220692277E-1,-1.060125470E0
1.502108424E1,-1.618439794E0,1.722589284E-1,-1.295301557E0
1.503025081E1,-1.665933132E0,-2.153236605E-2,-1.498713732E0
1.503940461E1,-1.603626728E0,-2.382304370E-1,-1.618439794E0
1.504854570E1,-1.451525807E0,-3.776563108E-1,-1.601946950E0
1.505771226E1,-1.299119353E0,-3.251234591E-1,-1.464811683E0
1.506686607E1,-1.225817680E0,-2.035648525E-1,-1.259108901E0
1.507601987E1,-1.249640822E0,-3.481829539E-2,-1.054322362E0
1.508517372E1,-1.370893955E0,2.096733153E-1,-9.014578462E-1
1.509432752E1,-1.530630469E0,4.712686539E-1,-8.209787011E-1
1.510346857E1,-1.657228589E0,7.012526393E-1,-8.147175312E-1
1.511263513E1,-1.741678238E0,8.576295376E-1,-8.409839869E-1
1.512178898E1,-1.802762985E0,9.442171454E-1,-8.751913905E-1
1.513094278E1,-1.842773438E0,1.025459886E0,-9.084826112E-1
1.514009659E1,-1.856212139E0,1.101052165E0,-9.440644383E-1
1.514925039E1,-1.811467528E0,1.076465607E0,-9.765920639E-1
1.515840424E1,-1.711899400E0,9.631534219E-1,-9.912523627E-1
1.516755805E1,-1.597365618E0,7.779139876E-1,-9.724688530E-1
1.517671185E1,-1.489245653E0,5.691569448E-1,-9.220739603E-1
1.518586565E1,-1.385096192E0,4.135435820E-1,-8.486195803E-1
1.519501950E1,-1.267813444E0,3.639122546E-1,-7.843278646E-1
1.520417331E1,-1.134037971E0,3.420744538E-1,-7.459971905E-1
1.521332711E1,-9.707890153E-1,2.658712566E-1,-7.258392572E-1
1.522248091E1,-8.060129285E-1,1.624853760E-1,-7.124006152E-1
1.523163476E1,-6.754443645E-1,1.705790907E-1,-7.084301114E-1
1.524078856E1,-5.667135715E-1,2.797680497E-1,-7.017107606E-1
1.524994237E1,-4.633276463E-1,4.246915579E-1,-6.650599241E-1
1.525909617E1,-3.875826001E-1,6.722373962E-1,-5.870242119E-1
1.526825002E1,-3.397837877E-1,1.054169655E0,-4.605788291E-1
1.527740383E1,-3.064926267E-1,1.333326817E0,-3.023693860E-1
1.528655763E1,-3.013004065E-1,1.313321590E0,-1.728697717E-1
1.529569872E1,-2.858765125E-1,1.156792045E0,-1.409530044E-1
1.530486528E1,-2.467822880E-1,9.373451471E-1,-1.863084137E-1
1.531401909E1,-2.008160353E-1,6.449019909E-1,-2.327328026E-1
1.532316013E1,-1.287360638E-1,3.057290614E-1,-2.411319613E-1
1.533232674E1,-4.825693369E-2,-2.244863659E-2,-2.116585821E-1
1.534148055E1,-4.428642802E-3,-2.512109280E-1,-1.812689304E-1
1.535062159E1,-1.634016447E-2,-3.048127890E-1,-1.947075576E-1
1.535978815E1,-6.994201243E-2,-2.021904439E-1,-2.605263591E-1
1.536894200E1,-1.400367320E-1,-3.329117596E-2,-3.521534503E-1
1.537809581E1,-2.431172132E-1,1.511846930E-1,-4.329380095E-1
1.538724961E1,-3.833066523E-1,2.869454920E-1,-4.969242513E-1
1.539640341E1,-5.370874405E-1,3.376458287E-1,-5.470137000E-1
1.540555726E1,-6.705575585E-1,3.416163325E-1,-5.845808387E-1
1.541471106E1,-7.744016051E-1,3.147390485E-1,-6.018372774E-1
1.542386487E1,-8.654178381E-1,2.079934925E-1,-6.016845703E-1
1.543301872E1,-9.513946176E-1,3.603998944E-2,-6.029062271E-1
1.544217252E1,-1.040120125E0,-1.756185889E-1,-6.235223413E-1
1.545132633E1,-1.125180602E0,-4.259132445E-1,-6.769714952E-1
1.546048013E1,-1.190083146E0,-7.085828185E-1,-7.542436719E-1
1.546963398E1,-1.217113137E0,-9.666658044E-1,-8.202151656E-1
1.547878778E1,-1.206881523E0,-1.198176861E0,-8.528954983E-1
1.548792883E1,-1.197718740E0,-1.393495321E0,-8.629744649E-1
1.549709539E1,-1.232384324E0,-1.527881742E0,-8.473978639E-1
1.550624924E1,-1.340046167E0,-1.516428351E0,-7.925743461E-1
1.551539028E1,-1.498561025E0,-1.314695954E0,-7.516475320E-1
1.552455685E1,-1.616301894E0,-1.006370902E0,-7.826480269E-1
1.553371070E1,-1.612025857E0,-6.329904795E-1,-8.513683677E-1
1.554286450E1,-1.477028728E0,-2.502946556E-1,-9.104678631E-1
1.555201830E1,-1.261246920E0,1.059819981E-1,-9.593356252E-1
1.556117211E1,-1.013853788E0,3.828485310E-1,-9.881981611E-1
1.557031320E1,-7.734853625E-1,5.195255876E-1,-9.768974781E-1
1.557947976E1,-5.694623590E-1,4.706578255E-1,-8.892409205E-1
1.558863356E1,-4.202629030E-1,2.461714447E-1,-7.153021693E-1
1.559777466E1,-3.219164908E-1,-3.955236077E-2,-4.920374751E-1
1.560694122E1,-2.609844804E-1,-2.728960216E-1,-2.629697323E-1
1.561609502E1,-2.119639963E-1,-3.920112252E-1,-7.452336699E-2
1.562524883E1,-1.417165697E-1,-4.016320705E-1,7.009471953E-2
1.563440268E1,-1.145338640E-2,-3.304683566E-1,1.869192570E-1
1.564355648E1,2.032594234E-1,-1.875301152E-1,2.945810854E-1
1.565269752E1,4.943281412E-1,2.183778957E-2,3.985778391E-1
1.566186409E1,8.276980519E-1,2.528907657E-1,5.125008225E-1
1.567101794E1,1.154195905E0,4.257605374E-1,6.398624778E-1
1.568015898E1,1.410446286E0,4.604261220E-1,7.789829373E-1
1.568932554E1,1.583010674E0,3.161134422E-1,9.420791864E-1
1.569847940E1,1.710219622E0,5.436540768E-2,1.123958945E0
1.570762044E1,1.836359620E0,-1.479777545E-1,1.303242683E0
1.571678700E1,1.981741190E0,-1.421747059E-1,1.450914979E0
1.572594080E1,2.088486671E0,2.275406010E-2,1.537655234E0
1.573508190E1,2.129719019E0,8.490777016E-2,1.564074397E0
1.574424846E1,2.178434134E0,-1.801999360E-1,1.548192382E0
1.575340226E1,2.295411348E0,-5.803049207E-1,1.526049137E0
1.576254336E1,2.403073072E0,-8.325847983E-1,1.495812178E0
1.577170992E1,2.403073072E0,-9.156600237E-1,1.381736517E0
1.578086372E1,2.304115772E0,-9.924740791E-1,1.174659252E0
1.579000476E1,2.197217703E0,-1.209172130E0,9.940012097E-1
1.579917138E1,2.154152870E0,-1.486496806E0,9.510892034E-1
1.580832518E1,2.146517277E0,-1.577207565E0,1.054322362E0
1.581746622E1,2.101009130E0,-1.458550572E0,1.229788303E0
1.582663278E1,1.965248346E0,-1.238187432E0,1.398992896E0
1.583578664E1,1.775885701E0,-1.063179612E0,1.508640051E0
1.584494044E1,1.633863688E0,-9.759812355E-1,1.519788027E0
1.585409424E1,1.615080118E0,-9.071081877E-1,1.434269309E0
1.586324804E1,1.709914207E0,-8.333483934E-1,1.291331053E0
1.587240190E1,1.840177417E0,-7.227849960E-1,1.148087382E0
1.588155570E1,1.919740200E0,-5.983248949E-1,1.042868972E0
1.589070950E1,1.914242625E0,-5.154023767E-1,9.975135922E-1
1.589986336E1,1.844606042E0,-4.485146105E-1,1.006829023E0
1.590901716E1,1.778481841E0,-3.791834414E-1,1.053864241E0
1.591817096E1,1.758018374E0,-3.151971996E-1,1.096470833E0
1.592731206E1,1.785812020E0,-2.643441558E-1,1.121668339E0
1.593647862E1,1.831778169E0,-1.685938388E-1,1.115865231E0
1.594563242E1,1.854226828E0,-4.566083103E-2,1.092653036E0
1.595478622E1,1.845980406E0,1.832541777E-3,1.059056401E0
1.596394002E1,1.824142575E0,-2.061609551E-2,1.013701081E0
1.597309388E1,1.803221107E0,-6.856760383E-2,9.707890153E-1
1.598224768E1,1.787033677E0,-1.156028435E-1,9.492566586E-1
1.599140148E1,1.786270142E0,-1.572931707E-1,9.243646264E-1
1.600055534E1,1.815132618E0,-1.840177327E-1,8.648070097E-1
1.600970914E1,1.859877229E0,-1.968455315E-1,7.857022882E-1
1.601886294E1,1.873926640E0,-2.096733153E-1,7.192726731E-1
1.602801674E1,1.842009902E0,-2.081461996E-1,6.733064055E-1
1.603717060E1,1.784437537E0,-2.389939874E-1,6.514685750E-1
1.604632440E1,1.724421859E0,-3.465031087E-1,6.468872428E-1
1.605547820E1,1.687465549E0,-4.810422063E-1,6.253548861E-1
1.606463206E1,1.661809921E0,-6.329904795E-1,6.074876189E-1
1.607378586E1,1.638139606E0,-7.481352091E-1,5.964923501E-1
1.608293966E1,1.591715217E0,-7.983773947E-1,5.888567567E-1
1.609209346E1,1.513679504E0,-8.104416132E-1,5.809157491E-1
1.610124732E1,1.410751700E0,-8.054021001E-1,5.601469278E-1
1.611040112E1,1.299730301E0,-7.809682488E-1,5.299099684E-1
1.611955492E1,1.192068458E0,-7.198835015E-1,4.845545888E-1
1.612870877E1,1.081810474E0,-6.160394549E-1,4.227063060E-1
1.613786258E1,9.588775039E-1,-4.909684956E-1,3.564293683E-1
1.614701638E1,8.214368224E-1,-3.901786804E-1,2.979407609E-1
1.615617023E1,6.704048514E-1,-3.122956753E-1,2.417428046E-1
1.616532403E1,4.851654470E-1,-2.382304370E-1,1.708845198E-1
1.617446508E1,2.542651594E-1,-1.504211426E-1,7.757759839E-2
1.618363164E1,-2.458660305E-2,-9.620844387E-3,-3.680354729E-2
1.619278549E1,-3.417690396E-1,1.809635013E-1,-1.687465608E-1
1.620192653E1,-6.610894203E-1,3.975088596E-1,-3.170297146E-1
1.621109310E1,-9.167290330E-1,5.893148780E-1,-4.642439187E-1
1.622024690E1,-1.088377118E0,8.163973689E-1,-5.897729993E-1
1.622938799E1,-1.131289124E0,1.103953719E0,-6.800256968E-1
1.623855456E1,-9.533798695E-1,1.566823244E0,-7.145385742E-1
1.624770836E1,-5.862606764E-1,2.266090631E0,-6.525375843E-1
1.625684945E1,-2.582356930E-1,2.024500608E0,-4.882196784E-1
1.626601601E1,-6.358919740E-1,6.783458591E-1,-3.206948042E-1
1.627516982E1,-1.169467092E0,5.259394646E-1,-2.029540092E-1
1.628431091E1,-1.562547326E0,9.764393568E-1,-4.520269632E-1
1.629347747E1,-1.468476772E0,8.232693672E-1,-8.018897176E-1
1.630263127E1,-1.200162172E0,9.949174523E-1,-6.265766025E-1
1.631177237E1,-1.217723966E0,1.375017166E0,-1.751604527E-1
1.632093893E1,-9.929322004E-1,1.479472041E0,-6.062658876E-2
1.633009273E1,-8.014315963E-1,1.083337665E0,-7.482878864E-2
1.633923377E1,-9.680401683E-1,8.788564801E-1,-2.580829710E-2
1.634840039E1,-1.237423778E0,1.002858520E0,-1.145338640E-1
1.635755419E1,-1.415638566E0,1.059361815E0,-3.875826001E-1
1.636669523E1,-1.513832211E0,9.478822351E-1,-6.826218367E-1
1.637586180E1,-1.485275149E0,7.404996157E-1,-8.733588457E-1
1.638501565E1,-1.415943980E0,5.138752460E-1,-9.148964882E-1
1.639415669E1,-1.428008199E0,3.277195692E-1,-8.945857882E-1
1.640332325E1,-1.445569992E0,1.630962193E-1,-9.025267959E-1
1.641247711E1,-1.455190897E0,6.597150117E-2,-9.342908859E-1
1.642161815E1,-1.453052878E0,4.123219103E-2,-9.385668039E-1
1.643078471E1,-1.400978208E0,6.368082762E-2,-9.095515609E-1
1.643993851E1,-1.342489600E0,1.097997949E-1,-8.541171551E-1
1.644907961E1,-1.317902923E0,1.817270666E-1,-8.101361990E-1
1.645824617E1,-1.279419541E0,2.860292196E-1,-8.044858575E-1
1.646739997E1,-1.248724461E0,5.210527182E-1,-8.305995464E-1
1.647654106E1,-1.254222155E0,8.070819378E-1,-8.681666851E-1
1.648570763E1,-1.325080395E0,1.105633497E0,-9.164236188E-1
1.649486143E1,-1.414416790E0,1.335006714E0,-9.801044464E-1
1.650401523E1,-1.484053373E0,1.448471546E0,-1.055849433E0
1.651316909E1,-1.534906507E0,1.519177079E0,-1.126555085E0
1.652232289E1,-1.567281365E0,1.577360392E0,-1.189625025E0
1.653147669E1,-1.577360392E0,1.556591511E0,-1.245212078E0
1.654063055E1,-1.592020631E0,1.487107635E0,-1.279572248E0
1.654978435E1,-1.649592996E0,1.371962905E0,-1.265828252E0
1.655893815E1,-1.707470775E0,1.212379098E0,-1.228871942E0
1.656809195E1,-1.758018374E0,9.930849075E-1,-1.192984700E0
1.657724580E1,-1.797723532E0,7.997517586E-1,-1.166870952E0
1.658639961E1,-1.828113079E0,6.629219651E-1,-1.152974248E0
1.659555341E1,-1.832236409E0,4.340069890E-1,-1.147934675E0
1.660470726E1,-1.765959382E0,1.774511337E-1,-1.122889996E0
1.661386107E1,-1.661046386E0,-1.679830020E-3,-1.070051670E0
1.662301487E1,-1.561630964E0,-1.259872466E-1,-9.917105436E-1
1.663216867E1,-1.506043911E0,-1.739387512E-1,-9.260444641E-1
1.664132252E1,-1.486802220E0,-1.298050433E-1,-8.990144730E-1
1.665047633E1,-1.472294569E0,-2.672456764E-2,-9.087880254E-1
1.665963013E1,-1.444501042E0,4.688252881E-2,-9.019159675E-1
1.666878398E1,-1.415791273E0,1.230857223E-1,-8.473978639E-1
1.667793778E1,-1.395022392E0,2.246390730E-1,-7.653915882E-1
1.668709159E1,-1.358218908E0,3.492519259E-1,-6.731536984E-1
1.669624544E1,-1.317902923E0,4.941754341E-1,-5.935907960E-1
1.670539924E1,-1.284611821E0,6.076403260E-1,-5.482354164E-1
1.671455305E1,-1.265217423E0,6.528429985E-1,-5.529694557E-1
1.672370685E1,-1.257887244E0,6.719319820E-1,-6.030589342E-1
1.673286070E1,-1.237423778E0,7.006418109E-1,-6.676560640E-1
1.674201450E1,-1.191763043E0,7.197307944E-1,-7.217160463E-1
1.675116830E1,-1.130525589E0,7.065975666E-1,-7.542436719E-1
1.676032216E1,-1.063485026E0,6.751389503E-1,-7.798992395E-1
1.676947596E1,-1.008814216E0,6.360446811E-1,-8.028060198E-1
1.677862976E1,-9.813261032E-1,6.016845703E-1,-8.244910836E-1
1.678778362E1,-9.692618847E-1,5.558710098E-1,-8.341119289E-1
1.679693742E1,-9.686510563E-1,4.859289825E-1,-8.341119289E-1
1.680609122E1,-9.597937465E-1,3.907895386E-1,-8.351809382E-1
1.681524502E1,-9.168817401E-1,2.811424434E-1,-8.371661901E-1
1.682439888E1,-8.483141065E-1,1.299577504E-1,-8.385405540E-1
1.683353992E1,-7.863131166E-1,-5.314370990E-2,-8.446490765E-1
1.684270648E1,-7.366818190E-1,-2.127275616E-1,-8.502993584E-1
1.685186034E1,-6.899519563E-1,-2.974826097E-1,-8.225058317E-1
1.686101414E1,-6.293253899E-1,-2.820587158E-1,-7.499676943E-1
1.687016794E1,-5.578562617E-1,-1.780619770E-1,-6.633801460E-1
1.687932180E1,-5.024218559E-1,-7.406523079E-2,-5.964923501E-1
1.688847560E1,-5.088357925E-1,2.962609194E-2,-5.954233408E-1
1.689762940E1,-5.471664071E-1,2.131856978E-1,-6.484143734E-1
1.690678325E1,-5.334223509E-1,4.040754735E-1,-6.759024858E-1
1.691593706E1,-4.741701782E-1,4.471401870E-1,-6.224533319E-1
1.692509086E1,-4.399627447E-1,3.649812341E-1,-5.250232220E-1
1.693424466E1,-4.561502039E-1,2.707580328E-1,-4.309527278E-1
1.694339851E1,-4.828747511E-1,1.944021434E-1,-3.578037918E-1
1.695255232E1,-4.556920528E-1,7.666133344E-2,-2.890834510E-1
1.696170612E1,-3.576510847E-1,-9.941539168E-2,-2.052446753E-1
1.697085997E1,-2.012741715E-1,-2.657185495E-1,-1.014006436E-1
1.698001377E1,-3.206948191E-2,-3.553603888E-1,6.108472589E-4
1.698916758E1,1.163664013E-1,-3.686463237E-1,7.681404054E-2
1.699830867E1,2.137965411E-1,-3.286358118E-1,1.061347127E-1
1.700747523E1,2.565558553E-1,-2.183778882E-1,1.014006436E-1
1.701662903E1,2.521272004E-1,-4.489727318E-2,7.269082218E-2
1.702578289E1,2.197522968E-1,1.554606259E-1,2.275406010E-2
1.703493669E1,1.969982386E-1,3.263451457E-1,-4.230117425E-2
1.704409049E1,2.353289127E-1,4.027010500E-1,-1.067455560E-1
1.705323159E1,3.694098890E-1,3.787252903E-1,-1.424801201E-1
1.706239815E1,5.914528370E-1,2.910687327E-1,-1.249182671E-1
1.707155195E1,8.457180262E-1,1.491994411E-1,-2.046338283E-2
1.708070575E1,1.047603011E0,-4.932591692E-2,1.612636745E-1
1.708985961E1,1.152516007E0,-2.435753495E-1,3.855973184E-1
1.709901341E1,1.210546613E0,-3.570402265E-1,6.230642200E-1
1.710815445E1,1.308129430E0,-3.492519259E-1,8.551861644E-1
1.711732107E1,1.483137131E0,-2.965663373E-1,1.028514028E0
1.712647487E1,1.689603567E0,-2.101314515E-1,1.161831498E0
1.713561591E1,1.876828194E0,-1.368297935E-1,1.339588046E0
1.714478252E1,2.044963837E0,-1.491994411E-1,1.531852245E0
1.715393633E1,2.209892750E0,-2.519744933E-1,1.682731509E0
1.716307737E1,2.393910408E0,-3.898732662E-1,1.758018374E0
1.717224393E1,2.580066204E0,-5.378510356E-1,1.763057947E0
1.718139778E1,2.767596245E0,-5.599942207E-1,1.735722542E0
1.719055159E1,2.953904629E0,-5.024218559E-1,1.745648742E0
1.719970539E1,3.054389000E0,-3.929274976E-1,1.793905735E0
1.720885924E1,3.023694038E0,-3.452814221E-1,1.820477486E0
1.721800028E1,2.889460325E0,-4.811949134E-1,1.797570825E0
1.722716685E1,2.678870678E0,-7.423321605E-1,1.701056957E0
1.723632070E1,2.469197273E0,-9.515473247E-1,1.569724798E0
1.724546174E1,2.345195293E0,-1.036455035E0,1.486496806E0
1.725462830E1,2.307017326E0,-1.056918502E0,1.505738497E0
1.726378216E1,2.312209606E0,-1.059056401E0,1.596754789E0
1.727293596E1,2.319539785E0,-1.017671585E0,1.675554037E0
1.728208976E1,2.320456028E0,-9.736905098E-1,1.685785770E0
1.729124362E1,2.327022552E0,-9.854493141E-1,1.604695797E0
1.730038466E1,2.353289127E0,-1.033553600E0,1.443126678E0
1.730955122E1,2.408265352E0,-1.078298092E0,1.239561796E0
1.731870508E1,2.464157820E0,-1.107924223E0,1.043479800E0
1.732785888E1,2.483246803E0,-1.108382344E0,9.139801860E-1
1.733701268E1,2.461409092E0,-1.057987452E0,8.687775135E-1
1.734616653E1,2.396506548E0,-9.862129092E-1,8.871029615E-1
1.735532034E1,2.300908804E0,-9.295567870E-1,9.486457705E-1
1.736447414E1,2.204242229E0,-8.432746530E-1,1.028514028E0
1.737362794E1,2.120556355E0,-6.930062175E-1,1.108993173E0
1.738278180E1,2.047101974E0,-5.018110275E-1,1.190846682E0
1.739193560E1,1.967080832E0,-3.359659910E-1,1.252389550E0
1.740108945E1,1.871177912E0,-2.377723008E-1,1.286444306E0
1.741024325E1,1.782452345E0,-2.486148328E-1,1.298050404E0
1.741939706E1,1.720451355E0,-2.806843221E-1,1.283695459E0
1.742855091E1,1.679066420E0,-3.122956753E-1,1.245517612E0
1.743769195E1,1.628518820E0,-3.607053161E-1,1.195122719E0
1.744685851E1,1.549261332E0,-4.237752855E-1,1.131747246E0
1.745601232E1,1.463895440E0,-4.952444136E-1,1.062110662E0
1.746516617E1,1.408002973E0,-5.656445622E-1,9.952229261E-1
1.747431997E1,1.396854997E0,-6.587987542E-1,9.115368128E-1
1.748347377E1,1.434269309E0,-7.331694365E-1,8.191461563E-1
1.749261487E1,1.465269804E0,-7.678350210E-1,7.142331600E-1
1.750178143E1,1.415485859E0,-7.291989326E-1,6.003101468E-1
1.751093523E1,1.269493341E0,-6.297835112E-1,5.070032477E-1
1.752007633E1,1.082726717E0,-5.326588154E-1,4.488200247E-1
1.752924289E1,9.093988538E-1,-4.329380095E-1,4.237752855E-1
1.753839669E1,7.614210844E-1,-2.832804024E-1,4.054498672E-1
1.754755054E1,6.210789680E-1,-9.009996802E-2,3.732276857E-1
1.755670435E1,4.792096615E-1,8.597674966E-2,3.202366829E-1
1.756585815E1,3.478775024E-1,2.018850148E-1,2.544178963E-1
1.757501200E1,2.472404242E-1,2.447970361E-1,1.944021434E-1
1.758416580E1,1.724116355E-1,2.179197669E-1,1.420219839E-1
1.759331961E1,9.009996802E-2,1.447708011E-1,9.208522737E-2
1.760247346E1,-2.672456764E-2,7.864658535E-2,3.145863488E-2
1.761162726E1,-1.685938388E-1,5.512896553E-2,-4.031591862E-2
1.762078107E1,-3.324536085E-1,6.795676053E-2,-1.197260618E-1
1.762992216E1,-5.091412067E-1,9.559759498E-2,-1.973036677E-1
1.763908872E1,-6.971294284E-1,1.209477559E-1,-2.793098986E-1
1.764824252E1,-9.020686746E-1,1.269035190E-1,-3.643703759E-1
1.765739638E1,-1.119224906E0,1.273616552E-1,-4.604261220E-1
1.766655018E1,-1.353179336E0,1.507265568E-1,-5.783196688E-1
1.767570398E1,-1.532157660E0,2.228065431E-1,-6.968240142E-1
1.768485784E1,-1.653105378E0,4.422534108E-1,-8.029587269E-1
1.769401164E1,-1.729003191E0,8.478559852E-1,-9.142856598E-1
1.770316544E1,-1.658450365E0,1.357913494E0,-1.031415582E0
1.771230653E1,-1.391662717E0,1.764126897E0,-1.107313395E0
1.772147310E1,-9.257390499E-1,1.600572586E0,-1.054475069E0
1.773062690E1,-7.305732965E-1,6.846070886E-1,-8.399149776E-1
1.773976799E1,-1.069288135E0,-2.835858464E-1,-4.970769584E-1
1.774893456E1,-1.678913713E0,1.325538605E-1,-1.548497826E-1
1.775808836E1,-2.236769915E0,1.217571259E0,-1.143811494E-1
1.776722945E1,-2.214321375E0,1.363869190E0,-3.487937748E-1
1.777639601E1,-1.692199588E0,1.079825282E0,-4.665345848E-1
1.778554982E1,-1.414416790E0,6.508577466E-1,-3.817795515E-1
1.779469091E1,-1.414264083E0,-2.504473738E-2,-3.196258247E-1
1.780385747E1,-1.268729806E0,-3.658975065E-1,-3.500154912E-1
1.781301127E1,-1.129609346E0,-1.643179059E-1,-3.144336343E-1
1.782215237E1,-1.225664973E0,4.126273096E-1,-2.141019702E-1
1.783131893E1,-1.285833478E0,8.788564801E-1,-2.412846684E-1
1.784047273E1,-1.209630251E0,9.246700406E-1,-4.251496792E-1
1.784961383E1,-1.166412830E0,7.997517586E-1,-6.250494719E-1
1.785878039E1,-1.138619304E0,7.102626562E-1,-7.267554998E-1
1.786793419E1,-1.079367161E0,6.349757314E-1,-7.415685654E-1
1.787707528E1,-1.025307178E0,5.803049207E-1,-7.191199064E-1
1.788624185E1,-9.700254202E-1,5.189147592E-1,-7.041541934E-1
1.789539565E1,-9.315420985E-1,4.159869850E-1,-6.989619732E-1
1.790454950E1,-9.051229358E-1,2.870981991E-1,-6.907155514E-1
1.791370331E1,-8.922951221E-1,2.185306102E-1,-6.714738607E-1
1.792285711E1,-8.848122358E-1,1.933331639E-1,-6.537593007E-1
1.793201091E1,-8.846595287E-1,1.818797737E-1,-6.409314871E-1
1.794116476E1,-9.054283500E-1,2.078407854E-1,-6.288672686E-1
1.795031856E1,-9.269607067E-1,2.735068500E-1,-6.108472347E-1
1.795947242E1,-9.457442760E-1,3.730749488E-1,-5.896202922E-1
1.796862622E1,-9.298622608E-1,4.479037523E-1,-5.657972693E-1
1.797778002E1,-8.872556686E-1,4.895940721E-1,-5.392253995E-1
1.798693388E1,-8.411366940E-1,4.958552718E-1,-5.179984570E-1
1.799608768E1,-7.768449783E-1,4.604261220E-1,-5.120427012E-1
1.800524148E1,-6.759024858E-1,4.201101959E-1,-5.149442554E-1
1.801439534E1,-5.841227174E-1,4.364503622E-1,-5.253286362E-1
1.802354914E1,-5.282301903E-1,5.161659122E-1,-5.435013771E-1
1.803270294E1,-5.157077909E-1,6.558972597E-1,-5.728220344E-1
1.804185680E1,-5.717530251E-1,8.157865405E-1,-6.209262609E-1
1.805101060E1,-6.723901033E-1,9.985825419E-1,-6.839962006E-1
1.806016440E1,-7.670714259E-1,1.072342396E0,-7.299624681E-1
1.806931820E1,-8.290724158E-1,1.035538793E0,-7.345438004E-1
1.807847206E1,-8.333483934E-1,9.477295280E-1,-6.948387623E-1
1.808762586E1,-7.953231335E-1,8.009734750E-1,-6.248967648E-1
1.809677971E1,-7.446228266E-1,6.090146899E-1,-5.499152541E-1
1.810593351E1,-7.172874212E-1,4.237752855E-1,-4.944808483E-1
1.811508732E1,-7.010999322E-1,2.383831441E-1,-4.650074840E-1
1.812424117E1,-6.749862432E-1,7.146912813E-2,-4.524851143E-1
1.813339497E1,-6.490252018E-1,-1.160609815E-2,-4.515688419E-1
1.814254877E1,-6.580352187E-1,-2.916795574E-2,-4.570664763E-1
1.815170263E1,-6.930062175E-1,-5.268557742E-2,-4.592044353E-1
1.816085643E1,-7.191199064E-1,-9.849911928E-2,-4.532486796E-1
1.817001023E1,-7.021689415E-1,-1.472141892E-1,-4.317162931E-1
1.817916409E1,-6.502469182E-1,-1.753131598E-1,-3.953709006E-1
1.818831789E1,-5.807630420E-1,-1.708845198E-1,-3.564293683E-1
1.819747169E1,-5.183038712E-1,-1.417165697E-1,-3.193204105E-1
1.820662554E1,-4.599680007E-1,-1.281252056E-1,-2.901524603E-1
1.821577935E1,-3.978142738E-1,-1.363716573E-1,-2.635805905E-1
1.822493315E1,-3.281776905E-1,-1.313321590E-1,-2.409792393E-1
1.823408700E1,-2.426590770E-1,-6.123743951E-2,-2.148655206E-1
1.824324081E1,-1.195733473E-1,8.002099395E-2,-1.963873953E-1
1.825239461E1,-9.162708884E-4,2.603736520E-1,-2.163926363E-1
1.826154846E1,6.872031838E-2,4.488200247E-1,-2.802261710E-1
1.827070226E1,5.314370990E-2,6.394043565E-1,-3.555130959E-1
1.827985606E1,-3.833066672E-2,8.420529366E-1,-4.344651103E-1
1.828899716E1,-1.491994411E-1,1.000109673E0,-5.160132051E-1
1.829816372E1,-2.235700935E-1,1.026834249E0,-5.911474228E-1
1.830731752E1,-2.582356930E-1,9.891144037E-1,-6.523848772E-1
1.831647138E1,-2.783936262E-1,9.985825419E-1,-7.007945180E-1
1.832562518E1,-3.038965166E-1,1.026223421E0,-7.198835015E-1
1.833477898E1,-3.555130959E-1,1.008050680E0,-7.122479081E-1
1.834392008E1,-4.280512035E-1,9.133693576E-1,-7.049177289E-1
1.835308664E1,-4.532486796E-1,6.849125028E-1,-6.988092661E-1
1.836224049E1,-4.501944184E-1,4.204156399E-1,-6.887302995E-1
1.837139430E1,-4.663818777E-1,2.173089087E-1,-6.801784039E-1
1.838054810E1,-4.941754341E-1,7.986827940E-2,-6.864396334E-1
1.838970195E1,-5.497625470E-1,-3.588727489E-2,-7.050704360E-1
1.839885575E1,-6.248967648E-1,-1.644706279E-1,-7.340856791E-1
1.840800956E1,-6.980457306E-1,-2.550287247E-1,-7.540909648E-1
1.841716341E1,-7.763868570E-1,-3.118375242E-1,-7.417212725E-1
1.842631721E1,-8.405258060E-1,-3.859027624E-1,-7.098045349E-1
1.843547101E1,-8.561024070E-1,-4.509579837E-1,-6.884248853E-1
1.844462487E1,-8.530482054E-1,-4.520269632E-1,-6.859814525E-1
1.845377867E1,-8.706100583E-1,-4.190412164E-1,-7.046123147E-1
1.846293247E1,-9.139801860E-1,-3.854446113E-1,-7.232431769E-1
1.847208633E1,-9.645278454E-1,-3.729222417E-1,-7.321004272E-1
1.848124013E1,-1.009577751E0,-3.646758199E-1,-7.305732965E-1
1.849039393E1,-1.044701576E0,-3.712424338E-1,-7.168292403E-1
1.849954778E1,-1.076923728E0,-3.573456407E-1,-7.000309825E-1
1.850870159E1,-1.104411840E0,-3.326063454E-1,-6.757497787E-1
1.851785544E1,-1.112658262E0,-3.216110766E-1,-6.323796511E-1
1.852700924E1,-1.102884769E0,-3.382566571E-1,-5.688515306E-1
1.853616305E1,-1.076923728E0,-3.878880143E-1,-4.928010404E-1
1.854531690E1,-1.034164429E0,-4.549284875E-1,-4.112529159E-1
1.855447070E1,-9.642223716E-1,-5.125008225E-1,-3.338280320E-1
1.856362450E1,-8.637380004E-1,-5.555655956E-1,-2.664821148E-1
1.857277836E1,-7.557707429E-1,-5.978667736E-1,-2.113531530E-1
1.858193216E1,-6.699467301E-1,-6.276455522E-1,-1.747023165E-1
1.859108596E1,-6.206207871E-1,-6.407787800E-1,-1.583621502E-1
1.860023982E1,-5.741963983E-1,-6.581879258E-1,-1.586675793E-1
1.860939362E1,-4.894413650E-1,-6.248967648E-1,-1.557660550E-1
1.861854742E1,-3.429907262E-1,-4.738647640E-1,-1.291942000E-1
1.862770127E1,-1.432436854E-1,-2.173089087E-1,-8.338065445E-2
1.863685508E1,9.452861547E-2,4.413371533E-2,-3.726168349E-2
1.864600893E1,3.445178568E-1,2.008160353E-1,3.512371797E-3
1.865516273E1,5.854970813E-1,1.858502775E-1,5.955760926E-2
1.866431653E1,8.234221339E-1,3.817795310E-3,1.504211426E-1
1.867345763E1,1.096623540E0,-2.790044844E-1,2.790044844E-1
1.868262419E1,1.402047157E0,-5.334223509E-1,4.254551232E-1
1.869177799E1,1.690977931E0,-6.386408210E-1,5.587725043E-1
1.870093185E1,1.897902489E0,-5.341859460E-1,6.629219651E-1
1.871008565E1,1.999608517E0,-2.841966748E-1,7.183563709E-1
1.871923950E1,2.037633657E0,-7.666133344E-2,7.653915882E-1
1.872838054E1,2.123915911E0,3.145863488E-2,8.405258060E-1
1.873754711E1,2.296480179E0,1.334701329E-1,9.509364963E-1
1.874670096E1,2.469960928E0,2.493783981E-1,1.074785709E0
1.875584200E1,2.485537529E0,1.882936656E-1,1.167787194E0
1.876500857E1,2.268533945E0,-1.240019947E-1,1.220167398E0
1.877416242E1,1.969218850E0,-5.691569448E-1,1.236812949E0
1.878331622E1,1.792836666E0,-9.309312105E-1,1.262621284E0
1.879247002E1,1.803526521E0,-1.183822036E0,1.335006714E0
1.880162388E1,1.933026195E0,-1.382652760E0,1.431215167E0
1.881077768E1,2.096580505E0,-1.516428351E0,1.508181930E0
1.881993153E1,2.225927353E0,-1.576291323E0,1.538418770E0
1.882908534E1,2.283347130E0,-1.586523056E0,1.533990145E0
1.883823914E1,2.279987335E0,-1.545138121E0,1.496117592E0
1.884739299E1,2.269908428E0,-1.490009189E0,1.423884988E0
1.885654680E1,2.279834747E0,-1.437934399E0,1.326912999E0
1.886568784E1,2.300756216E0,-1.339435339E0,1.246281147E0
1.887485445E1,2.292509794E0,-1.146102190E0,1.211310148E0
1.888400825E1,2.221651554E0,-8.881719112E-1,1.230857253E0
1.889314935E1,2.099482059E0,-6.152759194E-1,1.280488610E0
1.890231591E1,1.979297876E0,-3.669664860E-1,1.335006714E0
1.891146971E1,1.908744931E0,-1.348445266E-1,1.355011940E0
1.892062356E1,1.899429560E0,8.674030751E-2,1.332868695E0
1.892977737E1,1.914242625E0,2.551814318E-1,1.274227381E0
1.893893117E1,1.910730243E0,3.350497186E-1,1.199704051E0
1.894808502E1,1.864458561E0,3.203893900E-1,1.137703061E0
1.895723883E1,1.785048366E0,2.447970361E-1,1.102273822E0
1.896639263E1,1.692046881E0,1.669140160E-1,1.095554590E0
1.897554648E1,1.602557778E0,1.010952219E-1,1.113269091E0
1.898470028E1,1.518718958E0,2.993151546E-2,1.132968903E0
1.899385414E1,1.446944475E0,-7.146912813E-2,1.136786699E0
1.900300794E1,1.398992896E0,-2.121167034E-1,1.095707297E0
1.901216174E1,1.377460599E0,-3.907895386E-1,1.032179117E0
1.902131560E1,1.360814929E0,-5.874823332E-1,9.680401683E-1
1.903046940E1,1.318819284E0,-7.536327839E-1,9.025267959E-1
1.903962320E1,1.257429123E0,-8.762603998E-1,8.069292307E-1
1.904877706E1,1.177866220E0,-9.529217482E-1,6.885775924E-1
1.905793086E1,1.087613583E0,-1.007592559E0,5.676298141E-1
1.906708471E1,9.923213720E-1,-1.045006990E0,4.558447599E-1
1.907623851E1,8.814526200E-1,-1.072189689E0,3.599417508E-1
1.908539232E1,7.498149872E-1,-1.079214454E0,2.845021188E-1
1.909454617E1,6.030589342E-1,-1.047144890E0,2.150182426E-1
1.910369997E1,4.421007037E-1,-9.391776323E-1,1.496575773E-1
1.911285377E1,2.817533016E-1,-7.637118101E-1,9.468132257E-2
1.912200763E1,1.360662282E-1,-5.798467398E-1,5.024218559E-2
1.913116143E1,1.221694518E-2,-4.196520746E-1,1.924168877E-2
1.914031528E1,-8.796200156E-2,-3.023693860E-1,-7.788302377E-3
1.914946909E1,-1.673721522E-1,-2.302894145E-1,-3.161134571E-2
1.915862289E1,-2.336490750E-1,-1.872246861E-1,-4.795150831E-2
1.916777674E1,-2.887780368E-1,-1.511846930E-1,-5.268557742E-2
1.917693054E1,-3.416163325E-1,-1.090362370E-1,-4.627167806E-2
1.918608440E1,-3.826957941E-1,-6.444438547E-2,-4.352286831E-2
1.919523820E1,-4.106420577E-1,-3.558185324E-2,-4.810422286E-2
1.920439200E1,-4.295783341E-1,9.009997360E-3,-6.047387794E-2
1.921354586E1,-4.501944184E-1,4.917320609E-2,-7.773031294E-2
1.922269966E1,-4.889832437E-1,6.474980712E-2,-9.880454093E-2
1.923185346E1,-5.664080977E-1,5.360184610E-2,-1.275143623E-1
1.924100732E1,-6.737645268E-1,1.236965694E-2,-1.641651988E-1
1.925016112E1,-8.043331504E-1,-4.703523964E-2,-2.084516287E-1
1.925931497E1,-9.626953006E-1,-9.147437662E-2,-2.675510943E-1
1.926846877E1,-1.143353343E0,-1.253764033E-1,-3.512371778E-1
1.927762258E1,-1.320346355E0,-2.008160353E-1,-4.653128982E-1
1.928677643E1,-1.395022392E0,-3.213056624E-1,-6.125270724E-1
1.929593023E1,-1.250098944E0,-3.040492237E-1,-7.000309825E-1
1.930507133E1,-9.437590241E-1,1.142284349E-1,-6.584933400E-1
1.931423789E1,-5.187620521E-1,8.313631415E-1,-4.940227270E-1
1.932339169E1,-1.730224788E-1,1.077534556E0,-2.548760176E-1
1.933253278E1,-1.586675793E-1,2.684673667E-1,7.375980914E-2
1.934169935E1,-1.858502775E-1,-2.084516287E-1,3.492519259E-1
1.935085315E1,-1.485885978E-1,6.062659025E-1,1.852394342E-1
1.935999424E1,-2.550287247E-1,5.577035546E-1,-3.442124426E-1
1.936916080E1,-4.062134326E-1,-4.329380095E-1,-7.427902818E-1
1.937831466E1,-4.776825607E-1,-6.093201637E-1,-6.516213417E-1
1.938745570E1,-6.827745438E-1,-1.652341783E-1,-2.936648130E-1
1.939662226E1,-1.191915751E0,7.178982496E-1,-1.053711548E-1
1.940577612E1,-1.807038903E0,1.983573794E0,-1.290414780E-1
1.941491716E1,-2.203784227E0,2.546774864E0,-2.037175596E-1
1.942408377E1,-2.209434509E0,2.329313278E0,-3.025220931E-1
1.943323758E1,-2.031067133E0,1.886754513E0,-4.639385045E-1
1.944237862E1,-1.894084692E0,1.459619522E0,-6.276455522E-1
1.945154523E1,-1.796959877E0,9.110786915E-1,-7.241594195E-1
1.946069903E1,-1.686702013E0,2.434226274E-1,-7.601994276E-1
1.946984013E1,-1.513068676E0,-4.317162931E-1,-7.615737915E-1
1.947900669E1,-1.298355818E0,-9.074136019E-1,-7.090409398E-1
1.948816049E1,-1.174201131E0,-1.111131191E0,-6.207735538E-1
1.949730159E1,-1.169772506E0,-1.028208613E0,-5.303681493E-1
1.950646815E1,-1.236965656E0,-7.009472251E-1,-4.882196784E-1
1.951562195E1,-1.331494331E0,-2.991624475E-1,-5.233433843E-1
1.952476304E1,-1.420219898E0,8.170082420E-2,-6.105418205E-1
1.953392961E1,-1.507265568E0,4.970769584E-1,-6.980457306E-1
1.954308346E1,-1.579040170E0,8.872556686E-1,-7.586722970E-1
1.955223726E1,-1.633558273E0,1.218945742E0,-7.953231335E-1
1.956139107E1,-1.621035933E0,1.418387294E0,-8.186880350E-1
1.957054492E1,-1.528797984E0,1.446180940E0,-8.235748410E-1
1.957968596E1,-1.436712742E0,1.403727055E0,-8.038749695E-1
1.958885258E1,-1.350736022E0,1.285833478E0,-7.696675658E-1
1.959800638E1,-1.257276416E0,1.082421303E0,-7.217160463E-1
1.960716018E1,-1.186723471E0,8.857285380E-1,-6.655181050E-1
1.961631403E1,-1.123195410E0,7.191199064E-1,-6.186355352E-1
1.962546784E1,-1.080588818E0,6.181774139E-1,-5.839699507E-1
1.963462169E1,-1.082726717E0,5.922164321E-1,-5.680879354E-1
1.964377549E1,-1.113269091E0,6.163448691E-1,-5.567872524E-1
1.965292930E1,-1.139077425E0,6.807892919E-1,-5.412106514E-1
1.966208315E1,-1.147476554E0,7.695148587E-1,-5.234960914E-1
1.967123695E1,-1.153890491E0,8.617527485E-1,-4.998257756E-1
1.968039081E1,-1.154348612E0,9.793408513E-1,-4.894413650E-1
1.968954461E1,-1.143047929E0,1.090209603E0,-5.004366040E-1
1.969869841E1,-1.108535051E0,1.178171635E0,-5.192201734E-1
1.970785226E1,-1.048824787E0,1.205201626E0,-5.402944088E-1
1.971700606E1,-9.822424054E-1,1.125791550E0,-5.531222224E-1
1.972615992E1,-9.087880254E-1,9.794935584E-1,-5.494571328E-1
1.973531372E1,-8.231166601E-1,8.284615874E-1,-5.305208564E-1
1.974446752E1,-7.269082665E-1,6.749862432E-1,-5.106683373E-1
1.975362138E1,-6.314633489E-1,5.311316848E-1,-4.982986450E-1
1.976277518E1,-5.538857579E-1,3.968980014E-1,-4.848600030E-1
1.977192903E1,-5.094466209E-1,3.151971996E-1,-4.672981501E-1
1.978108284E1,-4.963133931E-1,2.912214398E-1,-4.501944184E-1
1.979023664E1,-5.099047422E-1,2.767138183E-1,-4.306473136E-1
1.979939049E1,-5.358657837E-1,2.834331393E-1,-4.191939235E-1
1.980854430E1,-5.508314967E-1,2.947337925E-1,-4.101839364E-1
1.981769815E1,-5.601469278E-1,2.936648130E-1,-3.944546282E-1
1.982685195E1,-5.563291311E-1,2.744231224E-1,-3.686463237E-1
1.983600575E1,-5.187620521E-1,2.638860047E-1,-3.379512429E-1
1.984515961E1,-4.425588250E-1,2.718270421E-1,-3.100049794E-1
1.985431341E1,-3.555130959E-1,3.161134422E-1,-2.874036431E-1
1.986346726E1,-2.637332976E-1,3.939964771E-1,-2.678565085E-1
1.987262106E1,-1.757712960E-1,4.611896873E-1,-2.464768738E-1
1.988177487E1,-1.114796251E-1,5.059342384E-1,-2.234173864E-1
1.989092872E1,-1.006370857E-1,5.337277651E-1,-2.099787444E-1
1.990008252E1,-1.592784226E-1,5.509842038E-1,-2.263189107E-1
1.990923638E1,-2.400629669E-1,5.729747415E-1,-2.672456801E-1
1.991839018E1,-3.077143133E-1,5.830537081E-1,-3.115321100E-1
1.992754398E1,-3.457395434E-1,5.628957748E-1,-3.454341292E-1
1.993669784E1,-3.649812341E-1,5.375455618E-1,-3.749074936E-1
1.994585164E1,-3.588727713E-1,4.831801951E-1,-4.132381678E-1
1.995500549E1,-3.240544796E-1,4.059080184E-1,-4.618005157E-1
1.996414653E1,-2.866400778E-1,3.081724346E-1,-5.054761171E-1
1.997331315E1,-2.238755226E-1,1.864611208E-1,-5.251759291E-1
1.998246695E1,-1.386623234E-1,9.193251282E-2,-5.073086619E-1
1.999162075E1,-6.261184067E-2,4.886778072E-2,-4.724903405E-1
2.000077461E1,-2.855710872E-2,1.527118124E-2,-4.552339315E-1
2.000992841E1,-7.421794534E-2,-3.176405653E-2,-4.640912116E-1
2.001908226E1,-1.554606259E-1,-4.169032723E-2,-4.816530645E-1
2.002823606E1,-2.133384049E-1,-3.222219273E-2,-5.041016936E-1
2.003738987E1,-2.457133085E-1,-5.711421743E-2,-5.276193023E-1
2.004654372E1,-2.762556672E-1,-9.147437662E-2,-5.509842038E-1
2.005569752E1,-3.242071867E-1,-8.628217876E-2,-5.726693273E-1
2.006485138E1,-3.713951409E-1,-3.405473381E-2,-5.914528370E-1
2.007400518E1,-3.787252903E-1,1.893626526E-2,-5.926745534E-1
2.008315898E1,-3.599417508E-1,5.344913527E-2,-5.778614879E-1
2.009231284E1,-3.432961702E-1,5.176930502E-2,-5.656445622E-1
2.010146664E1,-3.374931216E-1,9.009997360E-3,-5.630484819E-1
2.011062049E1,-3.405473530E-1,-4.840964451E-2,-5.746545792E-1
2.011977430E1,-3.492519259E-1,-9.972081333E-2,-5.893148780E-1
2.012892815E1,-3.568875194E-1,-1.369825006E-1,-5.984776020E-1
2.013808195E1,-3.643703759E-1,-1.369825006E-1,-5.943543911E-1
2.014723575E1,-3.642176688E-1,-1.062874198E-1,-5.674771070E-1
2.015638961E1,-3.556658030E-1,-4.825693369E-2,-5.234960914E-1
2.016554341E1,-3.465031087E-1,8.704573847E-3,-4.654656053E-1
2.017469726E1,-3.323009014E-1,5.833591148E-2,-4.078932703E-1
2.018383831E1,-3.113794029E-1,1.152974218E-1,-3.631486893E-1
2.019300492E1,-2.704526186E-1,1.365243644E-1,-3.355078697E-1
2.020215872E1,-2.012741715E-1,1.149920002E-1,-3.093941510E-1
2.021131252E1,-8.475505561E-2,8.643488586E-2,-2.602209449E-1
2.022046638E1,6.963659078E-2,8.460234851E-2,-1.742441803E-1
2.022962018E1,2.078407854E-1,7.375980914E-2,-6.826218218E-2
2.023877403E1,3.155026138E-1,-1.007897966E-2,1.801999472E-2
2.024792784E1,4.274403751E-1,-1.513374150E-1,7.330167294E-2
2.025708164E1,5.719057322E-1,-2.586938143E-1,1.262926757E-1
2.026622273E1,7.366818190E-1,-2.562504113E-1,2.104368806E-1
2.027538930E1,9.051229358E-1,-1.331647038E-1,3.558185399E-1
2.028454315E1,1.035996914E0,1.093416587E-1,5.341859460E-1
2.029368419E1,1.110825777E0,4.330907166E-1,6.882721782E-1
2.030285081E1,1.153279662E0,7.444701195E-1,7.902836204E-1
2.031200461E1,1.228413820E0,9.112313986E-1,8.896990418E-1
2.032114570E1,1.384790778E0,7.886037827E-1,1.032026410E0
2.033031226E1,1.601641536E0,3.923166394E-1,1.166260123E0
2.033946606E1,1.840635538E0,-1.125486046E-1,1.247655511E0
2.034860716E1,2.062067747E0,-5.700731874E-1,1.294232607E0
2.035777372E1,2.216612101E0,-9.329164624E-1,1.350583315E0
2.036692758E1,2.212488890E0,-1.181073189E0,1.400672793E0
2.037606862E1,2.022362471E0,-1.295912504E0,1.395785928E0
2.038523523E1,1.741067410E0,-1.318666577E0,1.369977713E0
2.039438903E1,1.538571477E0,-1.291331053E0,1.368603230E0
2.040353013E1,1.476112366E0,-1.195580840E0,1.384485364E0
2.041269669E1,1.506349325E0,-9.972081780E-1,1.402963400E0
2.042185049E1,1.541320324E0,-7.101099491E-1,1.424343109E0
2.043100435E1,1.510777950E0,-4.094203711E-1,1.444653749E0
2.044015815E1,1.404796004E0,-1.974563748E-1,1.451067686E0
2.044931200E1,1.248724461E0,-1.091889441E-1,1.430909753E0
2.045846581E1,1.096165419E0,-1.198787764E-1,1.381736517E0
2.046761966E1,9.915578365E-1,-1.782146841E-1,1.303395391E0
2.047677346E1,9.408574700E-1,-2.509055138E-1,1.213295341E0
2.048592726E1,9.222266674E-1,-3.422271907E-1,1.128998399E0
2.049508112E1,8.996253014E-1,-4.636330605E-1,1.061805248E0
2.050423492E1,8.561024070E-1,-6.026008129E-1,1.006676316E0
2.051338877E1,7.815790772E-1,-7.379034758E-1,9.561286569E-1
2.052254258E1,6.864396334E-1,-8.461761475E-1,9.213103652E-1
2.053169643E1,5.854970813E-1,-9.023740888E-1,8.877137899E-1
2.054085023E1,4.938700199E-1,-9.009997249E-1,8.351809382E-1
2.055000409E1,4.130854607E-1,-8.568660021E-1,7.527165413E-1
2.055915789E1,3.437542915E-1,-7.808154821E-1,6.514685750E-1
2.056831169E1,2.657185495E-1,-6.884248853E-1,5.415160656E-1
2.057746555E1,1.841704547E-1,-6.168029904E-1,4.254551232E-1
2.058661935E1,1.056765765E-1,-5.879405141E-1,2.979407609E-1
2.059577320E1,3.695625812E-2,-5.746545792E-1,1.575985998E-1
2.060492700E1,-1.679829881E-2,-5.584670901E-1,2.107422985E-2
2.061408086E1,-6.108472496E-2,-5.787777901E-1,-1.020114943E-1
2.062323466E1,-1.204896197E-1,-6.510104537E-1,-2.086043358E-1
2.063238851E1,-2.179197669E-1,-7.424848676E-1,-3.038965166E-1
2.064154232E1,-3.506263196E-1,-8.173136115E-1,-3.897205591E-1
2.065069612E1,-5.076140761E-1,-8.611419201E-1,-4.689779878E-1
2.065984997E1,-6.710157394E-1,-8.840487003E-1,-5.427377820E-1
2.066900377E1,-8.438854814E-1,-8.912261724E-1,-6.142069101E-1
2.067815763E1,-1.020725727E0,-8.683193922E-1,-6.795675755E-1
2.068731143E1,-1.197718740E0,-8.247964978E-1,-7.485933304E-1
2.069646528E1,-1.371810198E0,-7.650861740E-1,-8.232693672E-1
2.070561909E1,-1.535059214E0,-6.704048514E-1,-8.890882134E-1
2.071477294E1,-1.681967974E0,-5.522059202E-1,-9.373451471E-1
2.072392674E1,-1.814216375E0,-4.275930822E-1,-9.787300229E-1
2.073308060E1,-1.916991353E0,-2.935121059E-1,-1.013701081E0
2.074223440E1,-1.990903974E0,-1.516428292E-1,-1.037524104E0
2.075138825E1,-2.047712803E0,6.108472589E-3,-1.044701576E0
2.076054206E1,-2.084058046E0,2.037175596E-1,-1.037829518E0
2.076969586E1,-2.072299242E0,4.068242610E-1,-1.029277682E0
2.077884971E1,-1.963873982E0,5.522059202E-1,-1.028666735E0
2.078799075E1,-1.732362866E0,6.520794630E-1,-1.032026410E0
2.079715737E1,-1.402963400E0,6.894938350E-1,-9.991934299E-1
2.080631117E1,-1.063943267E0,7.114843726E-1,-9.107732773E-1
2.081545226E1,-7.864658237E-1,6.949914694E-1,-7.646280527E-1
2.082461883E1,-5.783196688E-1,5.592306852E-1,-5.932853818E-1
2.083377268E1,-5.033381581E-1,3.790307343E-1,-4.472928941E-1
2.084291372E1,-5.583143830E-1,4.210264683E-1,-3.425326049E-1
2.085208034E1,-6.754443645E-1,8.765658140E-1,-2.728960216E-1
2.086123414E1,-7.907418013E-1,1.553384542E0,-2.144073844E-1
2.087037523E1,-8.712208867E-1,2.201340914E0,-1.568350345E-1
2.087954180E1,-9.382613897E-1,2.644968748E0,-1.246128380E-1
2.088869560E1,-1.035844207E0,2.820587158E0,-1.583621502E-1
2.089783669E1,-1.156944752E0,2.710787535E0,-2.727433145E-1
2.090700325E1,-1.231926203E0,2.270213842E0,-4.408790171E-1
2.091615711E1,-1.194664478E0,1.564379811E0,-6.258130074E-1
2.092529820E1,-1.028055906E0,8.422056437E-1,-7.737907767E-1
2.093446476E1,-7.811209559E-1,3.104631305E-1,-8.028060198E-1
2.094361856E1,-5.486935377E-1,5.451811850E-2,-7.001836896E-1
2.095275966E1,-4.057552814E-1,-9.162709117E-3,-5.415160656E-1
2.096192622E1,-3.545968235E-1,-1.527118147E-4,-4.135435820E-1
2.097108008E1,-3.310792148E-1,3.634541109E-2,-3.474193811E-1
2.098023388E1,-2.779355049E-1,7.314895838E-2,-3.336753249E-1
2.098938773E1,-2.032594234E-1,5.222744122E-2,-3.263451457E-1
2.099854153E1,-1.542389393E-1,-6.566607952E-2,-2.886253297E-1
2.100769539E1,-1.595838517E-1,-2.762556672E-1,-2.049392611E-1
2.101684919E1,-2.170034945E-1,-5.181511641E-1,-9.773556143E-2
2.102600305E1,-2.913741469E-1,-7.209524512E-1,3.359660041E-3
2.103515685E1,-3.584146202E-1,-8.402203918E-1,7.681404054E-2
2.104431070E1,-3.930802047E-1,-8.490777016E-1,1.125486046E-1
2.105346450E1,-3.784198761E-1,-7.598940134E-1,1.133121699E-1
2.106261836E1,-3.119902313E-1,-5.905365944E-1,9.284878522E-2
2.107177216E1,-2.141019702E-1,-3.584146202E-1,6.459710002E-2
2.108092601E1,-1.128540337E-1,-9.513945878E-2,3.466558084E-2
2.109007982E1,-3.115320951E-2,1.605001241E-1,6.413896102E-3
2.109923367E1,1.389677543E-2,3.840702176E-1,-1.130067464E-2
2.110838747E1,2.825168520E-2,5.648810267E-1,-1.191152167E-2
2.111754133E1,1.557660475E-2,6.775823236E-1,4.428642802E-3
2.112669513E1,-1.313321572E-2,7.082774043E-1,2.870982140E-2
2.113584898E1,-4.566083103E-2,6.691831946E-1,4.856235534E-2
2.114500278E1,-6.566607952E-2,5.709894896E-1,5.467082933E-2
2.115415664E1,-6.627693027E-2,4.317162931E-1,4.550812021E-2
2.116331044E1,-5.207473040E-2,2.913741469E-1,3.237490356E-2
2.117246430E1,-3.329117596E-2,1.930277348E-1,1.908897609E-2
2.118161810E1,-1.435491070E-2,1.435490996E-1,6.413896102E-3
2.119077195E1,1.527118147E-4,1.177408099E-1,2.901524538E-3
2.119992575E1,8.399149403E-3,8.047912270E-2,7.941014133E-3
2.120907961E1,1.389677543E-2,1.053711493E-2,1.282779220E-2
2.121823341E1,1.924168877E-2,-9.544488788E-2,1.542389300E-2
2.122738726E1,2.443389036E-2,-2.081461996E-1,2.351761982E-2
2.123654106E1,3.191677108E-2,-2.936648130E-1,4.123219103E-2
2.124569492E1,4.260659590E-2,-3.290939629E-1,6.520794332E-2
2.125484872E1,5.405998230E-2,-3.000787199E-1,8.047912270E-2
2.126400258E1,6.261184067E-2,-2.338017821E-1,8.903098851E-2
2.127315638E1,6.826218218E-2,-1.698155403E-1,8.964183182E-2
2.128231023E1,6.795676053E-2,-1.360662282E-1,8.536590636E-2
2.129146403E1,6.184828654E-2,-1.380514801E-1,7.803573459E-2
2.130061789E1,4.978405312E-2,-1.579040140E-1,6.810946763E-2
2.130977169E1,2.718270384E-2,-1.856975704E-1,5.833591148E-2
2.131892555E1,1.679830020E-3,-2.147128135E-1,4.413371533E-2
2.132807935E1,-2.214321308E-2,-2.293731421E-1,2.870982140E-2
2.133723320E1,-3.710897267E-2,-2.124221325E-1,1.572931744E-2
2.134638700E1,-3.726168349E-2,-1.788255423E-1,3.512371797E-3
2.135554086E1,-2.596100792E-2,-1.403421611E-1,-1.603474095E-2
2.136469471E1,-6.108472589E-3,-1.241547018E-1,-4.092676565E-2
2.137384851E1,9.468132630E-3,-1.391204596E-1,-5.543438718E-2
2.138300232E1,1.572931744E-2,-1.519482583E-1,-5.787777901E-2
2.139215617E1,1.267508045E-2,-1.560714692E-1,-5.482354015E-2
2.140131002E1,-3.817795310E-3,-1.814216375E-1,-4.642439261E-2
2.141046383E1,-2.137965336E-2,-2.223484069E-1,-3.176405653E-2
2.141961768E1,-3.588727489E-2,-2.638860047E-1,-1.236965694E-2
2.142877148E1,-4.688252881E-2,-2.855710983E-1,3.512371797E-3
2.143792534E1,-4.764608666E-2,-2.739650011E-1,1.130067464E-2
2.144707914E1,-3.741439432E-2,-2.373141646E-1,7.177455351E-3
2.145623299E1,-1.740914769E-2,-1.927223057E-1,-1.221694518E-3
2.146538680E1,8.704573847E-3,-1.565296054E-1,-6.566607859E-3
2.147454065E1,4.001049697E-2,-1.371352077E-1,-9.468132630E-3
2.148369445E1,5.711421743E-2,-1.171299592E-1,-8.093725890E-3
2.149284831E1,5.421269313E-2,-8.108997345E-2,2.137965523E-3
2.150200216E1,3.909422457E-2,-3.878879920E-2,1.496575773E-2
2.151115596E1,1.710372418E-2,-3.054236295E-4,1.832541823E-2
2.152030982E1,-7.330167107E-3,4.367557913E-2,1.572931744E-2
2.152946362E1,-2.611372061E-2,8.215895295E-2,1.007897966E-2
2.153861747E1,-3.237490356E-2,1.007898003E-1,4.428642802E-3
2.154777127E1,-2.305948362E-2,9.773556143E-2,-2.137965523E-3
2.155692513E1,-5.650337320E-3,8.521319181E-2,-4.428642802E-3
2.156607893E1,7.788302377E-3,7.559234649E-2,2.901524538E-3
2.157523278E1,1.832541823E-2,8.047912270E-2,1.649287529E-2
2.158438664E1,2.672456764E-2,8.948912472E-2,3.603998944E-2
2.159354044E1,3.512371704E-2,9.513945878E-2,5.512896553E-2
2.160269430E1,4.016320780E-2,8.918370306E-2,6.917845458E-2
2.161184810E1,3.710897267E-2,7.223268598E-2,8.017370105E-2
2.162100195E1,4.153761268E-2,6.444438547E-2,8.444963396E-2
2.163015575E1,5.589252338E-2,5.665608495E-2,8.399149776E-2
2.163930961E1,6.642963737E-2,4.275930673E-2,7.421794534E-2
2.164846346E1,7.330167294E-2,3.069507517E-2,6.154286116E-2
2.165761726E1,7.528692484E-2,3.008422814E-2,5.543438718E-2
2.166677112E1,8.429691941E-2,4.581354558E-2,5.238015205E-2
2.167592492E1,9.834641218E-2,6.261184067E-2,5.497625470E-2
2.168507877E1,1.105633527E-1,7.177454978E-2,6.597150117E-2
2.169423258E1,1.142284349E-1,7.177454978E-2,8.429691941E-2
2.170338643E1,1.136175916E-1,6.474980712E-2,1.038440317E-1
2.171254023E1,1.111742035E-1,4.856235534E-2,1.246128380E-1
2.172169409E1,1.174353883E-1,2.443389036E-2,1.418692768E-1
2.173084794E1,1.349972486E-1,-1.099525020E-2,1.609582454E-1
2.174000174E1,1.698155403E-1,-6.566607952E-2,1.940967143E-1
2.174915560E1,2.299840003E-1,-1.334701329E-1,2.446443290E-1
2.175830940E1,3.171824515E-1,-1.988307834E-1,3.032856584E-1
2.176746325E1,4.216373265E-1,-2.429644912E-1,3.590254784E-1
2.177661711E1,5.218162537E-1,-2.493783981E-1,3.994941115E-1
2.178577091E1,6.073349118E-1,-2.214321345E-1,4.165978432E-1
2.179492476E1,6.742226481E-1,-1.922641695E-1,4.207210541E-1
2.180407856E1,7.191199064E-1,-1.843231618E-1,4.289674759E-1
2.181323242E1,7.621846795E-1,-1.841704547E-1,4.561502039E-1
2.182238627E1,8.231166601E-1,-1.947075576E-1,5.157077909E-1
2.183154008E1,8.770239353E-1,-2.112004459E-1,5.937435627E-1
2.184069393E1,9.200887084E-1,-2.289150059E-1,6.691831946E-1
2.184984773E1,9.715525508E-1,-2.327328026E-1,7.415685654E-1
2.185900159E1,1.065012217E0,-2.305948436E-1,8.154810667E-1
2.186815544E1,1.226734042E0,-2.455606014E-1,9.216157794E-1
2.187730924E1,1.424343109E0,-2.814478874E-1,1.065928459E0
2.188646310E1,1.619356036E0,-3.793361485E-1,1.222610831E0
2.189561690E1,1.790546060E0,-5.696150661E-1,1.352110386E0
2.190477075E1,1.968913436E0,-7.776085734E-1,1.428008199E0
2.191392461E1,2.236311913E0,-9.000834227E-1,1.440988660E0
2.192307841E1,2.633362532E0,-8.930587173E-1,1.387539506E0
2.193223226E1,3.088290930E0,-8.217422962E-1,1.235591292E0
2.194137336E1,3.459380627E0,-7.033905983E-1,9.921686649E-1
2.195053992E1,3.654546499E0,-6.178719997E-1,7.424848676E-1
2.195969377E1,3.622782469E0,-6.403206587E-1,5.523586273E-1
2.196883482E1,3.361186981E0,-6.675033569E-1,4.906630516E-1
2.197800143E1,2.909160137E0,-5.448757410E-1,5.961869359E-1
2.198715528E1,2.353136301E0,-3.556658030E-1,7.843278646E-1
2.199630909E1,1.900193095E0,-2.938175201E-1,9.368869662E-1
2.200546294E1,1.641804695E0,-3.263451457E-1,1.055238605E0
2.201461674E1,1.561783671E0,-2.579302490E-1,1.173743010E0
2.202375784E1,1.667460322E0,7.177454978E-2,1.285375357E0
2.203292445E1,1.804137349E0,6.067240238E-1,1.361731291E0
2.204207825E1,1.840788245E0,1.126249671E0,1.392120957E0
2.205121935E1,1.781230569E0,1.452747464E0,1.376238823E0
2.206038596E1,1.641804695E0,1.584690452E0,1.255443811E0
2.206953976E1,1.559340358E0,1.190235853E0,1.053711534E0
2.207868086E1,1.568503022E0,4.207210541E-1,9.046648145E-1
2.208784742E1,1.599503517E0,-2.667875290E-1,8.693883419E-1
2.209700127E1,1.619050622E0,-6.258130074E-1,9.277243018E-1
2.210614237E1,1.593853235E0,-6.791094542E-1,1.033248186E0
2.211530893E1,1.409682751E0,-5.236487985E-1,1.083795786E0
2.212446278E1,1.230093718E0,-4.990622103E-1,9.787300229E-1
2.213360388E1,1.276823521E0,-7.594358325E-1,7.838697433E-1
2.214277044E1,1.356844425E0,-8.672503829E-1,6.262711287E-1
2.215192430E1,1.348292589E0,-7.055285573E-1,5.351021886E-1
2.216106539E1,1.231009960E0,-3.654393852E-1,4.448495209E-1
2.217023195E1,1.066386580E0,-4.596625641E-2,3.817795515E-1
2.217938581E1,8.532009125E-1,3.185568452E-1,3.373403847E-1
2.218853961E1,6.956022978E-1,5.870242119E-1,2.901524603E-1
2.219769346E1,6.313106418E-1,5.703786016E-1,2.377723008E-1
2.220684732E1,6.273401380E-1,4.593571424E-1,2.098260373E-1
2.221598841E1,5.154023767E-1,4.321744442E-1,2.279987335E-1
2.222515497E1,2.444916219E-1,4.129327536E-1,2.009687424E-1
2.223430883E1,3.008422814E-2,2.988570333E-1,9.819369763E-2
2.224346263E1,-8.460234851E-2,1.562241912E-1,1.679830020E-3
2.225261648E1,-2.333436459E-1,1.327065676E-1,-7.269082218E-2
2.226177034E1,-3.987305462E-1,1.721062213E-1,-1.152974218E-1
2.227091138E1,-4.685198367E-1,1.524063945E-1,-1.757712960E-1
2.228007799E1,-4.828747511E-1,1.383569092E-1,-2.484621257E-1
2.228923185E1,-6.566607952E-1,2.388412803E-1,-3.266505599E-1
2.229837289E1,-8.797727823E-1,2.924431264E-1,-4.242334068E-1
2.230753950E1,-1.000262380E0,2.304421216E-1,-5.170822144E-1
2.231669330E1,-1.068830013E0,2.023431510E-1,-5.891621709E-1
2.232583440E1,-1.193748236E0,9.376505762E-2,-6.876612902E-1
2.233500101E1,-1.328745484E0,-4.795150831E-2,-8.319739699E-1
2.234415482E1,-1.491383553E0,-5.848862603E-2,-9.790354371E-1
2.235329591E1,-1.576749444E0,-9.773556143E-2,-1.131136417E0
2.236246252E1,-1.585454106E0,-8.032641560E-2,-1.299730301E0
2.237161638E1,-1.720756769E0,-1.684411317E-1,-1.478250384E0
2.238075742E1,-1.915616989E0,-2.822114229E-1,-1.658450365E0
2.238992403E1,-2.098412991E0,-3.481829539E-2,-1.815132618E0
2.239907789E1,-2.276474953E0,1.656923145E-1,-1.940356374E0
2.240821893E1,-2.492867708E0,2.179197669E-1,-2.047712803E0
2.241738555E1,-2.719950199E0,3.480302393E-1,-2.125137568E0
2.242653940E1,-2.927332878E0,3.825430870E-1,-2.135674715E0
2.243568044E1,-3.118680716E0,3.095468581E-1,-2.075353622E0
2.244484706E1,-3.289565086E0,2.898470163E-1,-1.962346792E0
2.245400091E1,-3.379054308E0,2.944283783E-1,-1.827502251E0
2.246314195E1,-3.389133215E0,2.588465214E-1,-1.679066420E0
2.247230857E1,-3.309112310E0,1.084253863E-1,-1.501309872E0
2.248146242E1,-3.105394840E0,-8.521319181E-2,-1.312863469E0
2.249060346E1,-2.837843657E0,-2.322746664E-1,-1.142284393E0
2.249977008E1,-2.587701797E0,-2.634278834E-1,-1.049588323E0
2.250892393E1,-2.354663372E0,-1.516428292E-1,-1.034622550E0
2.251806502E1,-2.067565203E0,1.597365588E-1,-1.068219185E0
2.252723159E1,-1.688076377E0,6.392516494E-1,-1.096928954E0
2.253638544E1,-1.308282137E0,1.143811464E0,-1.055085897E0
2.254552653E1,-1.007897973E0,1.522994876E0,-9.799517393E-1
2.255469310E1,-8.301414251E-1,1.742289066E0,-9.225320816E-1
2.256384695E1,-7.664605975E-1,1.910577536E0,-8.843541145E-1
2.257298805E1,-7.829535007E-1,1.930735469E0,-8.205205798E-1
2.258215461E1,-8.561024070E-1,1.787644506E0,-7.010999322E-1
2.259130846E1,-9.290986657E-1,1.570793748E0,-4.816530645E-1
2.260044956E1,-8.904625773E-1,1.367992401E0,-1.484358907E-1
2.260961617E1,-6.655181050E-1,1.185959935E0,2.313583940E-1
2.261876997E1,-3.277195692E-1,8.816053271E-1,5.697677732E-1
2.262791107E1,2.092151903E-2,3.895678520E-1,7.936432958E-1
2.263707768E1,2.881672084E-1,-7.696675509E-2,8.220477104E-1
2.264623148E1,4.437805414E-1,-3.254288733E-1,6.823163629E-1
2.265537258E1,5.302154422E-1,-3.851391971E-1,4.772244096E-1
2.266453919E1,5.644228458E-1,-3.196258247E-1,2.715215981E-1
2.267369304E1,5.234960914E-1,-2.286095917E-1,1.203369126E-1
2.268283414E1,3.965925872E-1,-1.995943487E-1,3.466558084E-2
2.269200070E1,2.046338320E-1,-2.151709497E-1,2.748812549E-3
2.270115456E1,-2.183778957E-2,-1.794363856E-1,-9.773556143E-3
2.271029565E1,-2.307475507E-1,-1.146865711E-1,-2.794626169E-2
2.271946221E1,-3.848337829E-1,-1.119377613E-1,-3.512371704E-2
2.272861606E1,-4.729484916E-1,-1.904316396E-1,-2.275406010E-2
2.273776992E1,-4.807367921E-1,-2.982461751E-1,2.290677279E-3
2.274692377E1,-4.129327536E-1,-3.613161445E-1,8.857285604E-3
2.275607758E1,-3.009949923E-1,-3.359659910E-1,-1.542389300E-2
2.276523143E1,-1.757712960E-1,-1.858502775E-1,-4.764608666E-2
2.277438528E1,-5.680879578E-2,1.023169160E-1,-6.093201414E-2
2.278353909E1,3.420744836E-2,4.767662883E-1,-4.291202128E-2
2.279268018E1,1.035386100E-1,8.241856694E-1,5.039489828E-3
2.280184680E1,1.643179059E-1,1.116017938E0,5.589252338E-2
2.281100065E1,2.226538211E-1,1.389219403E0,8.842013776E-2
2.282015445E1,2.985515893E-1,1.663031697E0,1.101052165E-1
2.282930830E1,4.526378214E-1,1.934553266E0,1.250709742E-1