"Time (s)","Gyroscope x (rad/s)","Gyroscope y (rad/s)","Gyroscope z (rad/s)"
7.586101659E0,2.351761982E-2,4.077405483E-2,-7.941014133E-3
7.595253951E0,2.580829710E-2,5.940489471E-2,-0.000000000E0
7.604406190E0,2.687728032E-2,7.101099193E-2,4.886778072E-3
7.613558482E0,2.183778957E-2,7.162184268E-2,2.443389036E-3
7.622710774E0,1.282779220E-2,5.772506446E-2,4.581354442E-4
7.631863065E0,4.886778072E-3,4.978405312E-2,-1.374406274E-3
7.641015357E0,-6.108472589E-4,4.734066129E-2,-7.635590737E-4
7.650167649E0,-4.275931045E-3,4.672981426E-2,-2.137965523E-3
7.659319888E0,-1.298050396E-2,4.978405312E-2,-7.024743594E-3
7.668472180E0,-2.031067200E-2,5.207473040E-2,-1.068982668E-2
7.677624472E0,-2.412846684E-2,5.222744122E-2,-8.857285604E-3
7.686776763E0,-2.153236605E-2,4.550812021E-2,-7.024743594E-3
7.695929055E0,-1.634016447E-2,2.321219631E-2,-7.635590620E-3
7.705081347E0,-1.130067464E-2,-2.748812549E-3,-5.803049076E-3
7.714233586E0,-6.108472589E-3,-2.489202656E-2,-1.374406274E-3
7.723385878E0,-3.665083554E-3,-3.878879920E-2,2.901524538E-3
7.732538169E0,-6.108472589E-3,-4.123219103E-2,4.734066315E-3
7.741690461E0,-1.160609815E-2,-3.405473381E-2,3.359660041E-3
7.750842753E0,-1.847812906E-2,-2.137965336E-2,1.527118147E-3
7.759995044E0,-1.801999472E-2,-6.872031838E-3,2.748812549E-3
7.769147284E0,-1.023169141E-2,1.007897966E-2,5.803049076E-3
7.778299576E0,1.527118147E-4,1.908897609E-2,7.177455351E-3
7.787451867E0,7.635590620E-3,1.908897609E-2,5.955760833E-3
7.796604159E0,9.468132630E-3,8.857285604E-3,4.123218823E-3
7.805756451E0,5.344913341E-3,1.068982761E-3,1.068982761E-3
7.814908690E0,1.679830020E-3,-4.428642802E-3,1.679830020E-3
7.824060982E0,-1.527118147E-4,-5.650337320E-3,3.512371797E-3
7.833213274E0,-2.748812549E-3,2.290677279E-3,4.734066315E-3
7.842365565E0,-2.901524538E-3,1.481304597E-2,4.123218823E-3
7.851517857E0,-5.955760833E-3,2.321219631E-2,-1.527118147E-4
7.860670149E0,-7.177455351E-3,2.748812735E-2,-2.748812549E-3
7.869822388E0,-6.108472589E-3,3.054236248E-2,-3.970507067E-3
7.878974680E0,-3.512371797E-3,2.932066843E-2,-3.206948051E-3
7.888126972E0,2.596100792E-3,2.504473738E-2,-4.428642802E-3
7.897279263E0,3.970507067E-3,1.664558798E-2,-4.428642802E-3
7.906431555E0,5.344913341E-3,5.192201585E-3,-5.039489828E-3
7.915583847E0,2.901524538E-3,-5.650337320E-3,-4.428642802E-3
7.924736086E0,5.344913341E-3,-8.704573847E-3,-3.206948051E-3
7.933888378E0,2.901524538E-3,-6.261184346E-3,-1.985253533E-3
7.943040669E0,-4.581354558E-3,-1.374406274E-3,-1.527118147E-4
7.952192961E0,-1.068982668E-2,2.137965523E-3,-3.054236295E-4
7.961345253E0,-1.267508045E-2,3.359660041E-3,1.527118147E-3
7.970497544E0,-8.857285604E-3,-7.635590737E-4,-9.162708884E-4
7.979649784E0,-3.817795310E-3,-1.114796288E-2,-3.817795310E-3
7.988802076E0,-3.817795310E-3,-1.771457121E-2,-5.039489828E-3
7.997954367E0,-1.221694518E-3,-2.122694254E-2,-4.428642802E-3
8.007106659E0,-1.221694518E-3,-2.015795931E-2,-3.817795310E-3
8.016258951E0,-2.596100792E-3,-1.282779220E-2,-2.596100792E-3
8.025411242E0,-3.359660041E-3,-3.817795310E-3,-1.985253533E-3
8.034563482E0,-3.970507067E-3,-5.039489828E-3,-1.985253533E-3
8.043715774E0,-5.192201585E-3,-9.162708884E-4,-3.206948051E-3
8.052868065E0,-1.267508045E-2,1.664558798E-2,-3.970507067E-3
8.062020357E0,-2.947338112E-2,2.260134928E-2,-4.581354442E-4
8.071172649E0,-4.520269856E-2,-8.093725890E-3,5.039489828E-3
8.080324940E0,-4.734066129E-2,-5.207473040E-2,1.481304597E-2
8.089477232E0,-3.848337755E-2,-7.437065244E-2,2.092151903E-2
8.098629472E0,-3.176405653E-2,-6.826218218E-2,1.863084175E-2
8.107781763E0,-3.802524135E-2,-5.803048983E-2,1.236965694E-2
8.116934055E0,-4.581354558E-2,-7.146912813E-2,7.482878864E-3
8.126086347E0,-4.871506989E-2,-9.972081333E-2,3.206948051E-3
8.135238638E0,-4.214845970E-2,-1.328592747E-1,-3.512371797E-3
8.144390930E0,-3.008422814E-2,-1.641651988E-1,-8.246437646E-3
8.153543169E0,-1.572931744E-2,-1.846285909E-1,-1.236965694E-2
8.162695461E0,-2.290677279E-3,-1.811162084E-1,-1.099525020E-2
8.171847753E0,4.886778072E-3,-1.545443535E-1,-7.330167107E-3
8.181000044E0,5.803049076E-3,-1.232384369E-1,-6.108472589E-3
8.190152336E0,1.832541777E-3,-9.300149232E-2,-6.872031838E-3
8.199304628E0,-4.581354558E-3,-5.451811850E-2,-7.482878864E-3
8.208456867E0,-7.941014133E-3,-2.504473738E-2,-6.872031838E-3
8.217609159E0,-8.704573847E-3,-9.315420873E-3,-6.261184346E-3
8.226761451E0,-5.803049076E-3,8.246437646E-3,-8.093725890E-3
8.235913742E0,5.344913341E-3,9.315420873E-3,-6.872031838E-3
8.245066034E0,1.160609815E-2,-1.053711493E-2,-6.872031838E-3
8.254218326E0,1.221694518E-2,-2.015795931E-2,-6.108472589E-3
8.263370617E0,1.038440317E-2,-1.832541823E-2,-3.817795310E-3
8.272522857E0,8.551862091E-3,-1.466033421E-2,-1.985253533E-3
8.281675149E0,3.054236295E-3,-1.282779220E-2,-4.428642802E-3
8.290827440E0,-5.803049076E-3,9.162708884E-4,-3.817795310E-3
8.299979732E0,-1.084253844E-2,2.199050039E-2,-2.137965523E-3
8.309132024E0,-1.160609815E-2,3.344388679E-2,-2.137965523E-3
8.318284315E0,-7.941014133E-3,3.833066672E-2,-1.527118147E-3
8.327436555E0,-5.497625098E-3,3.527642787E-2,-9.162708884E-4
8.336588847E0,-6.566607859E-3,2.443389036E-2,-1.527118147E-3
8.345741138E0,-5.803049076E-3,8.093725890E-3,-1.374406274E-3
8.354893430E0,-6.872031838E-3,-1.298050396E-2,-5.650337320E-3
8.364045722E0,-1.160609815E-2,-3.161134571E-2,-6.413896102E-3
8.373198013E0,-1.267508045E-2,-4.611896724E-2,-2.748812549E-3
8.382350253E0,-7.177455351E-3,-5.741964281E-2,-1.374406274E-3
8.391502544E0,-2.748812549E-3,-5.925218388E-2,-2.596100792E-3
8.400654836E0,-2.748812549E-3,-6.291726977E-2,-2.596100792E-3
8.409807128E0,-4.581354558E-3,-6.642963737E-2,-1.527118147E-4
8.418959419E0,-4.581354558E-3,-6.413896382E-2,2.901524538E-3
8.428111711E0,-3.512371797E-3,-5.268557742E-2,4.734066315E-3
8.437264003E0,7.635590737E-4,-4.001049697E-2,5.344913341E-3
8.446416294E0,7.330167107E-3,-2.733541466E-2,5.955760833E-3
8.455568534E0,1.099525020E-2,-1.649287529E-2,5.955760833E-3
8.464720826E0,1.511846948E-2,-6.719320081E-3,7.330167107E-3
8.473873117E0,1.634016447E-2,2.290677279E-3,8.551862091E-3
8.483025409E0,1.007897966E-2,4.734066315E-3,8.399149403E-3
8.492177701E0,7.177455351E-3,-4.428642802E-3,4.734066315E-3
8.501329992E0,7.330167107E-3,-2.137965336E-2,1.679830020E-3
8.510482232E0,4.428642802E-3,-3.451287001E-2,-3.206948051E-3
8.519634524E0,1.374406274E-3,-4.062134400E-2,-3.206948051E-3
8.528786815E0,-1.679830020E-3,-4.169032723E-2,4.581354442E-4
8.537939107E0,-1.221694518E-3,-3.695625812E-2,2.290677279E-3
8.547091399E0,1.221694518E-3,-2.367033064E-2,2.901524538E-3
8.556243690E0,5.955760833E-3,-8.704573847E-3,1.068982761E-3
8.565395982E0,7.177455351E-3,-6.872031838E-3,-1.527118147E-4
8.574548222E0,-6.108472589E-4,-2.550287358E-2,-1.374406274E-3
8.583700513E0,-1.038440317E-2,-4.657710344E-2,1.068982761E-3
8.592852805E0,-1.206423342E-2,-5.619794875E-2,2.290677279E-3
8.602005097E0,-9.009997360E-3,-5.864133686E-2,4.734066315E-3
8.611157388E0,7.635590737E-4,-5.085303262E-2,4.123218823E-3
8.620309680E0,8.704573847E-3,-3.100049868E-2,2.290677279E-3
8.629461972E0,1.588202827E-2,-1.649287529E-2,1.221694518E-3
8.638614211E0,1.832541823E-2,-9.162709117E-3,-6.108472589E-4
8.647766503E0,1.343864016E-2,-1.588202827E-2,-1.832541777E-3
8.656918794E0,5.650337320E-3,-3.222219273E-2,-3.817795310E-3
8.666071086E0,-2.901524538E-3,-3.344388679E-2,-5.650337320E-3
8.675223378E0,-3.206948051E-3,-1.114796288E-2,-3.817795310E-3
8.684375669E0,4.581354558E-3,1.481304597E-2,4.581354442E-4
8.693527961E0,1.481304597E-2,3.115320951E-2,1.679830020E-3
8.702680201E0,1.924168877E-2,3.298575059E-2,6.108472589E-4
8.711832492E0,1.618745178E-2,3.054236248E-2,-1.985253533E-3
8.720984784E0,1.374406368E-2,2.336490713E-2,-1.374406274E-3
8.730137076E0,1.130067464E-2,1.313321572E-2,4.581354442E-4
8.739289367E0,1.328592747E-2,8.246437646E-3,1.832541777E-3
8.748441659E0,1.328592747E-2,8.857285604E-3,3.512371797E-3
8.757593951E0,1.450762246E-2,9.468132630E-3,3.665083554E-3
8.766746242E0,1.496575773E-2,1.481304597E-2,6.719320081E-3
8.775898482E0,1.725643501E-2,3.481829539E-2,4.275931045E-3
8.785050774E0,1.771457121E-2,6.306997687E-2,4.581354442E-4
8.794203065E0,1.328592747E-2,7.818844914E-2,-7.635590737E-4
8.803355357E0,6.108472589E-3,5.940489471E-2,-1.374406274E-3
8.812507649E0,7.635590737E-4,3.176405653E-2,-1.374406274E-3
8.821659940E0,1.679830020E-3,6.413896102E-3,-4.428642802E-3
8.830812232E0,1.099525020E-2,-9.315420873E-3,-6.261184346E-3
8.839964472E0,1.893626526E-2,-3.206948051E-3,-8.551862091E-3
8.849116763E0,2.061609551E-2,1.114796288E-2,-1.160609815E-2
8.858269055E0,1.328592747E-2,1.786728203E-2,-1.603474095E-2
8.867421347E0,2.137965523E-3,2.260134928E-2,-2.031067200E-2
8.876573638E0,-1.679830020E-3,3.878879920E-2,-2.031067200E-2
8.885725930E0,4.581354442E-4,6.001574174E-2,-1.603474095E-2
8.894878222E0,6.566607859E-3,7.330167294E-2,-8.704573847E-3
8.904030513E0,1.298050396E-2,5.528167635E-2,-9.926267900E-3
8.913182753E0,1.206423342E-2,7.635590620E-3,-1.786728203E-2
8.922335044E0,5.192201585E-3,-3.161134571E-2,-2.519745007E-2
8.931487336E0,3.512371797E-3,-5.390727147E-2,-2.458660305E-2
8.940639628E0,1.084253844E-2,-5.864133686E-2,-1.954711229E-2
8.949791919E0,2.122694254E-2,-4.779879749E-2,-1.527118124E-2
8.958944211E0,3.084778599E-2,-2.977880463E-2,-1.649287529E-2
8.968096503E0,3.130592033E-2,-4.428642802E-3,-2.137965336E-2
8.977248794E0,2.672456764E-2,3.527642787E-2,-2.748812735E-2
8.986401034E0,2.275406010E-2,7.437065244E-2,-2.932066843E-2
8.995553326E0,2.672456764E-2,1.111742035E-1,-2.687728032E-2
9.004705617E0,3.069507517E-2,1.311794519E-1,-2.626643144E-2
9.013857909E0,2.794626169E-2,1.123958975E-1,-2.748812735E-2
9.023010201E0,1.954711229E-2,7.742489129E-2,-2.932066843E-2
9.032162492E0,2.031067200E-2,5.818320066E-2,-2.993151546E-2
9.041314784E0,2.596100792E-2,4.917320609E-2,-2.932066843E-2
9.050467024E0,2.916795574E-2,4.077405483E-2,-3.115320951E-2
9.059619315E0,3.222219273E-2,3.955236077E-2,-3.237490356E-2
9.068771607E0,3.833066672E-2,4.199574888E-2,-2.870982140E-2
9.077923899E0,4.138490185E-2,4.504998401E-2,-2.550287358E-2
9.087076190E0,4.199574888E-2,4.382828996E-2,-2.794626169E-2
9.096228482E0,3.649812192E-2,5.512896553E-2,-3.603998944E-2
9.105380774E0,2.886253223E-2,8.093725890E-2,-4.581354558E-2
9.114533065E0,2.489202656E-2,1.152974218E-1,-4.825693369E-2
9.123685357E0,2.825168520E-2,1.557660550E-1,-4.886778072E-2
9.132837597E0,4.260659590E-2,1.973036677E-1,-5.008947477E-2
9.141989888E0,6.505523622E-2,2.310529798E-1,-5.054761097E-2
9.151142180E0,8.307522535E-2,2.328855246E-1,-5.100574717E-2
9.160294472E0,9.009996802E-2,2.064663768E-1,-5.039490014E-2
9.169446763E0,8.368607610E-2,1.455343664E-1,-5.039490014E-2
9.178599055E0,7.391251624E-2,6.413896382E-2,-4.611896724E-2
9.187751347E0,6.352811307E-2,-4.428642802E-3,-4.001049697E-2
9.196903586E0,6.184828654E-2,-2.794626169E-2,-3.878879920E-2
9.206055878E0,6.719319522E-2,-4.428642802E-3,-3.939964995E-2
9.215208169E0,7.421794534E-2,3.405473381E-2,-4.123219103E-2
9.224360461E0,7.834116369E-2,6.597150117E-2,-4.428642616E-2
9.233512753E0,7.818844914E-2,7.742489129E-2,-5.100574717E-2
9.242665044E0,7.375980914E-2,8.765657991E-2,-5.955760926E-2
9.251817336E0,7.803573459E-2,1.044548824E-1,-6.566607952E-2
9.260969628E0,8.643488586E-2,1.363716573E-1,-7.299624383E-2
9.270121919E0,9.849911928E-2,1.623326540E-1,-7.895200700E-2
9.279274159E0,1.145338640E-1,1.701209545E-1,-8.506047726E-2
9.288426451E0,1.270562261E-1,1.478250325E-1,-9.101624042E-2
9.297578742E0,1.360662282E-1,9.849911928E-2,-9.330692142E-2
9.306731034E0,1.403421611E-1,3.512371704E-2,-9.330692142E-2
9.315883326E0,1.421747059E-1,-2.443389036E-2,-9.071081877E-2
9.325035617E0,1.406475753E-1,-6.841489673E-2,-8.826743066E-2
9.334187909E0,1.397313178E-1,-9.620844573E-2,-8.460234851E-2
9.343340201E0,1.415638477E-1,-1.093416587E-1,-8.154810965E-2
9.352492440E0,1.514901221E-1,-1.117850468E-1,-7.605048269E-2
9.361644732E0,1.663031727E-1,-1.122431830E-1,-6.673506647E-2
9.370797024E0,1.878355294E-1,-1.163664013E-1,-5.680879578E-2
9.379949315E0,2.136438340E-1,-1.194206402E-1,-4.688252881E-2
9.389101607E0,2.396048307E-1,-1.198787764E-1,-3.756710514E-2
9.398253899E0,2.696890533E-1,-1.227803007E-1,-2.809897438E-2
9.407406190E0,3.011476994E-1,-1.269035190E-1,-1.450762246E-2
9.416558482E0,3.374931216E-1,-1.340809762E-1,2.290677279E-3
9.425710774E0,3.762819171E-1,-1.429382563E-1,2.199050039E-2
9.434863013E0,4.201101959E-1,-1.519482583E-1,4.077405483E-2
9.444015305E0,4.669927359E-1,-1.649287641E-1,5.757235363E-2
9.453167597E0,5.224271417E-1,-1.786728203E-1,7.375980914E-2
9.462319888E0,5.818319917E-1,-1.918060333E-1,8.887827396E-2
9.471472180E0,6.478035450E-1,-2.000524700E-1,1.046075895E-1
9.480624472E0,7.217160463E-1,-2.011214644E-1,1.241547018E-1
9.489776763E0,7.997517586E-1,-1.887518018E-1,1.472141892E-1
9.498929055E0,8.751913905E-1,-1.710372269E-1,1.759240031E-1
9.508081347E0,9.495620728E-1,-1.539335102E-1,2.008160353E-1
9.517233586E0,1.019656777E0,-1.423274130E-1,2.250972092E-1
9.526385878E0,1.088529825E0,-1.342336833E-1,2.530434728E-1
9.535538169E0,1.154806733E0,-1.195733473E-1,2.840439677E-1
9.544690461E0,1.214364409E0,-1.102579311E-1,3.142809272E-1
9.553842753E0,1.265980959E0,-1.047603041E-1,3.403946459E-1
9.562995044E0,1.311030984E0,-1.148392856E-1,3.596363366E-1
9.572147336E0,1.351957679E0,-1.406475753E-1,3.715478480E-1
9.581299628E0,1.392273664E0,-1.725643575E-1,3.718532622E-1
9.590451919E0,1.429993391E0,-1.947075576E-1,3.642176688E-1
9.599604211E0,1.456565261E0,-1.852394342E-1,3.533751369E-1
9.608756451E0,1.459314108E0,-1.574458778E-1,3.472666740E-1
9.617908742E0,1.436560035E0,-1.539335102E-1,3.458922505E-1
9.627061034E0,1.387539506E0,-1.925695986E-1,3.425326049E-1
9.636213326E0,1.327829242E0,-2.655658424E-1,3.365768492E-1
9.645365617E0,1.275754452E0,-3.596363366E-1,3.289412558E-1
9.654517909E0,1.234675050E0,-4.543176591E-1,3.239017725E-1
9.663670201E0,1.209477544E0,-5.405998230E-1,3.280249834E-1
9.672822492E0,1.186723471E0,-6.177192926E-1,3.457395434E-1
9.681974784E0,1.149461865E0,-6.809419990E-1,3.747547865E-1
9.691127024E0,1.083795786E0,-7.247702479E-1,4.115583301E-1
9.700279263E0,1.002705812E0,-7.603521347E-1,4.416425824E-1
9.709431607E0,9.290986657E-1,-8.171609044E-1,4.556920528E-1
9.718583899E0,8.861866593E-1,-9.148964882E-1,4.530959427E-1
9.727736190E0,8.663341403E-1,-1.037218690E0,4.384356141E-1
9.736888482E0,8.582404256E-1,-1.142742515E0,4.121691883E-1
9.746040774E0,8.484668136E-1,-1.204438090E0,3.779617548E-1
9.755193065E0,8.362498879E-1,-1.215433359E0,3.442124426E-1
9.764345357E0,8.170081973E-1,-1.174048424E0,3.159607351E-1
9.773497649E0,7.936432958E-1,-1.101052165E0,2.980934680E-1
9.782649940E0,7.682931423E-1,-1.028972149E0,2.941229641E-1
9.791802180E0,7.443174124E-1,-9.727742672E-1,3.049654961E-1
9.800954472E0,7.339329720E-1,-9.245173335E-1,3.237490356E-1
9.810106763E0,7.432484031E-1,-8.744278550E-1,3.408527672E-1
9.819259055E0,7.667660117E-1,-8.069292307E-1,3.465031087E-1
9.828411347E0,7.960866690E-1,-7.038487792E-1,3.429907262E-1
9.837563638E0,8.215895891E-1,-5.868715048E-1,3.352024257E-1
9.846715930E0,8.475505710E-1,-4.596625566E-1,3.303156495E-1
9.855868222E0,8.814526200E-1,-3.180987239E-1,3.237490356E-1
9.865020513E0,9.271134138E-1,-1.716480851E-1,3.130592108E-1
9.874172805E0,9.686510563E-1,-6.200099736E-2,3.009949923E-1
9.883325097E0,9.874345660E-1,-1.679829881E-2,2.987042964E-1
9.892477336E0,9.926267862E-1,-5.054761097E-2,3.054236174E-1
9.901629628E0,9.933903813E-1,-1.504211426E-1,3.226800561E-1
9.910781919E0,9.985825419E-1,-2.582356930E-1,3.410054743E-1
9.919934211E0,1.022558331E0,-3.323009014E-1,3.594835997E-1
9.929086503E0,1.063637733E0,-3.839175105E-1,3.709369898E-1
9.938238794E0,1.107160687E0,-4.266768098E-1,3.730749488E-1
9.947391086E0,1.152057886E0,-4.694361091E-1,3.666610718E-1
9.956543378E0,1.195122719E0,-5.273138881E-1,3.571929336E-1
9.965695669E0,1.234522343E0,-5.928272605E-1,3.490992188E-1
9.974847961E0,1.273158431E0,-6.331431866E-1,3.463504016E-1
9.984000253E0,1.301410079E0,-6.186355352E-1,3.434488773E-1
9.993152492E0,1.312710762E0,-5.825955868E-1,3.356605768E-1
1.000230478E1,1.305838704E0,-5.627430081E-1,3.239017725E-1
1.001145708E1,1.296676040E0,-5.573981404E-1,3.098522723E-1
1.002060937E1,1.296523333E0,-5.405998230E-1,3.025220931E-1
1.002976166E1,1.300493836E0,-4.995203316E-1,2.970244884E-1
1.003891395E1,1.296217918E0,-4.369085133E-1,2.944283783E-1
1.004806624E1,1.275907159E0,-3.671191931E-1,2.893888950E-1
1.005721853E1,1.251931429E0,-2.965663373E-1,2.829749882E-1
1.006637083E1,1.232384324E0,-2.460187376E-1,2.748812735E-1
1.007552312E1,1.210699320E0,-2.328855246E-1,2.686200738E-1
1.008467541E1,1.191304922E0,-2.594573796E-1,2.654131353E-1
1.009382765E1,1.173743010E0,-2.901524603E-1,2.599155009E-1
1.010297994E1,1.157708287E0,-2.919849753E-1,2.554868758E-1
1.011213223E1,1.127929449E0,-2.794626355E-1,2.478512824E-1
1.012128452E1,1.086849928E0,-2.849602401E-1,2.397575527E-1
1.013043682E1,1.043327093E0,-3.133646548E-1,2.333436459E-1
1.013958911E1,1.001789451E0,-3.472666740E-1,2.257080674E-1
1.014874140E1,9.657495022E-1,-3.804051280E-1,2.182251811E-1
1.015789369E1,9.431481957E-1,-3.907895386E-1,1.960819662E-1
1.016704598E1,9.274188280E-1,-4.162923992E-1,1.690519750E-1
1.017619827E1,9.057337642E-1,-4.718795121E-1,1.505738497E-1
1.018535056E1,8.699992299E-1,-5.381564498E-1,1.430909634E-1
1.019450286E1,8.206732869E-1,-5.961869359E-1,1.415638477E-1
1.020365510E1,7.661551833E-1,-6.306998134E-1,1.327065676E-1
1.021280739E1,7.084301114E-1,-6.633801460E-1,1.200314835E-1
1.022195968E1,6.513158679E-1,-6.815528274E-1,1.062874198E-1
1.023111197E1,5.932853818E-1,-6.665870547E-1,9.666658193E-2
1.024026426E1,5.326588154E-1,-6.184828281E-1,8.521319181E-2
1.024941656E1,4.701996744E-1,-5.312843919E-1,7.253811508E-2
1.025856885E1,4.027010500E-1,-4.326325655E-1,6.215370819E-2
1.026772114E1,3.323009014E-1,-3.345915973E-1,5.008947477E-2
1.027687343E1,2.637332976E-1,-2.370087355E-1,4.459185153E-2
1.028602572E1,1.965401024E-1,-1.148392856E-1,4.581354558E-2
1.029517801E1,1.305686086E-1,2.244863659E-2,5.390727147E-2
1.030433030E1,6.108472496E-2,1.466033459E-1,6.490252167E-2
1.031348254E1,-1.985253533E-3,2.315111160E-1,8.078455180E-2
1.032263484E1,-5.604523420E-2,2.609844804E-1,1.017060652E-1
1.033178713E1,-1.068982705E-1,2.302894145E-1,1.264453828E-1
1.034093942E1,-1.550024897E-1,1.507265568E-1,1.530172378E-1
1.035009171E1,-1.922641695E-1,2.244863659E-2,1.748550236E-1
1.035924400E1,-2.130329758E-1,-1.456870735E-1,1.956238300E-1
1.036839629E1,-2.275405973E-1,-3.214583695E-1,2.194468826E-1
1.037754859E1,-2.432699203E-1,-4.503471553E-1,2.414373755E-1
1.038670088E1,-2.722851634E-1,-5.173876286E-1,2.553341687E-1
1.039585317E1,-3.118375242E-1,-5.100574493E-1,2.641914487E-1
1.040500546E1,-3.550549746E-1,-4.378247857E-1,2.754921019E-1
1.041415775E1,-4.046863019E-1,-3.245126009E-1,2.866400778E-1
1.042331004E1,-4.720322192E-1,-1.769929975E-1,2.945810854E-1
1.043246234E1,-5.454866290E-1,-2.046338283E-2,2.945810854E-1
1.044161458E1,-6.174138784E-1,9.269607067E-2,2.890834510E-1
1.045076687E1,-6.801784039E-1,1.528645307E-1,2.861819267E-1
1.045991916E1,-7.264500856E-1,1.678302884E-1,2.863346636E-1
1.046907145E1,-7.640172243E-1,1.539335102E-1,2.929012477E-1
1.047822374E1,-7.853968740E-1,1.220167428E-1,3.037438095E-1
1.048737603E1,-7.652388811E-1,8.108997345E-2,3.124483824E-1
1.049652833E1,-7.214106321E-1,6.902574003E-2,3.139754832E-1
1.050568062E1,-6.836907864E-1,5.833591148E-2,3.155026138E-1
1.051483291E1,-6.638382673E-1,3.848337755E-2,3.180987239E-1
1.052398520E1,-6.496360302E-1,-3.802524135E-2,3.042019308E-1
1.053321635E1,-6.311579347E-1,-1.586675793E-1,2.690782249E-1
1.054256489E1,-6.287145615E-1,-1.980672181E-1,2.189887464E-1
1.055188718E1,-6.394043565E-1,-1.362189353E-1,1.560714692E-1
1.056123551E1,-6.445965767E-1,-8.047912270E-2,8.017370105E-2
1.057057083E1,-6.279509664E-1,-2.962609194E-2,-9.162708884E-4
1.057990614E1,-5.615213513E-1,1.007897966E-2,-7.192726433E-2
1.058924140E1,-4.245388508E-1,2.687728032E-2,-1.229330078E-1
1.059857671E1,-2.678565085E-1,8.399149403E-3,-1.412584335E-1
1.060791202E1,-1.582094431E-1,-4.260659590E-2,-1.435490996E-1
1.061724734E1,-1.369825006E-1,-6.612421572E-2,-1.543916464E-1
1.062658265E1,-2.118112892E-1,-4.459185153E-2,-1.672194302E-1
1.063590494E1,-4.001049399E-1,5.451811850E-2,-1.692046970E-1
1.064525327E1,-6.763606071E-1,2.060082406E-1,-1.577513069E-1
1.065458859E1,-9.405520558E-1,2.515163720E-1,-1.414111406E-1
1.066391088E1,-1.125486016E0,2.428117841E-1,-1.206423342E-1
1.067325921E1,-1.282015681E0,5.102101564E-1,-9.147437662E-2
1.068259452E1,-1.421899676E0,1.055391312E0,-7.696675509E-2
1.069191682E1,-1.483289838E0,1.377613306E0,-1.136175916E-1
1.070126515E1,-1.507570982E0,1.381431103E0,-2.047865391E-1
1.071060046E1,-1.506502032E0,1.240019917E0,-3.011476994E-1
1.071992275E1,-1.474432588E0,1.198787689E0,-3.608580232E-1
1.072927109E1,-1.475806952E0,1.305991411E0,-3.993414044E-1
1.073860635E1,-1.553842664E0,1.226123214E0,-4.407263100E-1
1.074792869E1,-1.630809426E0,1.003011227E0,-4.448495209E-1
1.075727697E1,-1.655854225E0,8.785510659E-1,-3.678827584E-1
1.076652083E1,-1.656770468E0,8.586985469E-1,-2.334963679E-1
1.077566036E1,-1.654632568E0,8.892409205E-1,-1.010952219E-1
1.078482541E1,-1.633405566E0,8.829796910E-1,-6.872031838E-3
1.079397770E1,-1.601794243E0,8.452599049E-1,3.665083647E-2
1.080311723E1,-1.558729529E0,7.168292403E-1,3.222219273E-2
1.081228228E1,-1.520551562E0,4.734066129E-1,-1.252236869E-2
1.082143458E1,-1.474279881E0,2.134911120E-1,-7.055285573E-2
1.083058687E1,-1.408002973E0,-4.123218823E-3,-1.285833418E-1
1.083973916E1,-1.323706031E0,-1.765348613E-1,-1.840177327E-1
1.084889145E1,-1.227802992E0,-2.687727809E-1,-2.272351831E-1
1.085803098E1,-1.134037971E0,-2.544178963E-1,-2.620534599E-1
1.086719603E1,-1.057987452E0,-1.325538605E-1,-2.878617644E-1
1.087634833E1,-1.002247691E0,5.482354015E-2,-3.077143133E-1
1.088548786E1,-9.735378027E-1,2.977880239E-1,-3.132119179E-1
1.089465286E1,-9.669712186E-1,5.923691392E-1,-3.005368412E-1
1.090380515E1,-9.715525508E-1,8.866447806E-1,-2.812951505E-1
1.091295744E1,-9.637642503E-1,1.122431874E0,-2.550287247E-1
1.092210973E1,-9.359707236E-1,1.302631736E0,-2.287622988E-1
1.093126202E1,-9.034430981E-1,1.458855987E0,-2.098260373E-1
1.094041432E1,-8.704573512E-1,1.563768983E0,-2.060082406E-1
1.094956661E1,-8.229639530E-1,1.626533508E0,-2.124221325E-1
1.095871890E1,-7.817317843E-1,1.641041160E0,-2.255553454E-1
1.096787119E1,-7.531746626E-1,1.616301894E0,-2.423536479E-1
1.097702348E1,-7.311841846E-1,1.585606813E0,-2.513636351E-1
1.098617577E1,-7.229377031E-1,1.551857471E0,-2.487675399E-1
1.099532806E1,-7.299624681E-1,1.497033954E0,-2.336490750E-1
1.100448036E1,-7.420266867E-1,1.459161401E0,-2.098260373E-1
1.101363265E1,-7.617265582E-1,1.438698053E0,-1.806580722E-1
1.102278494E1,-7.869240046E-1,1.429077148E0,-1.575985998E-1
1.103193723E1,-8.243383765E-1,1.396549582E0,-1.456870735E-1
1.104108952E1,-8.661814332E-1,1.316986680E0,-1.421747059E-1
1.105024182E1,-8.866447806E-1,1.185043693E0,-1.386623234E-1
1.105939411E1,-8.764131069E-1,1.003622055E0,-1.360662282E-1
1.106854640E1,-8.480086923E-1,7.939487100E-1,-1.356080920E-1
1.107769869E1,-8.102889061E-1,5.709894896E-1,-1.375933439E-1
1.108685098E1,-7.777612805E-1,3.842229247E-1,-1.421747059E-1
1.109600327E1,-7.521057129E-1,2.745758295E-1,-1.479777545E-1
1.110515556E1,-7.316423059E-1,2.481566966E-1,-1.502684206E-1
1.111430786E1,-7.230904698E-1,2.716743052E-1,-1.459924877E-1
1.112346015E1,-7.291989326E-1,3.156553209E-1,-1.374406368E-1
1.113261239E1,-7.432484031E-1,3.759764731E-1,-1.333174109E-1
1.114176468E1,-7.533273697E-1,4.717268050E-1,-1.285833418E-1
1.115091697E1,-7.482879162E-1,5.874823332E-1,-1.175880954E-1
1.116006926E1,-7.331694365E-1,6.768187881E-1,-1.004843712E-1
1.116922156E1,-7.186617851E-1,6.991146803E-1,-7.421794534E-2
1.117837385E1,-7.018635273E-1,6.757497787E-1,-4.718795046E-2
1.118752614E1,-6.671979427E-1,6.476507783E-1,-2.672456764E-2
1.119667843E1,-6.139014959E-1,6.116108298E-1,-5.039489828E-3
1.120583072E1,-5.506787896E-1,5.467082858E-1,1.939439960E-2
1.121498301E1,-4.718795121E-1,4.873034060E-1,3.833066672E-2
1.122413530E1,-3.703261614E-1,4.332434237E-1,5.238015205E-2
1.123328760E1,-2.483094037E-1,3.454341292E-1,6.551336497E-2
1.124243989E1,-1.533226669E-1,2.673983872E-1,7.360709459E-2
1.125159218E1,-1.331647038E-1,2.240282297E-1,6.642963737E-2
1.126074447E1,-1.620272398E-1,2.202104330E-1,4.184303805E-2
1.126989676E1,-2.060082406E-1,2.695363462E-1,1.404948719E-2
1.127904906E1,-2.542651594E-1,3.663556576E-1,-1.023169141E-2
1.128820135E1,-3.069507480E-1,4.668400288E-1,-2.840439789E-2
1.129735364E1,-3.600944579E-1,5.088357925E-1,-4.535540938E-2
1.130650593E1,-3.961344361E-1,4.731011987E-1,-6.749862432E-2
1.131565822E1,-4.063661397E-1,3.814741075E-1,-9.315420687E-2
1.132481051E1,-3.984251320E-1,2.631224692E-1,-1.235438585E-1
1.133396280E1,-3.830012381E-1,1.449235082E-1,-1.612636745E-1
1.134311510E1,-3.655920923E-1,7.070557028E-2,-2.012741715E-1
1.135226739E1,-3.408527672E-1,8.628217876E-2,-2.408265322E-1
1.136141968E1,-3.197785318E-1,1.615691036E-1,-2.699944973E-1
1.137057197E1,-3.191677034E-1,2.319692522E-1,-2.877090573E-1
1.137972426E1,-3.312319219E-1,2.747285664E-1,-2.933593988E-1
1.138887656E1,-3.715478480E-1,3.035911024E-1,-2.881672084E-1
1.139802885E1,-4.359922409E-1,3.330644667E-1,-2.678565085E-1
1.140718114E1,-5.085303187E-1,3.631486893E-1,-2.385358512E-1
1.141633338E1,-5.717530251E-1,3.860554695E-1,-2.145601064E-1
1.142548567E1,-6.091674566E-1,3.770454824E-1,-2.099787444E-1
1.143463796E1,-6.236750484E-1,3.521534503E-1,-2.313583940E-1
1.144379025E1,-6.061131954E-1,3.413109183E-1,-2.753393948E-1
1.145294254E1,-5.410579443E-1,3.303156495E-1,-3.235963285E-1
1.146209484E1,-4.828747511E-1,3.078670204E-1,-3.611634374E-1
1.147124713E1,-4.691306949E-1,2.988570333E-1,-3.834593594E-1
1.148039942E1,-5.073086619E-1,3.005368412E-1,-3.965925872E-1
1.148955171E1,-5.824428797E-1,3.093941510E-1,-4.057552814E-1
1.149870400E1,-6.542174220E-1,3.352024257E-1,-4.117110670E-1
1.150785629E1,-7.044596076E-1,3.724641204E-1,-4.121691883E-1
1.151700859E1,-7.324058414E-1,4.031592011E-1,-4.092676640E-1
1.152616088E1,-7.388197780E-1,4.194993675E-1,-4.001049399E-1
1.153531317E1,-7.223268747E-1,4.280512035E-1,-3.891097009E-1
1.154446546E1,-6.890357137E-1,4.370612204E-1,-3.797942698E-1
1.155361775E1,-6.485670805E-1,4.421007037E-1,-3.733803928E-1
1.156277004E1,-6.029062271E-1,4.451549351E-1,-3.663556576E-1
1.157192234E1,-5.488462448E-1,4.410317242E-1,-3.494046330E-1
1.158107463E1,-4.908157587E-1,4.207210541E-1,-3.245126009E-1
1.159022692E1,-4.330907166E-1,3.739912212E-1,-2.899997234E-1
1.159937921E1,-3.723114133E-1,2.953446507E-1,-2.472404242E-1
1.160853150E1,-3.048127890E-1,1.737860441E-1,-2.034121305E-1
1.161768379E1,-2.328855246E-1,3.130592033E-2,-1.545443535E-1
1.162683609E1,-1.505738497E-1,-9.422318637E-2,-1.038440317E-1
1.163598838E1,-5.528167635E-2,-1.656923145E-1,-4.688252881E-2
1.164514067E1,3.634541109E-2,-1.693574041E-1,1.053711493E-2
1.165429296E1,9.681928903E-2,-1.258345395E-1,5.360184610E-2
1.166344525E1,1.337755471E-1,-5.879404768E-2,7.101099193E-2
1.167259754E1,1.774511337E-1,2.809897438E-2,7.238540053E-2
1.168174984E1,2.486148328E-1,1.282779276E-1,6.749862432E-2
1.169090213E1,3.562766612E-1,2.313583940E-1,6.444438547E-2
1.170005442E1,5.007420182E-1,3.304683566E-1,6.719319522E-2
1.170920671E1,6.696413159E-1,4.054498672E-1,8.246438205E-2
1.171835900E1,8.451071978E-1,4.220954478E-1,1.014006436E-1
1.172751129E1,1.005912781E0,3.513898849E-1,1.214058921E-1
1.173666359E1,1.151447058E0,1.956238300E-1,1.403421611E-1
1.174581588E1,1.287513256E0,-5.344913341E-3,1.511846930E-1
1.175496817E1,1.421594262E0,-1.962346882E-1,1.650814712E-1
1.176412046E1,1.551857471E0,-3.585673273E-1,1.918060333E-1
1.177327275E1,1.678150177E0,-5.215108395E-1,2.409792393E-1
1.178242504E1,1.794821978E0,-7.215633392E-1,3.243598938E-1
1.179156458E1,1.890114188E0,-9.649859667E-1,4.492781460E-1
1.180072963E1,1.927223086E0,-1.187334418E0,6.163448691E-1
1.180988192E1,1.902178407E0,-1.312558055E0,8.141067028E-1
1.181902145E1,1.865374804E0,-1.367228866E0,1.015991688E0
1.182818650E1,1.849187374E0,-1.490772724E0,1.169314384E0
1.183733879E1,1.851478100E0,-1.703194857E0,1.245670319E0
1.184649109E1,1.902941942E0,-1.948450089E0,1.245059371E0
1.185564338E1,2.044047594E0,-2.121319771E0,1.187639832E0
1.186479567E1,2.240740538E0,-2.167744160E0,1.107160687E0
1.187393520E1,2.422162056E0,-2.146669865E0,1.021794796E0
1.188310025E1,2.546164036E0,-2.116738558E0,9.402466416E-1
1.189225254E1,2.607248783E0,-2.041451454E0,8.739697337E-1
1.190140484E1,2.623130798E0,-1.936233044E0,8.287670016E-1
1.191055713E1,2.604041815E0,-1.847202063E0,7.992936373E-1
1.191970942E1,2.560060978E0,-1.806886196E0,7.733326554E-1
1.192886171E1,2.504321098E0,-1.772220612E0,7.411104441E-1
1.193801400E1,2.440793037E0,-1.675401330E0,6.978929639E-1
1.194716629E1,2.372378111E0,-1.511236072E0,6.545228362E-1
1.195631859E1,2.303046942E0,-1.318513751E0,6.349757314E-1
1.196547088E1,2.242573023E0,-1.113116384E0,6.478035450E-1
1.197462317E1,2.199508190E0,-9.245173335E-1,6.846070886E-1
1.198377546E1,2.180724621E0,-7.834116220E-1,7.284353375E-1
1.199292775E1,2.177823305E0,-6.687250137E-1,7.502731681E-1
1.200208004E1,2.182404518E0,-5.531222224E-1,7.441646457E-1
1.201123234E1,2.180877447E0,-4.422534108E-1,7.207997441E-1
1.202038463E1,2.175379753E0,-3.628432751E-1,6.907155514E-1
1.202953692E1,2.158734322E0,-3.527642787E-1,6.662816405E-1
1.203868921E1,2.121472597E0,-3.817795515E-1,6.531484127E-1
1.204784150E1,2.065732718E0,-4.275930822E-1,6.540647149E-1
1.205699379E1,2.005411625E0,-5.132644176E-1,6.627692580E-1
1.206614609E1,1.950893402E0,-6.164975762E-1,6.606312990E-1
1.207529838E1,1.905843496E0,-7.382088900E-1,6.507050395E-1
1.208445067E1,1.876828194E0,-8.661814332E-1,6.224533319E-1
1.209360296E1,1.854684949E0,-9.839222431E-1,5.656445622E-1
1.210275525E1,1.834374309E0,-1.093874693E0,4.923428893E-1
1.211190754E1,1.802762985E0,-1.173284888E0,4.030064642E-1
1.212105978E1,1.746412277E0,-1.228566527E0,3.104631305E-1
1.213021213E1,1.649592996E0,-1.265828252E0,2.229592502E-1
1.213936442E1,1.515664816E0,-1.269951463E0,1.456870735E-1
1.214851671E1,1.358218908E0,-1.211310148E0,8.108997345E-2
1.215766900E1,1.199704051E0,-1.114185452E0,3.649812192E-2
1.216682129E1,1.054780483E0,-1.018740535E0,1.466033421E-2
1.217597359E1,9.258917570E-1,-9.429954290E-1,9.468132630E-3
1.218512588E1,8.055548072E-1,-8.588512540E-1,1.466033421E-2
1.219427817E1,6.830799580E-1,-7.342383862E-1,1.985253580E-2
1.220343046E1,5.520532131E-1,-5.584670901E-1,1.756185852E-2
1.221258275E1,4.222481549E-1,-3.724641204E-1,9.162709117E-3
1.222173504E1,2.944283783E-1,-2.124221325E-1,-2.901524538E-3
1.223088734E1,1.705790907E-1,-7.055285573E-2,-8.704573847E-3
1.224003963E1,5.772506446E-2,7.162184268E-2,-6.566607859E-3
1.224919192E1,-4.260659590E-2,1.847812980E-1,9.162709117E-3
1.225834421E1,-1.294996142E-1,2.418955117E-1,4.337015375E-2
1.226749650E1,-2.003578991E-1,2.113531530E-1,8.246438205E-2
1.227664879E1,-2.560977042E-1,9.804098308E-2,1.114796251E-1
1.228580109E1,-3.098522723E-1,-2.916795574E-2,1.252236813E-1
1.229495338E1,-3.689517379E-1,-1.160609797E-1,1.279724985E-1
1.230410567E1,-4.482091665E-1,-1.456870735E-1,1.279724985E-1
1.231325796E1,-5.462501645E-1,-1.452289373E-1,1.334701329E-1
1.232241025E1,-6.461237073E-1,-1.482831687E-1,1.504211426E-1
1.233156254E1,-7.362236381E-1,-1.423274130E-1,1.779092699E-1
1.234071484E1,-8.206732869E-1,-1.001789495E-1,2.102841735E-1
1.234986713E1,-9.069554806E-1,-3.512371704E-2,2.412846684E-1
1.235901942E1,-9.793408513E-1,-1.282779220E-2,2.585411072E-1
1.236815895E1,-9.950701594E-1,-4.474456236E-2,2.541124523E-1
1.237732400E1,-9.411629438E-1,-6.948387623E-2,2.215848416E-1
1.238647629E1,-8.754968047E-1,-7.207997888E-2,1.542389393E-1
1.239561583E1,-8.619054556E-1,-8.628217876E-2,4.993676394E-2
1.240478088E1,-8.819107413E-1,-1.889045089E-1,-1.058292910E-1
1.241393317E1,-8.273926377E-1,-3.671191931E-1,-2.695363462E-1
1.242307270E1,-6.277982593E-1,-3.636068404E-1,-3.903313875E-1
1.243223775E1,-3.112266660E-1,-2.596100792E-2,-4.469874799E-1
1.244139004E1,-8.857285604E-3,2.741177082E-1,-4.278984964E-1
1.245052958E1,3.176405653E-2,8.399149403E-3,-3.040492237E-1
1.245969463E1,-3.093941510E-1,-4.746283293E-1,-7.467607409E-2
1.246884692E1,-7.151494026E-1,-2.504473627E-1,9.559759498E-2
1.247798645E1,-9.306257963E-1,6.717792749E-1,1.166718230E-1
1.248715150E1,-1.066539288E0,1.233605981E0,5.482354015E-2
1.249630379E1,-1.178935170E0,1.148240089E0,-1.175880991E-2
1.250544333E1,-1.226275921E0,9.468132257E-1,-6.016845629E-2
1.251460838E1,-1.217265844E0,7.863131166E-1,-1.149920002E-1
1.252376067E1,-1.243685007E0,8.183826208E-1,-1.969982386E-1
1.253290020E1,-1.324622273E0,9.594883323E-1,-3.009949923E-1
1.254206525E1,-1.346918225E0,9.463551044E-1,-4.036173224E-1
1.255121754E1,-1.360814929E0,7.447755337E-1,-4.865398407E-1
1.256035708E1,-1.399145603E0,4.854708612E-1,-5.184566379E-1
1.256952213E1,-1.403879762E0,2.451024652E-1,-4.824166298E-1
1.257867442E1,-1.342795014E0,5.757235363E-2,-3.907895386E-1
1.258782671E1,-1.258345366E0,-1.832541823E-2,-2.478512824E-1
1.259697900E1,-1.218793035E0,4.199574888E-2,-9.071081877E-2
1.260613129E1,-1.218487620E0,1.714953631E-1,2.519745007E-2
1.261527083E1,-1.238645554E0,3.127537966E-1,9.162709117E-2
1.262443588E1,-1.309045672E0,4.590517282E-1,1.276670843E-1
1.263358817E1,-1.379293084E0,5.134171247E-1,1.423274130E-1
1.264274046E1,-1.420372605E0,4.993676245E-1,1.426328421E-1
1.265189275E1,-1.459924936E0,4.437805414E-1,1.351499557E-1
1.266104504E1,-1.466033459E0,3.768927455E-1,1.131594554E-1
1.267019734E1,-1.437628984E0,3.057290614E-1,8.903098851E-2
1.267934963E1,-1.375017166E0,2.195995897E-1,6.139015034E-2
1.268850197E1,-1.307824016E0,1.611109674E-1,3.985778242E-2
1.269765426E1,-1.257887244E0,9.132166207E-2,3.298575059E-2
1.270680656E1,-1.223527074E0,3.054236248E-2,3.939964995E-2
1.271595885E1,-1.206270576E0,3.054236248E-2,5.543438718E-2
1.272511114E1,-1.203063726E0,7.223268598E-2,7.009471953E-2
1.273426343E1,-1.198787689E0,1.481304616E-1,6.276455522E-2
1.274341572E1,-1.202758312E0,2.655658424E-1,3.023693897E-2
1.275256801E1,-1.217113137E0,3.918585181E-1,-2.367033064E-2
1.276172030E1,-1.219861984E0,5.204418898E-1,-9.407047927E-2
1.277087260E1,-1.215127945E0,6.426113248E-1,-1.667613089E-1
1.278002489E1,-1.201689243E0,7.574505806E-1,-2.333436459E-1
1.278917718E1,-1.182752967E0,8.724426031E-1,-2.936648130E-1
1.279832947E1,-1.178171635E0,1.001789451E0,-3.439069986E-1
1.280748176E1,-1.186876178E0,1.111283898E0,-3.794888556E-1
1.281663406E1,-1.178477049E0,1.201078415E0,-3.927747905E-1
1.282578635E1,-1.166718245E0,1.267966151E0,-3.842229247E-1
1.283493864E1,-1.187639832E0,1.315001488E0,-3.649812341E-1
1.284409093E1,-1.232537031E0,1.372268319E0,-3.469612300E-1
1.285324322E1,-1.256665468E0,1.442821264E0,-3.367295563E-1
1.286239551E1,-1.255901933E0,1.495201349E0,-3.362714052E-1
1.287154780E1,-1.268118858E0,1.549414039E0,-3.297048211E-1
1.288070010E1,-1.286444306E0,1.598281860E0,-3.066453338E-1
1.288985239E1,-1.299424887E0,1.581636310E0,-2.748812735E-1
1.289900468E1,-1.296828747E0,1.488176584E0,-2.510582209E-1
1.290815697E1,-1.298203111E0,1.361120462E0,-2.380777150E-1
1.291730926E1,-1.294232607E0,1.258039951E0,-2.399102598E-1
1.292646156E1,-1.284764528E0,1.167023659E0,-2.531961799E-1
1.293561385E1,-1.260941505E0,1.065164924E0,-2.718270421E-1
1.294476614E1,-1.227802992E0,9.596410394E-1,-2.990097404E-1
1.295391843E1,-1.192221165E0,8.481613994E-1,-3.292466700E-1
1.296307072E1,-1.153890491E0,7.692093849E-1,-3.503209054E-1
1.297222307E1,-1.111589313E0,7.383615971E-1,-3.469612300E-1
1.298137536E1,-1.085322857E0,7.452336550E-1,-3.203893900E-1
1.299052765E1,-1.081046939E0,7.284353375E-1,-2.898470163E-1
1.299967994E1,-1.068524599E0,6.978929639E-1,-2.628170252E-1
1.300883223E1,-1.044243336E0,6.661289334E-1,-2.406738251E-1
1.301798452E1,-1.023016453E0,6.125270724E-1,-2.209739983E-1
1.302713682E1,-9.994988441E-1,5.318952799E-1,-1.994416267E-1
1.303628911E1,-9.594883323E-1,4.549284875E-1,-1.808107942E-1
1.304544140E1,-9.054283500E-1,4.104893506E-1,-1.687465608E-1
1.305459369E1,-8.541171551E-1,3.695625961E-1,-1.609582454E-1
1.306374598E1,-8.192988634E-1,3.564293683E-1,-1.675248593E-1
1.307289827E1,-7.841751575E-1,3.623851240E-1,-1.867665499E-1
1.308205057E1,-7.443174124E-1,3.924693763E-1,-2.047865391E-1
1.309120286E1,-6.885775924E-1,4.298837483E-1,-2.081461996E-1
1.310035515E1,-6.117635369E-1,4.596625566E-1,-1.947075576E-1
1.310950744E1,-5.202891231E-1,4.827220440E-1,-1.702736765E-1
1.311865973E1,-4.367557764E-1,5.016583204E-1,-1.508792788E-1
1.312781202E1,-3.955236077E-1,5.077667832E-1,-1.371352077E-1
1.313696432E1,-3.918585181E-1,5.073086619E-1,-1.278197914E-1
1.314611661E1,-3.993414044E-1,4.958552718E-1,-1.096470803E-1
1.315526890E1,-4.014793634E-1,4.561502039E-1,-9.193251282E-2
1.316442119E1,-3.947600424E-1,3.886515796E-1,-8.567132801E-2
1.317357348E1,-3.822376728E-1,3.174878657E-1,-1.014006436E-1
1.318272583E1,-3.599417508E-1,2.554868758E-1,-1.378987730E-1
1.319187812E1,-3.341334462E-1,2.136438340E-1,-1.882936656E-1
1.320103041E1,-3.135173619E-1,1.948602796E-1,-2.339545041E-1
1.321018270E1,-3.045073450E-1,1.789782494E-1,-2.661767006E-1
1.321933499E1,-3.098522723E-1,1.585148573E-1,-2.901524603E-1
1.322848728E1,-3.292466700E-1,1.342336833E-1,-3.110739589E-1
1.323763958E1,-3.671191931E-1,1.039967462E-1,-3.313846290E-1
1.324679187E1,-4.106420577E-1,8.750387281E-2,-3.506263196E-1
1.325594416E1,-4.469874799E-1,9.223793447E-2,-3.613161445E-1
1.326509645E1,-4.624113739E-1,9.712471068E-2,-3.668137789E-1
1.327424874E1,-4.544703662E-1,9.834641218E-2,-3.698680103E-1
1.328340103E1,-4.106420577E-1,9.529217333E-2,-3.665083647E-1
1.329255333E1,-3.348970115E-1,9.361234307E-2,-3.640649617E-1
1.330170562E1,-2.425063550E-1,1.070509851E-1,-3.603998721E-1
1.331085791E1,-1.430909634E-1,1.458397806E-1,-3.469612300E-1
1.332001020E1,-5.375456065E-2,2.112004459E-1,-3.194731176E-1
1.332916249E1,1.175880991E-2,3.029802442E-1,-2.837385535E-1
1.333831478E1,5.909947306E-2,3.816268146E-1,-2.443388999E-1
1.334746708E1,9.605573118E-2,4.161396921E-1,-1.947075576E-1
1.335661942E1,1.348445266E-1,4.027010500E-1,-1.241547018E-1
1.336577171E1,1.953184158E-1,3.536805511E-1,-4.306473210E-2
1.337492400E1,2.973299026E-1,2.745758295E-1,3.771981969E-2
1.338407629E1,4.364503622E-1,1.882936656E-1,1.108687744E-1
1.339322859E1,5.957288146E-1,1.484358907E-1,1.779092699E-1
1.340238088E1,7.708892226E-1,1.771457046E-1,2.237228155E-1
1.341152041E1,9.452861547E-1,2.336490750E-1,2.469350100E-1
1.342068546E1,1.116323352E0,2.832804024E-1,2.492256761E-1
1.342983775E1,1.285375357E0,3.336753249E-1,2.370087355E-1
1.343897728E1,1.461757541E0,4.066715539E-1,2.082989216E-1
1.344814234E1,1.637986898E0,4.960079789E-1,1.673721522E-1
1.345729463E1,1.805359125E0,5.460974574E-1,1.366770715E-1
1.346643416E1,1.982352018E0,4.555393457E-1,1.502684206E-1
1.347559921E1,2.168660402E0,1.885990947E-1,2.463241518E-1
1.348475150E1,2.273726225E0,-1.504211426E-1,4.341596961E-1
1.349389109E1,2.228218079E0,-4.773771465E-1,6.577298045E-1
1.350305614E1,2.073215485E0,-8.148702383E-1,8.838959932E-1
1.351220843E1,1.924474239E0,-1.237271070E0,1.086544514E0
1.352134796E1,1.859419107E0,-1.757560253E0,1.216502309E0
1.353051301E1,1.867207408E0,-2.228676319E0,1.250557065E0
1.353966531E1,1.973189354E0,-2.422772884E0,1.214822531E0
1.354880484E1,2.175837994E0,-2.370851040E0,1.142895222E0
1.355796989E1,2.406280041E0,-2.309918880E0,1.034469843E0
1.356712218E1,2.594420910E0,-2.342751980E0,9.095515609E-1
1.357626171E1,2.711245537E0,-2.416358948E0,8.194515705E-1
1.358542676E1,2.758280754E0,-2.482788801E0,7.824953198E-1
1.359457906E1,2.748659849E0,-2.505695343E0,7.824953198E-1
1.360371859E1,2.705137014E0,-2.459270954E0,7.840224504E-1
1.361288364E1,2.649702787E0,-2.320303202E0,7.536327839E-1
1.362203593E1,2.590297699E0,-2.128955364E0,7.224795818E-1
1.363118822E1,2.510582209E0,-1.895764470E0,7.308787704E-1
1.364034051E1,2.420482159E0,-1.631267548E0,7.629482150E-1
1.364949286E1,2.335879803E0,-1.334854007E0,7.878402472E-1
1.365864515E1,2.268075943E0,-1.014770031E0,8.079982400E-1
1.366779744E1,2.232341290E0,-7.394306064E-1,8.257128000E-1
1.367694973E1,2.231119633E0,-5.369347334E-1,8.348754644E-1
1.368610202E1,2.258302212E0,-3.984251320E-1,8.275453448E-1
1.369525432E1,2.290677309E0,-2.935121059E-1,8.081509471E-1
1.370440661E1,2.305643082E0,-2.267770469E-1,7.789829373E-1
1.371355890E1,2.285637617E0,-1.870719790E-1,7.591304183E-1
1.372271119E1,2.232952118E0,-2.136438340E-1,7.594358325E-1
1.373186348E1,2.162704706E0,-2.848075330E-1,7.675296068E-1
1.374101577E1,2.095358849E0,-3.529170156E-1,7.768449783E-1
1.375016806E1,2.041604280E0,-3.857500553E-1,7.612683773E-1
1.375932036E1,2.007091284E0,-4.372139275E-1,7.153021693E-1
1.376847265E1,1.968913436E0,-5.512896776E-1,6.583406329E-1
1.377762494E1,1.919587493E0,-7.336275578E-1,5.951179266E-1
1.378678216E1,1.870414257E0,-9.237537384E-1,5.125008225E-1
1.379593440E1,1.810551286E0,-1.071884274E0,4.077405334E-1
1.380508674E1,1.734958887E0,-1.185196400E0,2.944283783E-1
1.381423903E1,1.646080613E0,-1.271325827E0,1.907370538E-1
1.382339132E1,1.534753680E0,-1.324774981E0,1.062874198E-1
1.383254361E1,1.400825500E0,-1.334854007E0,4.428642616E-2
1.384169591E1,1.248419046E0,-1.312405348E0,7.788302377E-3
1.385084820E1,1.088682532E0,-1.280794024E0,-1.114796288E-2
1.386000049E1,9.170344472E-1,-1.250404358E0,-2.580829710E-2
1.386915278E1,7.412631512E-1,-1.214058876E0,-4.840964451E-2
1.387830507E1,5.731274486E-1,-1.149461865E0,-7.956285775E-2
1.388745736E1,4.170559645E-1,-1.056918502E0,-1.247655526E-1
1.389660966E1,2.669402659E-1,-9.266552925E-1,-1.783674061E-1
1.390576195E1,1.214058921E-1,-7.452336550E-1,-2.350234836E-1
1.391491429E1,-3.145863488E-2,-5.183038712E-1,-2.785463631E-1
1.392406658E1,-1.908897758E-1,-2.553341687E-1,-2.925958335E-1
1.393321888E1,-3.443651497E-1,8.399149403E-3,-2.725905776E-1
1.394237117E1,-4.763081372E-1,1.959292591E-1,-2.168507725E-1
1.395152346E1,-5.867187977E-1,3.116848171E-1,-1.426328421E-1
1.396067575E1,-6.702521443E-1,3.768927455E-1,-6.688777357E-2
1.396982804E1,-7.383615971E-1,3.848337829E-1,-5.039489828E-3
1.397898033E1,-8.108997345E-1,3.475720882E-1,4.092676565E-2
1.398813262E1,-8.976400495E-1,3.052709103E-1,7.269082218E-2
1.399728492E1,-1.006065488E0,3.003841341E-1,9.987352788E-2
1.400643721E1,-1.137244940E0,3.358132839E-1,1.246128380E-1
1.401558950E1,-1.277281642E0,3.532224298E-1,1.382041872E-1
1.402474184E1,-1.374711752E0,2.872509360E-1,1.211004704E-1
1.403389414E1,-1.376697063E0,1.805053651E-1,8.704573661E-2
1.404303367E1,-1.291483760E0,1.834068894E-1,3.878879920E-2
1.405219872E1,-1.183211088E0,3.067980409E-1,-3.374931216E-2
1.406135101E1,-1.102579355E0,3.895678520E-1,-1.792836636E-1
1.407049054E1,-9.947647452E-1,2.298312783E-1,-3.884988427E-1
1.407965559E1,-7.131641507E-1,1.085781008E-1,-5.616740584E-1
1.408880789E1,-3.529170156E-1,2.988570333E-1,-5.983248949E-1
1.409794742E1,-2.191414535E-1,2.273878902E-1,-4.391991794E-1
1.410711247E1,-4.805840850E-1,-4.112529159E-1,-1.296523362E-1
1.411626476E1,-9.092461467E-1,-7.211052179E-1,1.643179059E-1
1.412540434E1,-1.121362805E0,-6.719319522E-2,3.051182032E-1
1.413456940E1,-1.118155956E0,6.908682585E-1,2.851129472E-1
1.414372169E1,-1.292094707E0,9.487984776E-1,1.951656938E-1
1.415286122E1,-1.569572091E0,8.732061386E-1,9.193251282E-2
1.416202627E1,-1.568503022E0,7.160657048E-1,2.290677279E-3
1.417117856E1,-1.406781197E0,8.591566682E-1,-4.504998401E-2
1.418031809E1,-1.311641812E0,1.067608237E0,-9.086353332E-2
1.418948315E1,-1.350736022E0,1.196191669E0,-1.620272398E-1
1.419863544E1,-1.461910248E0,1.123348117E0,-2.550287247E-1
1.420777502E1,-1.552468300E0,6.755970716E-1,-3.578037918E-1
1.421694002E1,-1.626533508E0,3.083251417E-1,-4.143071473E-1
1.422609231E1,-1.649898410E0,2.072299272E-1,-3.802524209E-1
1.423523190E1,-1.564379811E0,2.379250079E-1,-2.495311052E-1
1.424439695E1,-1.428619027E0,2.803788781E-1,-8.322793990E-2
1.425354924E1,-1.335464835E0,2.869454920E-1,3.283303976E-2
1.426268877E1,-1.330578089E0,3.510844707E-1,6.887302548E-2
1.427185382E1,-1.403421521E0,5.176930428E-1,3.283303976E-2
1.428100611E1,-1.497492075E0,6.129852533E-1,-7.345438004E-2
1.429014565E1,-1.538113356E0,6.003101468E-1,-2.197522968E-1
1.429931070E1,-1.527270913E0,5.593833923E-1,-3.662029207E-1
1.430846299E1,-1.495201349E0,5.409052372E-1,-4.819584787E-1
1.431761528E1,-1.464811683E0,5.593833923E-1,-5.483881235E-1
1.432676757E1,-1.439156175E0,5.894675851E-1,-5.645755529E-1
1.433591992E1,-1.428466320E0,6.894938350E-1,-5.419742465E-1
1.434507221E1,-1.424190402E0,8.079982400E-1,-4.975350797E-1
1.435422450E1,-1.415791273E0,8.846595287E-1,-4.419479966E-1
1.436337679E1,-1.411209822E0,9.565867782E-1,-3.808632791E-1
1.437252908E1,-1.429229856E0,1.015991688E0,-3.145863414E-1
1.438168138E1,-1.454580069E0,1.066081166E0,-2.499892414E-1
1.439083367E1,-1.473821759E0,1.125333309E0,-1.934858710E-1
1.439998596E1,-1.512152433E0,1.188250661E0,-1.443126649E-1
1.440913825E1,-1.550941229E0,1.236507535E0,-1.159082651E-1
1.441829054E1,-1.548650503E0,1.248571754E0,-1.091889441E-1
1.442744283E1,-1.510014415E0,1.200314879E0,-1.186570823E-1
1.443659518E1,-1.450914979E0,1.087002754E0,-1.375933439E-1
1.444574747E1,-1.404337883E0,9.750649333E-1,-1.580567211E-1
1.445489976E1,-1.375017166E0,8.977927566E-1,-1.827960461E-1
1.446405205E1,-1.361883998E0,8.170081973E-1,-2.156290859E-1
1.447320434E1,-1.357149839E0,7.734853625E-1,-2.490729690E-1
1.448235664E1,-1.363563776E0,8.101361990E-1,-2.699944973E-1
1.449150893E1,-1.382041931E0,8.776348233E-1,-2.732014358E-1
1.450066122E1,-1.387234092E0,9.071081877E-1,-2.670929730E-1
1.450981351E1,-1.367381573E0,8.987090588E-1,-2.571666837E-1
1.451896580E1,-1.342031479E0,8.909206986E-1,-2.521272004E-1
1.452811815E1,-1.305838704E0,9.072608948E-1,-2.562504113E-1
1.453727044E1,-1.255291104E0,9.037485123E-1,-2.643441558E-1
1.454642273E1,-1.207186937E0,8.466343284E-1,-2.695363462E-1
1.455557502E1,-1.176491857E0,7.846332788E-1,-2.655658424E-1
1.456472731E1,-1.151294351E0,7.165238261E-1,-2.544178963E-1
1.457387960E1,-1.098150611E0,6.303943992E-1,-2.415900975E-1
1.458303190E1,-1.010494113E0,5.268557668E-1,-2.336490750E-1
1.459218419E1,-9.239065051E-1,4.343124032E-1,-2.298312783E-1
1.460133648E1,-8.814526200E-1,3.626905680E-1,-2.344126403E-1
1.461048882E1,-8.741224408E-1,3.095468581E-1,-2.519744933E-1
1.461964111E1,-8.651124239E-1,2.774773538E-1,-2.678565085E-1
1.462879341E1,-8.359444737E-1,2.625116110E-1,-2.707580328E-1
1.463794570E1,-8.087617755E-1,2.438807636E-1,-2.612899244E-1
1.464709799E1,-7.948650122E-1,2.806843221E-1,-2.570139766E-1
1.465625028E1,-7.876875401E-1,3.651339412E-1,-2.606790662E-1
1.466540257E1,-7.698202729E-1,4.434750974E-1,-2.702999115E-1
1.467455486E1,-7.266027927E-1,5.175403357E-1,-2.909159958E-1
1.468370716E1,-6.630746722E-1,5.349494815E-1,-3.167243004E-1
1.469285945E1,-6.029062271E-1,4.862344265E-1,-3.400892019E-1
1.470201179E1,-5.506787896E-1,4.369085133E-1,-3.432961702E-1
1.471116408E1,-5.068505406E-1,4.346178174E-1,-3.173351586E-1
1.472031638E1,-4.588989913E-1,4.185830951E-1,-2.724378705E-1
1.472946867E1,-4.097257853E-1,3.458922505E-1,-2.330382317E-1
1.473862096E1,-3.727695346E-1,2.104368806E-1,-2.124221325E-1
1.474777325E1,-3.695625961E-1,4.413371533E-2,-2.049392611E-1
1.475692554E1,-4.033119082E-1,-1.125486046E-1,-2.087570578E-1
1.476607783E1,-4.417952895E-1,-2.235700935E-1,-2.266243398E-1
1.477523012E1,-4.362976551E-1,-2.699944973E-1,-2.498365343E-1
1.478438247E1,-3.862081766E-1,-2.767138183E-1,-2.762556672E-1
1.479353476E1,-2.991624475E-1,-2.790044844E-1,-2.988570333E-1
1.480268705E1,-2.047865391E-1,-2.796153426E-1,-3.190149665E-1
1.481183934E1,-1.349972486E-1,-2.927485406E-1,-3.264978528E-1
1.482099164E1,-9.361234307E-2,-3.022166789E-1,-3.237490356E-1
1.483014393E1,-7.253811508E-2,-2.600682080E-1,-3.016058207E-1
1.483929622E1,-7.055285573E-2,-1.459924877E-1,-2.594573796E-1
1.484844851E1,-8.444963396E-2,1.221694518E-3,-2.029540092E-1
1.485760085E1,-1.166718230E-1,1.459924877E-1,-1.586675793E-1
1.486675315E1,-1.652341783E-1,2.658712566E-1,-1.456870735E-1
1.487590544E1,-2.110477239E-1,3.652866483E-1,-1.577513069E-1
1.488505773E1,-2.296785712E-1,4.573718905E-1,-1.750077456E-1
1.489421002E1,-2.107423097E-1,5.459447503E-1,-1.834068894E-1
1.490336231E1,-1.559187621E-1,6.164975762E-1,-1.776038408E-1
1.491251460E1,-6.749862432E-2,6.493306160E-1,-1.562241912E-1
1.492166690E1,5.589252338E-2,6.206207871E-1,-1.224748790E-1
1.493081919E1,2.032594234E-1,5.187620521E-1,-6.749862432E-2
1.493997148E1,3.626905680E-1,3.691044450E-1,3.054236295E-4
1.494912382E1,5.160132051E-1,2.044811249E-1,7.345438004E-2
1.495827611E1,6.526902914E-1,5.803048983E-2,1.380514801E-1
1.496742841E1,7.719582319E-1,-5.665608495E-2,1.884463727E-1
1.497658070E1,8.869501948E-1,-1.191152185E-1,2.150182426E-1
1.498573299E1,9.955283403E-1,-1.236965731E-1,2.188360244E-1
1.499488528E1,1.082115889E0,-1.043021679E-1,2.237228155E-1
1.500402481E1,1.155112147E0,-5.833591148E-2,2.363978922E-1
1.501318992E1,1.243226886E0,1.832541823E-2,2.394521236E-1
1.502234221E1,1.375322580E0,1.258345395E-1,2.292204350E-1
1.503149450E1,1.561325550E0,2.225011140E-1,2.200577259E-1
1.504064679E1,1.792836666E0,2.518217862E-1,2.290677279E-1
1.504979908E1,2.044505835E0,2.029540092E-1,2.724378705E-1
1.505893861E1,2.271282911E0,1.024696305E-1,3.570402265E-1
1.506810367E1,2.387649298E0,-1.572931744E-2,4.740174711E-1
1.507725596E1,2.345958948E0,-9.239064902E-2,6.062659025E-1
1.508639554E1,2.211725235E0,-1.250709742E-1,7.531746626E-1
1.509556059E1,2.057791710E0,-2.832804024E-1,9.176452756E-1
1.510471289E1,1.926764965E0,-6.606312990E-1,1.075091124E0
1.511385242E1,1.842620730E0,-1.186265349E0,1.206270576E0
1.512301747E1,1.873163104E0,-1.670514584E0,1.283084631E0
1.513216976E1,2.034274101E0,-1.977617979E0,1.301562786E0
1.514132205E1,2.246696234E0,-2.084668875E0,1.269493341E0
1.515047434E1,2.433920860E0,-2.094137192E0,1.207950473E0
1.515962664E1,2.552272558E0,-2.143004894E0,1.141673565E0
1.516876622E1,2.605110884E0,-2.242573023E0,1.085322857E0
1.517793127E1,2.627406836E0,-2.358481169E0,1.031873703E0
1.518708356E1,2.646495819E0,-2.467670202E0,9.721634388E-1
1.519622309E1,2.665737391E0,-2.523562670E0,8.875610828E-1
1.520538815E1,2.669708014E0,-2.502794027E0,7.824953198E-1
1.521454044E1,2.643136024E0,-2.367033243E0,6.704048514E-1
1.522367997E1,2.583578587E0,-2.140866995E0,5.832064152E-1
1.523284502E1,2.498059750E0,-1.862167835E0,5.451811552E-1
1.524199736E1,2.407043695E0,-1.548345089E0,5.632011890E-1
1.525114966E1,2.325342894E0,-1.181225896E0,6.160394549E-1
1.526030195E1,2.261356592E0,-8.044858575E-1,6.734591126E-1
1.526945424E1,2.201340914E0,-4.567610323E-1,7.093463540E-1
1.527860653E1,2.152625799E0,-1.675248593E-1,7.160657048E-1
1.528775882E1,2.110171795E0,2.748812735E-2,7.003363967E-1
1.529691111E1,2.069855928E0,1.406475753E-1,6.707102656E-1
1.530605070E1,2.025111437E0,2.026485801E-1,6.404733658E-1
1.531521575E1,1.967997193E0,1.908897758E-1,6.216897964E-1
1.532436804E1,1.898513317E0,1.023169160E-1,6.175665855E-1
1.533350757E1,1.832999945E0,-1.175880991E-2,6.154286265E-1
1.534267262E1,1.774358630E0,-1.395785958E-1,6.120689511E-1
1.535182492E1,1.713426590E0,-2.867927849E-1,5.983248949E-1
1.536097721E1,1.645469785E0,-4.750864506E-1,5.813738704E-1
1.537012950E1,1.586981177E0,-6.818582416E-1,5.549547076E-1
1.537928184E1,1.532157660E0,-8.713735938E-1,5.076140761E-1
1.538843414E1,1.478861213E0,-1.018129706E0,4.366030693E-1
1.539758643E1,1.425259352E0,-1.108382344E0,3.526115716E-1
1.540673872E1,1.370588541E0,-1.171452284E0,2.832804024E-1
1.541589101E1,1.307213187E0,-1.234980464E0,2.254026383E-1
1.542504330E1,1.223527074E0,-1.294385314E0,1.760767251E-1
1.543419559E1,1.120293856E0,-1.322942495E0,1.490467340E-1
1.544334789E1,9.962918758E-1,-1.308129430E0,1.444653720E-1
1.545250023E1,8.602256775E-1,-1.243837714E0,1.521009654E-1
1.546165252E1,7.200362086E-1,-1.143353343E0,1.491994411E-1
1.547080481E1,5.803049207E-1,-1.003927469E0,1.243074164E-1
1.547995710E1,4.395045936E-1,-8.344173431E-1,7.864658535E-2
1.548910940E1,2.887780368E-1,-6.305471063E-1,2.916795574E-2
1.549826169E1,1.310267299E-1,-4.068242610E-1,-7.482878864E-3
1.550741398E1,-2.993151546E-2,-1.817270666E-1,-2.412846684E-2
1.551656632E1,-1.866138428E-1,3.741439432E-2,-1.801999472E-2
1.552571861E1,-3.319954872E-1,2.276933193E-1,2.748812549E-3
1.553487091E1,-4.479037523E-1,3.565820754E-1,2.993151546E-2
1.554402320E1,-5.236487985E-1,4.149180055E-1,6.108472496E-2
1.555317549E1,-5.566345453E-1,4.253024161E-1,9.391776472E-2
1.556232778E1,-5.714476109E-1,4.048390090E-1,1.206423342E-1
1.557148007E1,-5.920637250E-1,3.651339412E-1,1.455343664E-1
1.558061966E1,-6.403206587E-1,2.958027720E-1,1.647760421E-1
1.558978471E1,-7.067502737E-1,2.037175596E-1,1.834068894E-1
1.559893700E1,-7.855495811E-1,1.125486046E-1,2.011214644E-1
1.560808929E1,-8.698465228E-1,2.458660305E-2,2.153236568E-1
1.561724158E1,-9.712471366E-1,-6.429167092E-2,2.165453583E-1
1.562639388E1,-1.094180107E0,-1.716480851E-1,2.046338320E-1
1.563553346E1,-1.159998894E0,-3.038965166E-1,1.646233350E-1
1.564469851E1,-1.063026905E0,-4.480564594E-1,1.079672500E-1
1.565385080E1,-8.693883419E-1,-5.028799772E-1,4.046862945E-2
1.566299033E1,-7.484406233E-1,-3.999522328E-1,-4.734066129E-2
1.567215539E1,-7.279772162E-1,-2.690782249E-1,-2.029540092E-1
1.568130768E1,-6.784985662E-1,-3.475720882E-1,-3.900259733E-1
1.569044721E1,-4.291202128E-1,-3.952181637E-1,-5.299099684E-1
1.569961226E1,-1.421747059E-1,8.887827396E-2,-5.942016840E-1
1.570876460E1,-1.104106456E-1,4.190412164E-1,-6.113054156E-1
1.571790414E1,-4.391991794E-1,-9.513945878E-2,-5.210527182E-1
1.572706919E1,-8.646543026E-1,-3.830012381E-1,-3.022166789E-1
1.573622148E1,-1.094027400E0,4.118637741E-1,-3.634541109E-2
1.574536101E1,-1.228413820E0,1.580261827E0,1.524063945E-1
1.575452606E1,-1.569877505E0,2.395132065E0,1.866138428E-1
1.576367841E1,-1.765653968E0,2.349165916E0,8.093725890E-2
1.577281794E1,-1.530172348E0,1.652341843E0,-7.879929990E-2
1.578198299E1,-1.290567517E0,1.126096964E0,-2.525853515E-1
1.579113528E1,-1.355622768E0,1.107313395E0,-4.135435820E-1
1.580027481E1,-1.537960649E0,1.213142633E0,-5.322006941E-1
1.580943986E1,-1.646233320E0,1.081963181E0,-6.018372774E-1
1.581859216E1,-1.571404576E0,7.018635273E-1,-5.967977643E-1
1.582773174E1,-1.401130915E0,3.034383655E-1,-5.085303187E-1
1.583689679E1,-1.299272060E0,-1.985253533E-3,-3.770454824E-1
1.584604908E1,-1.323858738E0,-1.459924877E-1,-2.200577259E-1
1.585518861E1,-1.385707021E0,-1.232384369E-1,-6.673506647E-2
1.586435367E1,-1.426328301E0,-4.321744293E-2,6.001574174E-2
1.587350596E1,-1.423121452E0,3.970507160E-2,1.453816444E-1
1.588264549E1,-1.427550077E0,9.758284688E-2,1.875301152E-1
1.589181054E1,-1.491841674E0,1.843231618E-1,1.864611208E-1
1.590096288E1,-1.555522561E0,2.328855246E-1,1.430909634E-1
1.591011518E1,-1.595380306E0,2.367033064E-1,7.742489129E-2
1.591926747E1,-1.619508743E0,2.971771955E-1,-3.359660041E-3
1.592841976E1,-1.600572586E0,3.626905680E-1,-9.544488788E-2
1.593755929E1,-1.524369359E0,4.317162931E-1,-1.974563748E-1
1.594672434E1,-1.437628984E0,4.868452549E-1,-2.982461751E-1
1.595587669E1,-1.382652760E0,5.865660906E-1,-3.840702176E-1
1.596502898E1,-1.380972981E0,7.713474035E-1,-4.471401870E-1
1.597418127E1,-1.388761282E0,9.894198179E-1,-4.955498278E-1
1.598333356E1,-1.391815424E0,1.209172130E0,-5.317425132E-1
1.599248585E1,-1.424343109E0,1.407239318E0,-5.596888065E-1
1.600163815E1,-1.486649513E0,1.566212416E0,-5.741963983E-1
1.601079049E1,-1.561478257E0,1.729461312E0,-5.735855699E-1
1.601994278E1,-1.616760015E0,1.846896648E0,-5.619794726E-1
1.602909507E1,-1.624090195E0,1.901872993E0,-5.363239050E-1
1.603824736E1,-1.602099657E0,1.905538082E0,-4.941754341E-1
1.604739966E1,-1.567892194E0,1.844300628E0,-4.511106908E-1
1.605655195E1,-1.540709496E0,1.749313831E0,-4.123218954E-1
1.606570424E1,-1.508181930E0,1.673110604E0,-3.662029207E-1
1.607485653E1,-1.483442545E0,1.632336617E0,-3.153499067E-1
1.608403544E1,-1.458703279E0,1.540862203E0,-2.736595869E-1
1.609316117E1,-1.408002973E0,1.432742238E0,-2.353289127E-1
1.610233997E1,-1.351499557E0,1.366007209E0,-2.012741715E-1
1.611146575E1,-1.299424887E0,1.337297320E0,-1.898207814E-1
1.612061804E1,-1.235285878E0,1.339588046E0,-2.021904439E-1
1.612977038E1,-1.173284888E0,1.314237833E0,-2.359397560E-1
1.613895731E1,-1.112047434E0,1.241241574E0,-2.812951505E-1
1.614807497E1,-1.041952729E0,1.138313890E0,-3.203893900E-1
1.615722726E1,-9.610154629E-1,1.044243336E0,-3.326063454E-1
1.616637955E1,-8.883246183E-1,9.776610136E-1,-3.185568452E-1
1.617553184E1,-8.292251825E-1,9.019159675E-1,-2.948864996E-1
1.618468419E1,-7.681404352E-1,8.182299137E-1,-2.779355049E-1
1.619383648E1,-7.134696245E-1,7.635591030E-1,-2.574721277E-1
1.620298877E1,-6.846070886E-1,7.021689415E-1,-2.363978922E-1
1.621214106E1,-6.685723066E-1,6.125270724E-1,-2.179197669E-1
1.622129335E1,-6.733064055E-1,5.088357925E-1,-2.024958730E-1
1.623044565E1,-6.971294284E-1,4.101839364E-1,-1.959292591E-1
1.623959799E1,-7.240067124E-1,3.292466700E-1,-2.046338320E-1
1.624875028E1,-7.334748507E-1,2.822114229E-1,-2.168507725E-1
1.625790257E1,-7.090409398E-1,2.460187376E-1,-2.258607745E-1
1.626705486E1,-6.484143734E-1,2.124221325E-1,-2.217375487E-1
1.627620716E1,-5.806103349E-1,2.125748396E-1,-2.163926363E-1
1.628535945E1,-5.493044257E-1,2.360924631E-1,-2.197522968E-1
1.629451179E1,-5.586197972E-1,2.498365343E-1,-2.351761907E-1
1.630366408E1,-5.913001299E-1,2.599155009E-1,-2.531961799E-1
1.631281638E1,-6.308525205E-1,2.797680497E-1,-2.661767006E-1
1.632196867E1,-6.592568755E-1,2.838912606E-1,-2.677038014E-1
1.633112096E1,-6.569662094E-1,2.912214398E-1,-2.615953386E-1
1.634027325E1,-6.215370893E-1,3.280249834E-1,-2.557922900E-1
1.634942554E1,-5.674771070E-1,3.455868363E-1,-2.591519356E-1
1.635857789E1,-5.135698318E-1,3.323009014E-1,-2.702999115E-1
1.636773018E1,-4.749337435E-1,2.913741469E-1,-2.913741469E-1
1.637688247E1,-4.619532526E-1,2.261662036E-1,-3.101576865E-1
1.638603476E1,-4.688252807E-1,1.707318127E-1,-3.272614181E-1
1.639518705E1,-4.813476503E-1,1.423274130E-1,-3.510844707E-1
1.640433940E1,-4.879142344E-1,1.325538605E-1,-3.822376728E-1
1.641349169E1,-4.845545888E-1,1.148392856E-1,-4.140017331E-1
1.642264398E1,-4.798205197E-1,6.902574003E-2,-4.384356141E-1
1.643179627E1,-4.701996744E-1,-2.443389036E-2,-4.621059597E-1
1.644094856E1,-4.468347728E-1,-1.462979168E-1,-4.825693369E-1
1.645010085E1,-4.130854607E-1,-1.985253543E-1,-4.842491746E-1
1.645924044E1,-3.843756318E-1,-1.075091213E-1,-4.619532526E-1
1.646840549E1,-3.640649617E-1,7.589777559E-2,-4.240806997E-1
1.647755778E1,-3.350497186E-1,2.732014358E-1,-3.782671690E-1
1.648671007E1,-2.782409191E-1,4.324798584E-1,-3.335226178E-1
1.649586236E1,-1.910424829E-1,5.262449384E-1,-2.974826097E-1
1.650501466E1,-7.971556485E-2,5.457920432E-1,-2.777827978E-1
1.651416700E1,4.016320780E-2,5.128062963E-1,-2.702999115E-1
1.652331929E1,1.531699449E-1,4.695888162E-1,-2.596100867E-1
1.653247158E1,2.576248348E-1,4.277457893E-1,-2.246390730E-1
1.654162388E1,3.532224298E-1,3.920112252E-1,-1.603474021E-1
1.655077617E1,4.346178174E-1,3.503209054E-1,-7.925742865E-2
1.655992846E1,4.854708612E-1,2.806843221E-1,-6.108472589E-3
1.656908080E1,5.158604980E-1,1.682884246E-1,4.657710344E-2
1.657823309E1,5.590779781E-1,7.024743594E-3,8.490777016E-2
1.658738538E1,6.426113248E-1,-1.699682474E-1,1.156028435E-1
1.659652492E1,7.626428008E-1,-3.274141252E-1,1.513374150E-1
1.660569002E1,8.947384953E-1,-4.385883212E-1,2.017323077E-1
1.661484231E1,1.026834249E0,-4.880669713E-1,2.663294077E-1
1.662398184E1,1.169619799E0,-4.984513521E-1,3.429907262E-1
1.663314690E1,1.326302052E0,-4.863871336E-1,4.210264683E-1
1.664229919E1,1.496575832E0,-4.718795121E-1,5.071559548E-1
1.665143877E1,1.692199588E0,-5.338805318E-1,6.044333577E-1
1.666060382E1,1.904621720E0,-7.061394453E-1,7.165238261E-1
1.666975611E1,2.124832153E0,-1.000415087E0,8.521319032E-1
1.667889565E1,2.391161680E0,-1.419456363E0,1.003316641E0
1.668806070E1,2.693378210E0,-1.796196342E0,1.146102190E0
1.669721299E1,2.851434946E0,-1.932415247E0,1.251778722E0
1.670636528E1,2.749881744E0,-1.910730243E0,1.290720224E0
1.671551762E1,2.500197887E0,-1.868581772E0,1.228566527E0
1.672466992E1,2.308391809E0,-1.795890927E0,1.090209603E0
1.673380945E1,2.280140162E0,-1.664558768E0,9.410101771E-1
1.674297450E1,2.375279665E0,-1.487107635E0,8.108997345E-1
1.675212679E1,2.511803865E0,-1.337297320E0,7.206470370E-1
1.676126638E1,2.640539885E0,-1.252694964E0,6.971294284E-1
1.677043143E1,2.744689465E0,-1.136023164E0,7.447755337E-1
1.677958372E1,2.742704153E0,-1.277587056E0,7.876875401E-1
1.678873601E1,2.688186169E0,-1.420219898E0,8.502993584E-1
1.679788830E1,2.658560038E0,-1.501920700E0,9.057337642E-1
1.680704065E1,2.659628868E0,-1.646386027E0,9.509364963E-1
1.681618018E1,2.647412062E0,-1.736791492E0,9.497147799E-1
1.682534523E1,2.612441063E0,-1.676164865E0,9.286405444E-1
1.683449752E1,2.528907537E0,-1.548039675E0,9.011524320E-1
1.684364981E1,2.423689127E0,-1.424037695E0,8.812998533E-1
1.685280216E1,2.345042706E0,-1.389219403E0,8.826742768E-1
1.686195445E1,2.296480179E0,-1.412126184E0,8.968765140E-1
1.687110674E1,2.277085781E0,-1.370588541E0,9.132166505E-1
1.688025903E1,2.265785217E0,-1.272394896E0,9.081771374E-1
1.688941138E1,2.250514030E0,-1.131594539E0,8.707627654E-1
1.689856367E1,2.237380743E0,-1.014311910E0,8.156337738E-1
1.690771596E1,2.216612101E0,-9.379559755E-1,7.574505806E-1
1.691686825E1,2.178739548E0,-8.893936276E-1,7.168292403E-1
1.692602054E1,2.129871607E0,-8.576295376E-1,6.817055345E-1
1.693517288E1,2.065885544E0,-8.579349518E-1,6.513158679E-1
1.694432518E1,1.990293026E0,-8.725953102E-1,6.274928451E-1
1.695347747E1,1.912868142E0,-8.806890249E-1,5.964923501E-1
1.696262976E1,1.825364351E0,-8.707627654E-1,5.409052372E-1
1.697178205E1,1.719382286E0,-8.344173431E-1,4.613423944E-1
1.698093440E1,1.600878000E0,-7.681404352E-1,3.736858070E-1
1.699008669E1,1.464811683E0,-6.656708121E-1,2.835858464E-1
1.699923898E1,1.308740258E0,-5.595360994E-1,2.072299272E-1
1.700839127E1,1.142589808E0,-4.853181541E-1,1.511846930E-1
1.701754361E1,9.808679819E-1,-4.411844313E-1,1.041494608E-1
1.702669591E1,8.296833038E-1,-4.005630910E-1,6.887302548E-2
1.703584820E1,7.012526393E-1,-3.640649617E-1,4.718795046E-2
1.704500049E1,5.913001299E-1,-3.402419090E-1,2.321219631E-2
1.705415278E1,4.894413650E-1,-3.006895781E-1,-1.114796288E-2
1.706330512E1,3.759764731E-1,-2.089097649E-1,-4.566083103E-2
1.707245742E1,2.506000996E-1,-9.590301663E-2,-7.101099193E-2
1.708160971E1,1.131594554E-1,-2.748812735E-2,-8.185353130E-2
1.709076205E1,-1.740914769E-2,-3.252761811E-2,-7.666133344E-2
1.709991434E1,-1.207950488E-1,-6.581879407E-2,-6.383354217E-2
1.710906664E1,-1.934858710E-1,-7.788302749E-2,-5.161659420E-2
1.711821893E1,-2.490729690E-1,-7.421794534E-2,-3.741439432E-2
1.712737122E1,-3.090887070E-1,-5.207473040E-2,-2.489202656E-2
1.713652356E1,-3.758237660E-1,-3.283303976E-2,-2.412846684E-2
1.714567585E1,-4.553866386E-1,-2.764083818E-2,-3.634541109E-2
1.715482815E1,-5.445703268E-1,-3.436015919E-2,-4.978405312E-2
1.716398044E1,-6.528429985E-1,-5.757235363E-2,-5.299099907E-2
1.717313278E1,-7.739434838E-1,-8.719844371E-2,-4.535540938E-2
1.718228507E1,-9.081771374E-1,-1.145338640E-1,-3.527642787E-2
1.719143736E1,-1.064095974E0,-1.339282542E-1,-2.290677279E-2
1.720058966E1,-1.237729311E0,-1.427855492E-1,-2.535016090E-2
1.720974200E1,-1.405101418E0,-1.714953631E-1,-5.650337040E-2
1.721889429E1,-1.482526302E0,-2.182251811E-1,-1.284306347E-1
1.722803382E1,-1.362494826E0,-2.087570578E-1,-2.527380586E-1
1.723719888E1,-1.020420313E0,-8.246437646E-3,-4.104893506E-1
1.724635122E1,-5.430431962E-1,3.567348123E-1,-5.196782947E-1
1.725549075E1,-1.284306347E-1,4.543176591E-1,-5.173876286E-1
1.726465580E1,1.099525094E-1,1.527118147E-4,-4.060607255E-1
1.727380809E1,-2.092151903E-2,-1.020114943E-1,-2.756448388E-1
1.728294768E1,-7.117897868E-1,4.602734149E-1,-3.060344756E-1
1.729211273E1,-1.512305140E0,8.076927662E-1,-5.048652887E-1
1.730126502E1,-1.631573081E0,8.371661901E-1,-6.412369013E-1
1.731040455E1,-1.323095202E0,9.659022093E-1,-5.134171247E-1
1.731956966E1,-1.213295341E0,1.017366052E0,-2.073826492E-1
1.732872195E1,-1.421746969E0,1.333021402E0,2.000524849E-2
1.733786148E1,-1.704874754E0,1.757560253E0,6.215370819E-2
1.734702653E1,-1.818492293E0,2.314958334E0,-4.214845970E-2
1.735617888E1,-1.808871388E0,2.907327414E0,-2.055501044E-1
1.736531841E1,-1.776801944E0,2.854183912E0,-3.842229247E-1
1.737448346E1,-1.811772943E0,2.083447218E0,-5.494571328E-1
1.738363575E1,-1.878049850E0,1.195886254E0,-6.617003083E-1
1.739277533E1,-1.888586998E0,4.471401870E-1,-7.130114436E-1
1.740194038E1,-1.787186384E0,-1.342336833E-1,-7.156075835E-1
1.741109268E1,-1.579803705E0,-6.174138784E-1,-6.478035450E-1
1.742023226E1,-1.376697063E0,-9.431481957E-1,-4.989095032E-1
1.742939731E1,-1.311947227E0,-1.030957460E0,-3.084778786E-1
1.743854960E1,-1.362342119E0,-9.929322004E-1,-1.324011385E-1
1.744768914E1,-1.447249889E0,-8.576295376E-1,-1.954711229E-2
1.745685419E1,-1.552926421E0,-5.528167486E-1,8.857285604E-3
1.746600653E1,-1.688534498E0,-1.820324808E-1,-4.306473210E-2
1.747515882E1,-1.774358630E0,1.693574041E-1,-1.417165697E-1
1.748431111E1,-1.788408041E0,4.677563012E-1,-2.483094037E-1
1.749346341E1,-1.762447000E0,7.259919643E-1,-3.490992188E-1
1.750261575E1,-1.700904250E0,9.915578365E-1,-4.361449480E-1
1.751176804E1,-1.619203329E0,1.259567022E0,-4.973823726E-1
1.752092033E1,-1.539945960E0,1.500699043E0,-5.221216679E-1
1.753007263E1,-1.486802220E0,1.631573081E0,-5.089884996E-1
1.753922497E1,-1.465117097E0,1.662573576E0,-4.569137394E-1
1.754837726E1,-1.473363638E0,1.654327035E0,-3.923166394E-1
1.755752955E1,-1.496423125E0,1.656770468E0,-3.490992188E-1
1.756668190E1,-1.517955422E0,1.647302389E0,-3.376458287E-1
1.757583419E1,-1.529714227E0,1.596602082E0,-3.455868363E-1
1.758498648E1,-1.544527292E0,1.529103398E0,-3.535278440E-1
1.759413882E1,-1.571099162E0,1.459161401E0,-3.457395434E-1
1.760329111E1,-1.601794243E0,1.437476277E0,-3.222219348E-1
1.761244341E1,-1.613247633E0,1.464658976E0,-2.806843221E-1
1.762159570E1,-1.594005942E0,1.479472041E0,-2.250972092E-1
1.763074804E1,-1.556133389E0,1.499629974E0,-1.716480851E-1
1.763990033E1,-1.535975456E0,1.496728539E0,-1.317902952E-1
1.764905262E1,-1.508334637E0,1.426328301E0,-1.120904684E-1
1.765820492E1,-1.446333647E0,1.388455868E0,-1.151447073E-1
1.766735726E1,-1.353484869E0,1.360814929E0,-1.371352077E-1
1.767650955E1,-1.274838209E0,1.254832983E0,-1.688992679E-1
1.768566184E1,-1.218793035E0,1.084101200E0,-2.061609477E-1
1.769481419E1,-1.176033735E0,9.184088707E-1,-2.394521236E-1
1.770396648E1,-1.136175871E0,8.087617755E-1,-2.554868758E-1
1.771311877E1,-1.083184958E0,7.426375747E-1,-2.470877171E-1
1.772227106E1,-1.029735804E0,6.824691296E-1,-2.241809368E-1
1.773142341E1,-9.955283403E-1,6.265766025E-1,-1.927223057E-1
1.774057570E1,-9.662076235E-1,5.790832043E-1,-1.638597846E-1
1.774972799E1,-9.310839176E-1,5.070032477E-1,-1.433963925E-1
1.775888033E1,-9.002361298E-1,4.196520746E-1,-1.363716573E-1
1.776803262E1,-8.649597168E-1,3.449759781E-1,-1.433963925E-1
1.777718492E1,-8.185353279E-1,3.177932799E-1,-1.546970755E-1
1.778633726E1,-7.655443549E-1,3.323009014E-1,-1.585148573E-1
1.779548955E1,-7.282826304E-1,3.721587062E-1,-1.644706279E-1
1.780464184E1,-6.991146803E-1,4.204156399E-1,-1.800472289E-1
1.781379414E1,-6.746807694E-1,4.517215490E-1,-1.860029846E-1
1.782294648E1,-6.407787800E-1,4.523324072E-1,-1.846285909E-1
1.783209877E1,-5.784723759E-1,4.391991794E-1,-1.701209545E-1
1.784125106E1,-5.118899941E-1,4.327852726E-1,-1.647760421E-1
1.785040341E1,-4.671454430E-1,3.996468186E-1,-1.797417998E-1
1.785955570E1,-4.561502039E-1,3.520007432E-1,-2.137965411E-1
1.786870799E1,-4.561502039E-1,3.013004065E-1,-2.478512824E-1
1.787786033E1,-4.433223903E-1,2.589992285E-1,-2.637332976E-1
1.788701262E1,-4.159869850E-1,2.283041626E-1,-2.652604282E-1
1.789616492E1,-3.947600424E-1,2.017323077E-1,-2.675510943E-1
1.790531726E1,-3.808632791E-1,1.675248593E-1,-2.747285664E-1
1.791446955E1,-3.626905680E-1,1.276670843E-1,-2.849602401E-1
1.792362184E1,-3.553603888E-1,8.368607610E-2,-2.982461751E-1
1.793277414E1,-3.655920923E-1,5.528167635E-2,-3.130592108E-1
1.794192648E1,-3.881934285E-1,5.024218559E-2,-3.407000601E-1
1.795107877E1,-3.944546282E-1,7.360709459E-2,-3.755183518E-1
1.796023106E1,-3.631486893E-1,9.773556143E-2,-4.016320705E-1
1.796938341E1,-3.092414141E-1,8.017370105E-2,-4.243861437E-1
1.797853570E1,-2.593046725E-1,1.221694518E-2,-4.454603493E-1
1.798768799E1,-2.360924631E-1,-9.101624042E-2,-4.665345848E-1
1.799682757E1,-2.368560284E-1,-1.840177327E-1,-5.012001991E-1
1.800599262E1,-2.368560284E-1,-2.316638231E-1,-5.366293192E-1
1.801514492E1,-2.044811249E-1,-2.057028115E-1,-5.456393361E-1
1.802429726E1,-1.313321590E-1,-1.349972486E-1,-5.054761171E-1
1.803344955E1,-6.856760383E-2,-2.901524492E-2,-4.127800465E-1
1.804260184E1,-6.474980712E-2,1.304158866E-1,-3.042019308E-1
1.805175414E1,-1.111742035E-1,3.205420971E-1,-2.386885732E-1
1.806090648E1,-1.551551968E-1,4.770717025E-1,-2.368560284E-1
1.807005877E1,-1.605001241E-1,5.499152541E-1,-2.728960216E-1
1.807921111E1,-1.296523362E-1,5.503733754E-1,-2.990097404E-1
1.808836341E1,-6.490252167E-2,4.848600030E-1,-2.819060087E-1
1.809751570E1,4.062134400E-2,3.629959822E-1,-2.200577259E-1
1.810666804E1,1.896680743E-1,1.905843467E-1,-1.296523362E-1
1.811582033E1,3.703261614E-1,-1.527118124E-2,-1.710372418E-2
1.812497262E1,5.586197972E-1,-2.254026383E-1,1.113269106E-1
1.813412497E1,7.411104441E-1,-4.308000207E-1,2.367033064E-1
1.814327726E1,9.136747718E-1,-6.157340407E-1,3.345915973E-1
1.815242955E1,1.067608237E0,-7.611156702E-1,3.920112252E-1
1.816156914E1,1.214517117E0,-8.751913905E-1,4.162923992E-1
1.817073419E1,1.384179831E0,-9.568922520E-1,4.230117202E-1
1.817988648E1,1.586523056E0,-9.903361201E-1,4.251496792E-1
1.818902606E1,1.822004676E0,-9.845330715E-1,4.268295169E-1
1.819819111E1,2.098107576E0,-9.875873327E-1,4.359922409E-1
1.820734341E1,2.386121988E0,-1.019504070E0,4.698942602E-1
1.821648299E1,2.589534283E0,-1.054016948E0,5.402944088E-1
1.822564804E1,2.673220396E0,-1.028055906E0,6.392516494E-1
1.823480033E1,2.652298689E0,-9.281824231E-1,7.537854910E-1
1.824393992E1,2.551661730E0,-8.351809382E-1,8.585458398E-1
1.825310497E1,2.378333807E0,-8.545753360E-1,9.349017143E-1
1.826225726E1,2.176906824E0,-9.619317055E-1,9.978190064E-1
1.827139684E1,2.070466757E0,-1.089598775E0,1.070357084E0
1.828056190E1,2.091846466E0,-1.244601250E0,1.158624530E0
1.828971419E1,2.181335449E0,-1.371962905E0,1.228871942E0
1.829886653E1,2.284721375E0,-1.435491085E0,1.258956194E0
1.830801882E1,2.389634371E0,-1.513679504E0,1.251778722E0
1.831717111E1,2.495158434E0,-1.644553542E0,1.206881523E0
1.832631070E1,2.593199253E0,-1.821241140E0,1.123348117E0
1.833547575E1,2.685284615E0,-2.007091284E0,1.011257648E0
1.834462809E1,2.762098551E0,-2.133994818E0,8.904625773E-1
1.835376762E1,2.786226988E0,-2.149418831E0,7.739434838E-1
1.836293268E1,2.725142241E0,-2.095664263E0,6.861341596E-1
1.837208502E1,2.597169876E0,-2.039466381E0,6.497887969E-1
1.838122455E1,2.458354712E0,-1.964790225E0,6.639909744E-1
1.839038960E1,2.360008478E0,-1.809329629E0,7.212579250E-1
1.839954195E1,2.311904192E0,-1.564990640E0,7.915053368E-1
1.840869424E1,2.300145388E0,-1.307518601E0,8.492304087E-1
1.841784653E1,2.298465490E0,-1.047144890E0,8.710681796E-1
1.842699888E1,2.304115772E0,-7.789829373E-1,8.593093753E-1
1.843615117E1,2.320914268E0,-5.717530251E-1,8.238802552E-1
1.844530351E1,2.326259136E0,-4.538595080E-1,7.872294188E-1
1.845445580E1,2.303810358E0,-4.346178174E-1,7.740961909E-1
1.846360809E1,2.257233381E0,-4.564556181E-1,7.731798887E-1
1.847276044E1,2.182862759E0,-4.860817194E-1,7.611156702E-1
1.848191273E1,2.097038746E0,-5.230379701E-1,7.350019813E-1
1.849106502E1,2.003731728E0,-5.402944088E-1,6.927008033E-1
1.850021736E1,1.914548039E0,-5.448757410E-1,6.365028620E-1
1.850936966E1,1.832389116E0,-5.580089688E-1,5.609105229E-1
1.851850919E1,1.732973695E0,-5.541911721E-1,4.630222321E-1
1.852767429E1,1.613858461E0,-5.517477989E-1,3.547495604E-1
1.853682658E1,1.479472041E0,-5.850389600E-1,2.499892414E-1
1.854597888E1,1.332257867E0,-6.736118197E-1,1.580567211E-1
1.855513122E1,1.182447553E0,-7.789829373E-1,8.078455180E-2
1.856428351E1,1.033859015E0,-8.819107413E-1,1.679829881E-2
1.857343585E1,8.881719112E-1,-9.830059409E-1,-3.787253052E-2
1.858258815E1,7.360709310E-1,-1.030957460E0,-9.009996802E-2
1.859174044E1,5.763344169E-1,-9.796462655E-1,-1.640124917E-1
1.860089278E1,4.030064642E-1,-8.658760190E-1,-2.702999115E-1
1.861004507E1,2.322746664E-1,-7.521057129E-1,-3.747547865E-1
1.861919736E1,8.154810965E-2,-6.784985662E-1,-4.327852726E-1
1.862834971E1,-4.978405312E-2,-5.931326747E-1,-4.440859556E-1
1.863750200E1,-1.743968874E-1,-4.509579837E-1,-4.211791754E-1
1.864665434E1,-3.061871827E-1,-2.786990702E-1,-3.794888556E-1
1.865580664E1,-4.414898455E-1,-1.342336833E-1,-3.329117596E-1
1.866495893E1,-5.609105229E-1,-1.908897609E-2,-2.906105816E-1
1.867411127E1,-6.545228362E-1,7.727217674E-2,-2.484621257E-1
1.868326356E1,-7.391251922E-1,1.623326540E-1,-2.082989216E-1
1.869241585E1,-8.347227573E-1,2.202104330E-1,-1.760767251E-1
1.870156820E1,-9.558232427E-1,2.339545041E-1,-1.452289373E-1
1.871070773E1,-1.104411840E0,2.331909388E-1,-1.204896197E-1
1.871987283E1,-1.282779217E0,1.792836636E-1,-1.149920002E-1
1.872902512E1,-1.477639556E0,5.955760926E-2,-1.328592747E-1
1.873817742E1,-1.692505002E0,-2.290677279E-2,-1.757712960E-1
1.874732976E1,-1.844300628E0,4.474456236E-2,-2.476985604E-1
1.875648205E1,-1.769166350E0,2.341072112E-1,-3.695625961E-1
1.876562164E1,-1.278350592E0,5.699204803E-1,-5.384618640E-1
1.877478669E1,-4.602734149E-1,8.955020905E-1,-6.751389503E-1
1.878393898E1,3.283303976E-2,4.889832437E-1,-6.812474132E-1
1.879307856E1,-1.091889441E-1,-6.032116413E-1,-5.366293192E-1
1.880224361E1,-6.739172339E-1,-7.933378816E-1,-3.848337829E-1
1.881139591E1,-1.614621997E0,2.739650011E-1,-4.130854607E-1
1.882053549E1,-2.068176031E0,1.194053650E0,-4.443913698E-1
1.882970054E1,-1.557202339E0,1.587133884E0,-2.712161839E-1
1.883885288E1,-1.144575000E0,1.538571477E0,7.849387079E-2
1.884799242E1,-1.254527569E0,1.358066201E0,3.600944579E-1
1.885715747E1,-1.499171853E0,1.506960154E0,4.815003574E-1
1.886630981E1,-1.653716207E0,1.979755998E0,4.795151055E-1
1.887544934E1,-1.751757264E0,2.172020197E0,3.588727713E-1
1.888461445E1,-1.788560748E0,1.766264796E0,1.647760421E-1
1.889376674E1,-1.811467528E0,1.100288630E0,-1.435491070E-2
1.890290632E1,-1.891183138E0,4.740174711E-1,-1.391204596E-1
1.891207138E1,-1.899734974E0,-5.589252338E-2,-2.078407854E-1
1.892122367E1,-1.764585018E0,-4.793623984E-1,-2.229592502E-1
1.893036325E1,-1.556896925E0,-8.483141065E-1,-1.840177327E-1
1.893952830E1,-1.385096192E0,-1.083337665E0,-1.001789495E-1
1.894868059E1,-1.306754947E0,-1.076771021E0,1.634016447E-2
1.895782018E1,-1.323553324E0,-9.026795626E-1,1.420219839E-1
1.896698523E1,-1.392579079E0,-6.626165509E-1,2.212794125E-1
1.897613752E1,-1.468782187E0,-4.056025743E-1,2.089097649E-1
1.898527710E1,-1.540404081E0,-1.282779276E-1,1.087308154E-1
1.899444216E1,-1.584385037E0,1.742441803E-1,-4.581354558E-2
1.900359450E1,-1.584079623E0,4.918847680E-1,-2.028012872E-1
1.901274679E1,-1.546207070E0,8.078454733E-1,-3.371876776E-1
1.902189914E1,-1.493368864E0,1.077992678E0,-4.353813827E-1
1.903105143E1,-1.443279386E0,1.292400122E0,-4.784461260E-1
1.904020372E1,-1.390593767E0,1.461299300E0,-4.648547769E-1
1.904935606E1,-1.349667072E0,1.548955917E0,-4.059080184E-1
1.905850835E1,-1.333632231E0,1.577054858E0,-3.271087110E-1
1.906766070E1,-1.349361539E0,1.646691442E0,-2.502946556E-1
1.907681299E1,-1.375475287E0,1.719687700E0,-2.023431510E-1
1.908596528E1,-1.405559540E0,1.768555522E0,-1.916533262E-1
1.909511762E1,-1.424343109E0,1.804595470E0,-2.087570578E-1
1.910426992E1,-1.422968745E0,1.807955146E0,-2.447970361E-1
1.911342221E1,-1.413805962E0,1.762752533E0,-2.838912606E-1
1.912257455E1,-1.390593767E0,1.670972705E0,-3.177932799E-1
1.913172684E1,-1.346612811E0,1.576902151E0,-3.394783735E-1
1.914087919E1,-1.311794519E0,1.483595252E0,-3.432961702E-1
1.915003148E1,-1.296065211E0,1.365549088E0,-3.321481943E-1
1.915918382E1,-1.289193153E0,1.278350592E0,-3.240544796E-1
1.916833611E1,-1.272700310E0,1.231315374E0,-3.313846290E-1
1.917748841E1,-1.235896707E0,1.193290114E0,-3.420744538E-1
1.918664075E1,-1.187945247E0,1.128845692E0,-3.520007432E-1
1.919579304E1,-1.120293856E0,1.030193925E0,-3.611634374E-1
1.920494539E1,-1.030957460E0,9.597937465E-1,-3.648285270E-1
1.921409768E1,-9.426900148E-1,9.345963001E-1,-3.605526090E-1
1.922324997E1,-8.999307156E-1,9.045121074E-1,-3.533751369E-1
1.923240231E1,-8.898517489E-1,8.744278550E-1,-3.436015844E-1
1.924155460E1,-8.825215697E-1,8.776348233E-1,-3.263451457E-1
1.925070695E1,-8.710681796E-1,8.915315866E-1,-3.037438095E-1
1.925985924E1,-8.521319032E-1,9.097042680E-1,-2.773246467E-1
1.926901153E1,-8.272398710E-1,9.321529269E-1,-2.498365343E-1
1.927816388E1,-7.976137996E-1,9.370396733E-1,-2.397575527E-1
1.928731617E1,-7.809682488E-1,9.335273504E-1,-2.469350100E-1
1.929646851E1,-7.609629631E-1,9.063445926E-1,-2.596100867E-1
1.930562080E1,-7.249229550E-1,8.793146014E-1,-2.667875290E-1
1.931477309E1,-6.795675755E-1,8.353336453E-1,-2.657185495E-1
1.932392544E1,-6.401679516E-1,7.637118101E-1,-2.568612695E-1
1.933307773E1,-6.087092757E-1,6.902574301E-1,-2.437280566E-1
1.934223007E1,-5.676298141E-1,6.343649030E-1,-2.367033064E-1
1.935138236E1,-5.086830258E-1,5.891621709E-1,-2.344126403E-1
1.936053471E1,-4.636330605E-1,5.157077909E-1,-2.334963679E-1
1.936968700E1,-4.651601911E-1,4.078932703E-1,-2.412846684E-1
1.937883929E1,-5.070032477E-1,3.347443044E-1,-2.586938143E-1
1.938799164E1,-5.381564498E-1,3.274141252E-1,-2.741177082E-1
1.939714393E1,-5.347967744E-1,3.570402265E-1,-2.771719396E-1
1.940629627E1,-4.972296655E-1,3.570402265E-1,-2.757975459E-1
1.941544856E1,-4.495835900E-1,2.786990702E-1,-2.851129472E-1
1.942460085E1,-4.387410581E-1,1.708845198E-1,-3.100049794E-1
1.943375320E1,-4.559974670E-1,1.314848661E-1,-3.472666740E-1
1.944290549E1,-4.550811946E-1,1.753131598E-1,-3.863608837E-1
1.945205783E1,-4.164451063E-1,2.209739983E-1,-4.326325655E-1
1.946121012E1,-3.691044450E-1,1.852394342E-1,-4.798205197E-1
1.947036247E1,-3.513898849E-1,9.422318637E-2,-5.303681493E-1
1.947951476E1,-3.807105422E-1,1.924168877E-2,-5.757235289E-1
1.948866705E1,-4.280512035E-1,1.603474095E-2,-6.102364063E-1
1.949781940E1,-4.677563012E-1,5.512896553E-2,-6.294780970E-1
1.950697169E1,-4.958552718E-1,9.239064902E-2,-6.381826997E-1
1.951612403E1,-5.193728805E-1,1.110214889E-1,-6.219952106E-1
1.952527632E1,-5.349494815E-1,1.099525094E-1,-5.774033666E-1
1.953442861E1,-5.352548957E-1,1.137702987E-1,-5.163186193E-1
1.954358096E1,-5.167768002E-1,1.490467340E-1,-4.534013867E-1
1.955273325E1,-4.789042473E-1,2.373141646E-1,-4.049917459E-1
1.956188559E1,-4.159869850E-1,3.544441164E-1,-3.678827584E-1
1.957103789E1,-3.202366829E-1,4.572191834E-1,-3.313846290E-1
1.958019023E1,-1.852394342E-1,4.877615273E-1,-2.699944973E-1
1.958932976E1,-8.093725890E-3,4.268295169E-1,-1.776038408E-1
1.959849481E1,2.008160353E-1,2.993151546E-1,-7.223268598E-2
1.960764716E1,4.176668227E-1,1.331647038E-1,1.664558798E-2
1.961679945E1,6.206207871E-1,-4.413371533E-2,6.337540597E-2
1.962595179E1,8.063184023E-1,-2.107423097E-1,8.261708915E-2
1.963510408E1,9.678874612E-1,-3.808632791E-1,1.229330078E-1
1.964424367E1,1.095707297E0,-5.767925382E-1,2.112004459E-1
1.965340872E1,1.196802497E0,-7.870767117E-1,3.263451457E-1
1.966256101E1,1.302326322E0,-9.822424054E-1,4.425588250E-1
1.967170059E1,1.466033459E0,-1.137092113E0,5.378510356E-1
1.968086565E1,1.713121176E0,-1.241852522E0,6.258130074E-1
1.969001799E1,2.035648584E0,-1.319277406E0,7.302678823E-1
1.969915752E1,2.359703064E0,-1.427244663E0,8.564078808E-1
1.970832262E1,2.628781080E0,-1.463590026E0,1.015991688E0
1.971747492E1,2.810813665E0,-1.360356808E0,1.178324342E0
1.972661445E1,2.856016397E0,-1.289956689E0,1.272089362E0
1.973577955E1,2.777064323E0,-1.354553819E0,1.263079405E0
1.974493184E1,2.659628868E0,-1.466644287E0,1.165802002E0
1.975407143E1,2.591366768E0,-1.431673288E0,1.041952729E0
1.976323648E1,2.611371994E0,-1.220472813E0,9.539906979E-1
1.977238877E1,2.683604717E0,-1.003622055E0,9.182561636E-1
1.978154111E1,2.735068560E0,-8.997780085E-1,9.374978542E-1
1.979069341E1,2.732319832E0,-9.066500664E-1,1.008966923E0
1.979984575E1,2.696279764E0,-9.955283403E-1,1.109451294E0
1.980899804E1,2.655353069E0,-1.146560311E0,1.199704051E0
1.981815039E1,2.635500431E0,-1.366923451E0,1.243685007E0
1.982730268E1,2.631835461E0,-1.624242902E0,1.226123214E0
1.983645497E1,2.618549585E0,-1.828876734E0,1.135870457E0
1.984560731E1,2.577011824E0,-1.956696510E0,1.006829023E0
1.985475960E1,2.495769262E0,-1.972883940E0,8.872556686E-1
1.986391195E1,2.392994165E0,-1.896222591E0,8.130376935E-1
1.987306424E1,2.301519871E0,-1.785506487E0,7.995990515E-1
1.988221658E1,2.251583099E0,-1.656006932E0,8.228112459E-1
1.989136888E1,2.251888514E0,-1.495048642E0,8.509102464E-1
1.990052117E1,2.281667233E0,-1.328440070E0,8.822161555E-1
1.990967351E1,2.303352356E0,-1.141520858E0,9.048175216E-1
1.991882580E1,2.298618317E0,-9.559759498E-1,9.051229358E-1
1.992797815E1,2.257844210E0,-8.000571728E-1,9.017632604E-1
1.993713044E1,2.189582109E0,-6.723901033E-1,9.017632604E-1
1.994628278E1,2.102383614E0,-5.719057322E-1,8.980981708E-1
1.995543507E1,2.003884315E0,-5.196782947E-1,8.942803741E-1
1.996458742E1,1.922794461E0,-5.294518471E-1,8.686248064E-1
1.997373971E1,1.858197331E0,-5.262449384E-1,8.113578558E-1
1.998289200E1,1.795890927E0,-5.586197972E-1,7.394306064E-1
1.999204434E1,1.741372824E0,-6.239804626E-1,6.572716236E-1
2.000119664E1,1.687007427E0,-6.949914694E-1,5.641174316E-1
2.001034898E1,1.621952176E0,-7.713474035E-1,4.782933891E-1
2.001950127E1,1.536738992E0,-8.397622705E-1,4.094203711E-1
2.002865356E1,1.431367874E0,-8.944330812E-1,3.597890437E-1
2.003780591E1,1.317750216E0,-9.284878373E-1,3.266505599E-1
2.004695820E1,1.204438090E0,-9.347490072E-1,2.965663373E-1
2.005611054E1,1.084864736E0,-9.110786915E-1,2.651077211E-1
2.006526283E1,9.471186996E-1,-8.588512540E-1,2.287622988E-1
2.007441512E1,7.970029712E-1,-7.948650122E-1,1.806580722E-1
2.008356747E1,6.435275674E-1,-7.169819474E-1,1.362189353E-1
2.009271976E1,4.944808483E-1,-6.546755433E-1,1.020114943E-1
2.010187210E1,3.483356535E-1,-6.284091473E-1,6.978929788E-2
2.011102440E1,2.050919682E-1,-5.957288146E-1,4.627167806E-2
2.012017674E1,5.818320066E-2,-4.815003574E-1,3.603998944E-2
2.012932903E1,-1.070509851E-1,-2.799207568E-1,4.077405483E-2
2.013848138E1,-2.771719396E-1,-6.612421572E-2,6.077930331E-2
2.014763367E1,-4.344651103E-1,5.955760926E-2,8.093725890E-2
2.015678596E1,-5.548020005E-1,7.757759839E-2,9.895725548E-2
2.016593830E1,-6.345176101E-1,9.315420687E-2,1.088835225E-1
2.017509059E1,-6.943806410E-1,1.606528312E-1,1.169772521E-1
2.018424294E1,-7.696675658E-1,2.455606014E-1,1.359135211E-1
2.019339523E1,-8.762603998E-1,2.967190444E-1,1.551551968E-1
2.020254757E1,-9.982771277E-1,2.843494117E-1,1.586675793E-1
2.021169986E1,-1.126860499E0,1.966928244E-1,1.461452097E-1
2.022085221E1,-1.256512761E0,2.473931387E-2,1.142284349E-1
2.023000450E1,-1.361425877E0,-2.136438340E-1,5.375456065E-2
2.023915684E1,-1.360356808E0,-4.303418994E-1,-2.351761982E-2
2.024829638E1,-1.217418551E0,-3.846810758E-1,-1.018587798E-1
2.025746143E1,-9.518527389E-1,8.490777016E-2,-1.864611208E-1
2.026661377E1,-6.135960817E-1,7.828007340E-1,-3.129065037E-1
2.027575330E1,-2.938175201E-1,9.222266674E-1,-5.659499764E-1
2.028491841E1,1.466033421E-2,7.281299233E-1,-8.304468393E-1
2.029407070E1,-1.626380831E-1,5.467082858E-1,-9.243646264E-1
2.030321028E1,-1.157250166E0,-2.305948436E-1,-8.087617755E-1
2.031237533E1,-1.642720938E0,1.386623234E-1,-4.924955964E-1
2.032152762E1,-1.301562786E0,1.347681761E0,-1.276670843E-1
2.033066721E1,-1.407392025E0,1.693726778E0,1.113269106E-1
2.033983226E1,-1.830861926E0,1.544221878E0,1.310267299E-1
2.034898460E1,-1.780008912E0,1.676775694E0,8.368607610E-2
2.035812414E1,-1.513374090E0,1.875148416E0,1.527118124E-2
2.036728924E1,-1.466491580E0,1.687007427E0,-1.827960461E-1
2.037644153E1,-1.588966489E0,1.027750492E0,-4.659237564E-1
2.038558111E1,-1.782146931E0,4.750864506E-1,-7.049177289E-1
2.039474617E1,-1.818492293E0,1.201841980E-1,-8.515210748E-1
2.040389846E1,-1.658603072E0,-1.647760421E-1,-8.916842937E-1
2.041303804E1,-1.441752195E0,-4.756973088E-1,-8.148702383E-1
2.042220309E1,-1.355317354E0,-6.262711287E-1,-6.656708121E-1
2.043135544E1,-1.396396875E0,-5.804576278E-1,-5.060869455E-1
2.044049497E1,-1.437781692E0,-3.727695346E-1,-3.648285270E-1
2.044966007E1,-1.454274654E0,-7.177454978E-2,-2.742704153E-1
2.045881236E1,-1.480999231E0,2.121167034E-1,-2.507528067E-1
2.046795195E1,-1.515053868E0,4.680617154E-1,-2.805316150E-1
2.047711700E1,-1.550177574E0,6.853706241E-1,-3.377985358E-1
2.048626929E1,-1.571251869E0,8.658760190E-1,-3.935383558E-1
2.049542164E1,-1.566365123E0,1.036913276E0,-4.266768098E-1
2.050457393E1,-1.537197113E0,1.223832488E0,-4.283566475E-1
2.051372627E1,-1.503905892E0,1.428160906E0,-4.161396921E-1
2.052287856E1,-1.476570487E0,1.603015900E0,-4.062134326E-1
2.053203085E1,-1.454580069E0,1.703652978E0,-4.117110670E-1
2.054118320E1,-1.430146098E0,1.729614019E0,-4.237752855E-1
2.055033549E1,-1.415180445E0,1.717549801E0,-4.352286756E-1
2.055948783E1,-1.435185671E0,1.677692056E0,-4.396573007E-1
2.056864012E1,-1.462368369E0,1.617370844E0,-4.367557764E-1
2.057779247E1,-1.465575337E0,1.552315593E0,-4.294256270E-1
2.058694476E1,-1.455801725E0,1.485427856E0,-4.292729199E-1
2.059609710E1,-1.463590026E0,1.405254126E0,-4.274403751E-1
2.060524940E1,-1.473516345E0,1.333632231E0,-4.115583301E-1
2.061440169E1,-1.471989155E0,1.272242069E0,-3.859027624E-1
2.062355403E1,-1.455190897E0,1.189319611E0,-3.607053161E-1
2.063270632E1,-1.437323570E0,1.099525094E0,-3.377985358E-1
2.064185867E1,-1.423732281E0,1.026223421E0,-3.145863414E-1
2.065101096E1,-1.383569002E0,9.907942414E-1,-2.929012477E-1
2.066016330E1,-1.335312128E0,9.727742672E-1,-2.728960216E-1
2.066931559E1,-1.292552829E0,9.332218766E-1,-2.646495700E-1
2.067846794E1,-1.254069448E0,9.061918855E-1,-2.710634768E-1
2.068762023E1,-1.207034230E0,9.000834227E-1,-2.854183912E-1
2.069677252E1,-1.147629261E0,8.706100583E-1,-2.990097404E-1
2.070592486E1,-1.078756213E0,8.345700502E-1,-3.155026138E-1
2.071507716E1,-1.019809484E0,7.965448499E-1,-3.298575282E-1
2.072422950E1,-9.823951125E-1,7.429429889E-1,-3.350497186E-1
2.073338179E1,-9.364288449E-1,7.003363967E-1,-3.266505599E-1
2.074253414E1,-8.709154725E-1,6.739172339E-1,-3.066453338E-1
2.075168643E1,-8.049439788E-1,6.578825116E-1,-2.817533016E-1
2.076083877E1,-7.438592315E-1,6.339067221E-1,-2.635805905E-1
2.076999106E1,-6.919372082E-1,6.152759194E-1,-2.480039895E-1
2.077914335E1,-6.357392669E-1,6.137487888E-1,-2.353289127E-1
2.078829570E1,-5.712949038E-1,6.296308041E-1,-2.189887464E-1
2.079744799E1,-5.134171247E-1,6.279509664E-1,-1.973036677E-1
2.080660033E1,-4.860817194E-1,5.894675851E-1,-1.774511337E-1
2.081575263E1,-4.842491746E-1,5.076140761E-1,-1.603474021E-1
2.082490497E1,-4.785988331E-1,4.214846194E-1,-1.455343664E-1
2.083405726E1,-4.680617154E-1,3.539859951E-1,-1.404948682E-1
2.084320960E1,-4.665345848E-1,3.196258247E-1,-1.472141892E-1
2.085236190E1,-4.883723855E-1,2.875563502E-1,-1.693574041E-1
2.086151424E1,-5.302154422E-1,2.855710983E-1,-1.947075576E-1
2.087066653E1,-5.644228458E-1,3.281776905E-1,-2.188360244E-1
2.087981888E1,-5.754181147E-1,3.975088596E-1,-2.341072112E-1
2.088897117E1,-5.644228458E-1,4.300364852E-1,-2.481566966E-1
2.089812346E1,-5.370874405E-1,4.004103839E-1,-2.638860047E-1
2.090727580E1,-5.140279531E-1,3.202366829E-1,-2.837385535E-1
2.091642809E1,-5.155550838E-1,2.214321345E-1,-3.006895781E-1
2.092558044E1,-5.297572613E-1,1.580567211E-1,-3.173351586E-1
2.093473273E1,-5.428904891E-1,1.204896197E-1,-3.338280320E-1
2.094388507E1,-5.468609929E-1,8.551861346E-2,-3.576510847E-1
2.095303736E1,-5.366293192E-1,5.100574717E-2,-3.833066523E-1
2.096218971E1,-4.975350797E-1,2.809897438E-2,-4.019374847E-1
2.097134200E1,-4.485146105E-1,8.399149403E-3,-4.088095427E-1
2.098049429E1,-4.199574888E-1,-1.634016447E-2,-4.129327536E-1
2.098964664E1,-4.136963189E-1,-2.122694254E-2,-4.152234197E-1
2.099879893E1,-4.042281806E-1,1.985253580E-2,-4.182776511E-1
2.100795127E1,-3.672719002E-1,8.612946421E-2,-4.126273096E-1
2.101710356E1,-3.110739589E-1,1.398840249E-1,-3.933856487E-1
2.102625591E1,-2.663294077E-1,1.624853760E-1,-3.735330999E-1
2.103540820E1,-2.620534599E-1,1.600419879E-1,-3.691044450E-1
2.104456054E1,-3.051182032E-1,1.592784226E-1,-3.932329118E-1
2.105371283E1,-3.666610718E-1,1.698155403E-1,-4.407263100E-1
2.106286518E1,-4.146125913E-1,1.864611208E-1,-4.880669713E-1
2.107201747E1,-4.314108789E-1,2.159345001E-1,-5.071559548E-1
2.108116981E1,-4.188885093E-1,2.425063550E-1,-4.839437306E-1
2.109032210E1,-3.820849657E-1,2.312056869E-1,-4.341596961E-1
2.109946169E1,-3.155026138E-1,1.394258887E-1,-3.738385141E-1
2.110862674E1,-2.079934925E-1,-5.238015205E-2,-3.148917556E-1
2.111777903E1,-5.283828825E-2,-3.268032968E-1,-2.721324563E-1
2.112693138E1,1.325538605E-1,-6.065713167E-1,-2.363978922E-1
2.113608367E1,3.148917556E-1,-8.344173431E-1,-1.737860441E-1
2.114523601E1,4.665345848E-1,-9.626953006E-1,-5.971032009E-2
2.115437559E1,5.848862529E-1,-9.504783154E-1,8.399149776E-2
2.116354065E1,6.734591126E-1,-8.044858575E-1,2.365505993E-1
2.117269294E1,7.692093849E-1,-6.026008129E-1,3.805578351E-1
2.118183252E1,9.284878373E-1,-4.107947946E-1,4.920374751E-1
2.119099757E1,1.188403368E0,-2.799207568E-1,5.548020005E-1
2.120014992E1,1.547886968E0,-2.437280566E-1,5.903838873E-1
2.120928945E1,1.974563718E0,-2.814478874E-1,6.423059106E-1
2.121845455E1,2.422009468E0,-3.219164908E-1,7.310314775E-1
2.122760684E1,2.785616159E0,-4.288147688E-1,8.348754644E-1
2.123674643E1,3.026442766E0,-6.010736823E-1,9.216157794E-1
2.124591148E1,3.194120407E0,-8.325847983E-1,9.651386738E-1
2.125506377E1,3.250776291E0,-1.164427638E0,9.681929350E-1
2.126420335E1,3.146932364E0,-1.335312128E0,9.376505613E-1
2.127336841E1,2.908091068E0,-1.148545504E0,8.948912621E-1
2.128252075E1,2.674747467E0,-8.211314082E-1,8.796200752E-1
2.129166028E1,2.566932917E0,-7.000309825E-1,9.220739603E-1
2.130082538E1,2.573194027E0,-8.076927662E-1,9.875873327E-1
2.130997768E1,2.615342617E0,-1.006676316E0,1.065012217E0
2.131913002E1,2.652604103E0,-1.156944752E0,1.150836229E0
2.132828231E1,2.664973974E0,-1.201231122E0,1.231620789E0
2.133743466E1,2.661919594E0,-1.300493836E0,1.267660737E0
2.134658695E1,2.644815922E0,-1.557965875E0,1.229330063E0
2.135573929E1,2.624047041E0,-1.894695520E0,1.118766785E0
2.136489158E1,2.612441063E0,-2.165300846E0,9.686510563E-1
2.137403117E1,2.586479902E0,-2.307475567E0,8.312104344E-1
2.138319622E1,2.522951841E0,-2.274795294E0,7.453863621E-1
2.139234851E1,2.434837103E0,-2.058097124E0,7.169819474E-1
2.140148809E1,2.355885267E0,-1.695864677E0,7.345438004E-1
2.141065315E1,2.305643082E0,-1.267966151E0,7.889092565E-1
2.141980549E1,2.280140162E0,-8.585458398E-1,8.524373770E-1
2.142895778E1,2.258607626E0,-5.402944088E-1,8.922951221E-1
2.143811012E1,2.218139172E0,-2.944283783E-1,9.200887084E-1
2.144726242E1,2.152931213E0,-1.052184403E-1,9.463551044E-1
2.145640200E1,2.070008755E0,-1.068982668E-2,9.694145918E-1
2.146556705E1,1.966775417E0,1.634016447E-2,9.772028923E-1
2.147471934E1,1.858808160E0,2.993151546E-2,9.623898268E-1
2.148385893E1,1.766264796E0,-5.192201585E-3,9.287932515E-1
2.149302403E1,1.677233815E0,-8.811471611E-2,8.935168386E-1
2.150217632E1,1.611262321E0,-2.895416021E-1,8.612946272E-1
2.151131591E1,1.578276634E0,-4.966188073E-1,7.995990515E-1
2.152048096E1,1.549261332E0,-6.633801460E-1,7.073611021E-1
2.152963325E1,1.498255610E0,-7.812736630E-1,6.093201637E-1
2.153878559E1,1.426939249E0,-8.938222528E-1,5.228852630E-1
2.154793788E1,1.341878772E0,-1.003316641E0,4.466820657E-1
2.155709023E1,1.244906664E0,-1.080894232E0,3.788780272E-1
2.156624252E1,1.141978979E0,-1.113116384E0,3.170297146E-1
2.157539486E1,1.035386086E0,-1.120141149E0,2.777827978E-1
2.158454716E1,9.362761378E-1,-1.112505555E0,2.539597452E-1
2.159369950E1,8.504521251E-1,-1.088071704E0,2.423536479E-1
2.160285179E1,7.704311013E-1,-1.032789946E0,2.344126403E-1
2.161200414E1,6.723901033E-1,-9.539906979E-1,2.237228155E-1
2.162115643E1,5.341859460E-1,-8.693883419E-1,1.971509457E-1
2.163030872E1,3.813214004E-1,-7.672241330E-1,1.575985998E-1
2.163946106E1,2.412846684E-1,-6.699467301E-1,1.253764033E-1
2.164861335E1,1.094943732E-1,-6.172611713E-1,1.151447073E-1
2.165776570E1,-1.404948719E-2,-5.752654076E-1,1.172826737E-1
2.166691799E1,-1.337755471E-1,-5.073086619E-1,1.249182671E-1
2.167607033E1,-2.420482337E-1,-3.912476599E-1,1.369825006E-1
2.168522262E1,-3.316900730E-1,-2.237228155E-1,1.521009654E-1
2.169437497E1,-4.042281806E-1,-5.146388337E-2,1.618745178E-1
2.170352726E1,-4.698942602E-1,5.696150661E-2,1.655396074E-1
2.171267960E1,-5.331169367E-1,9.407047927E-2,1.638597846E-1
2.172183190E1,-6.048914790E-1,7.528692484E-2,1.627907902E-1
2.173098424E1,-6.870504618E-1,1.801999472E-2,1.659977436E-1
2.174013653E1,-7.777612805E-1,-4.718795046E-2,1.763821393E-1
2.174928888E1,-8.758022785E-1,-1.136175916E-1,1.866138428E-1
2.175844117E1,-9.817842841E-1,-1.843231618E-1,1.878355294E-1
2.176759351E1,-1.099677801E0,-2.405211031E-1,1.759240031E-1
2.177674580E1,-1.203216434E0,-3.028275371E-1,1.588202864E-1
2.178588538E1,-1.196802497E0,-3.788780272E-1,1.284306347E-1
2.179505044E1,-1.018740535E0,-3.582619131E-1,8.322793990E-2
2.180420278E1,-7.319477201E-1,-1.429382563E-1,1.725643501E-2
2.181334231E1,-4.298837483E-1,1.832541823E-1,-5.955760926E-2
2.182250742E1,-2.012741715E-1,2.832804024E-1,-1.441599578E-1
2.183165971E1,-1.893626526E-2,6.520794332E-2,-2.128802687E-1
2.184079929E1,1.084253863E-1,2.012741715E-1,-3.213056624E-1
2.184996434E1,-3.329117596E-2,8.457180262E-1,-5.042544007E-1
2.185911664E1,-7.188144922E-1,9.498674870E-1,-7.136223316E-1
2.186825622E1,-1.443126678E0,5.586197972E-1,-7.557707429E-1
2.187742127E1,-1.423732281E0,8.535063267E-1,-5.549547076E-1
2.188657361E1,-1.217113137E0,1.411057115E0,-1.404948682E-1
2.189571315E1,-1.314543247E0,1.962194085E0,1.716480851E-1
2.190487825E1,-1.464200854E0,2.411166906E0,2.240282297E-1
2.191403054E1,-1.525438309E0,2.221956968E0,9.361234307E-2
2.192317013E1,-1.546818018E0,1.673874259E0,-1.156028435E-1
2.193233518E1,-1.508181930E0,1.221999884E0,-3.017585576E-1
2.194148752E1,-1.548192382E0,5.987830162E-1,-4.567610323E-1
2.195062705E1,-1.652341843E0,-1.768402755E-1,-5.978667736E-1
2.195979216E1,-1.641651988E0,-7.237012982E-1,-6.635328531E-1
2.196894445E1,-1.480540991E0,-1.064401388E0,-6.290199757E-1
2.197808403E1,-1.286597013E0,-1.299119353E0,-4.938700199E-1
2.198724908E1,-1.213142633E0,-1.327829242E0,-2.977880239E-1
2.199640138E1,-1.246281147E0,-1.100441337E0,-8.582404256E-2
2.200554096E1,-1.331952453E0,-7.052231431E-1,8.918370306E-2
2.201470606E1,-1.417012930E0,-3.151971996E-1,1.774511337E-1
2.202385835E1,-1.500699043E0,1.969982497E-2,1.754658818E-1
2.203299794E1,-1.575527787E0,2.777827978E-1,1.050657257E-1
2.204216299E1,-1.612942219E0,4.593571424E-1,-3.970507067E-3
2.205131528E1,-1.627449751E0,6.155813336E-1,-1.336228400E-1
2.206046762E1,-1.612636805E0,7.440119386E-1,-2.637332976E-1
2.206961992E1,-1.544679999E0,8.461761475E-1,-3.683409095E-1
2.207877226E1,-1.474279881E0,9.376505613E-1,-4.326325655E-1
2.208792455E1,-1.410140872E0,1.005149126E0,-4.572191834E-1
2.209707690E1,-1.350888729E0,1.061347127E0,-4.367557764E-1
2.210622919E1,-1.302020907E0,1.087613583E0,-3.918585181E-1
2.211538153E1,-1.261552334E0,1.095554590E0,-3.500154912E-1
2.212453382E1,-1.244601250E0,1.125791550E0,-3.345915973E-1
2.213368617E1,-1.263384819E0,1.170994163E0,-3.471139669E-1
2.214283846E1,-1.300341129E0,1.250862479E0,-3.822376728E-1
2.215199080E1,-1.339435339E0,1.357913494E0,-4.271349311E-1
2.216114309E1,-1.371810198E0,1.487260342E0,-4.653128982E-1
2.217029544E1,-1.365701795E0,1.584232330E0,-4.873034060E-1
2.217944773E1,-1.322178841E0,1.614469290E0,-4.882196784E-1
2.218860007E1,-1.254374862E0,1.597060204E0,-4.676035643E-1
2.219775236E1,-1.187181592E0,1.581178188E0,-4.311054647E-1
2.220690471E1,-1.142895222E0,1.584232330E0,-4.039227366E-1
2.221605700E1,-1.126096964E0,1.554759026E0,-3.952181637E-1
2.222520934E1,-1.118003249E0,1.485580564E0,-4.011739492E-1
2.223436164E1,-1.108076930E0,1.406017661E0,-3.985778391E-1
2.224351398E1,-1.089446068E0,1.304922462E0,-3.825430870E-1
2.225266627E1,-1.043021679E0,1.205048919E0,-3.461976945E-1
2.226181856E1,-9.952229261E-1,1.139688253E0,-2.993151546E-1
2.227097091E1,-9.568922520E-1,1.101204872E0,-2.619007528E-1
2.228012325E1,-9.098569751E-1,1.073716760E0,-2.425063550E-1
2.228927554E1,-8.588512540E-1,1.025612593E0,-2.330382317E-1
2.229842789E1,-8.052493930E-1,9.600991607E-1,-2.338017821E-1
2.230758018E1,-7.600467205E-1,9.251281619E-1,-2.359397560E-1
2.231673252E1,-7.467607856E-1,8.866447806E-1,-2.356343269E-1
2.232588481E1,-7.655443549E-1,8.420529366E-1,-2.302894145E-1
2.233503710E1,-7.895200849E-1,8.287670016E-1,-2.194468826E-1
2.234418945E1,-7.947123051E-1,7.919634581E-1,-2.053973973E-1
2.235334174E1,-7.843278646E-1,7.197307944E-1,-1.870719790E-1
2.236249408E1,-7.682931423E-1,6.493306160E-1,-1.667613089E-1
2.237164638E1,-7.331694365E-1,5.806103349E-1,-1.548497826E-1
2.238079872E1,-6.910209656E-1,5.289937258E-1,-1.459924877E-1
2.238995101E1,-6.568135023E-1,4.989095032E-1,-1.359135211E-1
2.239910335E1,-6.264238358E-1,4.755446017E-1,-1.282779276E-1
2.240825565E1,-5.945070982E-1,4.278984964E-1,-1.305686086E-1
2.241740799E1,-5.567872524E-1,3.513898849E-1,-1.485885978E-1
2.242656028E1,-5.241069198E-1,2.814478874E-1,-1.733279079E-1
2.243571262E1,-5.204418898E-1,2.338017821E-1,-1.951656938E-1
2.244486492E1,-5.405998230E-1,2.115058601E-1,-2.026485801E-1
2.245401726E1,-5.612159371E-1,2.391466945E-1,-2.076880634E-1
2.246316955E1,-5.810684562E-1,2.692309320E-1,-2.078407854E-1
2.247232190E1,-5.954233408E-1,2.764083743E-1,-2.049392611E-1
2.248147419E1,-6.035171151E-1,2.915268540E-1,-2.031067163E-1
2.249062653E1,-6.004628539E-1,2.896943092E-1,-2.018850148E-1
2.249977882E1,-5.922164321E-1,2.631224692E-1,-2.066190839E-1
2.250893117E1,-5.887040496E-1,2.240282297E-1,-2.176143378E-1
2.251808346E1,-5.767925382E-1,2.070772201E-1,-2.304421216E-1
2.252723580E1,-5.424323678E-1,2.299840003E-1,-2.454078794E-1
2.253638809E1,-4.877615273E-1,2.643441558E-1,-2.567085624E-1
2.254554044E1,-4.213318825E-1,2.843494117E-1,-2.666348219E-1
2.255469273E1,-3.492519259E-1,2.939702570E-1,-2.745758295E-1
2.256384507E1,-2.958027720E-1,3.121429384E-1,-2.797680497E-1
2.257299736E1,-2.768665254E-1,3.260397315E-1,-2.869454920E-1
2.258214971E1,-2.909159958E-1,3.289412558E-1,-3.011476994E-1
2.259130200E1,-3.264978528E-1,3.234436214E-1,-3.216110766E-1
2.260045434E1,-3.706315756E-1,2.979407609E-1,-3.468085229E-1
2.260960664E1,-4.066715539E-1,2.785463631E-1,-3.776563108E-1
2.261875898E1,-4.280512035E-1,2.681619525E-1,-4.094203711E-1
2.262791127E1,-4.283566475E-1,2.402156889E-1,-4.399627447E-1
2.263706361E1,-4.086568058E-1,1.889045089E-1,-4.654656053E-1
2.264621591E1,-3.886515796E-1,1.105633527E-1,-4.799732268E-1
2.265536825E1,-3.849864900E-1,4.184303805E-2,-4.859289825E-1
2.266452054E1,-3.889569938E-1,5.039489828E-3,-4.889832437E-1
2.267367289E1,-3.952181637E-1,1.282779220E-2,-5.042544007E-1
2.268282518E1,-4.158342779E-1,6.337540597E-2,-5.308262706E-1
2.269197752E1,-4.547757804E-1,1.560714692E-1,-5.628957748E-1
2.270112981E1,-5.002838969E-1,2.962609231E-1,-5.847335458E-1
2.271028216E1,-5.392253995E-1,4.523324072E-1,-5.783196688E-1
2.271943445E1,-5.519005060E-1,5.296045542E-1,-5.296045542E-1
2.272858679E1,-5.085303187E-1,4.744756222E-1,-4.480564594E-1
2.273773908E1,-3.958290219E-1,2.912214398E-1,-3.646758199E-1
2.274687867E1,-2.351761907E-1,7.330167107E-3,-2.883199155E-1
2.275604372E1,-6.368082762E-2,-3.342861533E-1,-1.927223057E-1
2.276519606E1,9.758284688E-2,-6.384881139E-1,-7.177454978E-2
2.277434835E1,2.150182426E-1,-7.951704264E-1,4.092676565E-2
2.278350070E1,2.663294077E-1,-7.899782062E-1,1.194206402E-1
2.279265299E1,2.719797492E-1,-6.769714952E-1,1.646233350E-1
2.280179257E1,2.816005945E-1,-5.256340504E-1,1.939440072E-1
2.281095762E1,3.382566571E-1,-3.874298632E-1,2.254026383E-1
2.282010997E1,4.512633979E-1,-2.901524603E-1,2.663294077E-1
2.282926226E1,6.009209752E-1,-2.354816198E-1,3.144336343E-1
2.283841460E1,7.670714259E-1,-2.121167034E-1,3.680354655E-1
2.284756690E1,9.320002198E-1,-2.163926363E-1,4.224008918E-1
2.285671924E1,1.100594044E0,-2.738122940E-1,4.663818777E-1
2.286587158E1,1.278045177E0,-4.253024161E-1,4.993676245E-1
2.287502388E1,1.481762767E0,-6.833853722E-1,5.273138881E-1
2.288416346E1,1.703652978E0,-9.840749502E-1,5.798467398E-1
2.289332851E1,1.920351028E0,-1.219556570E0,6.772769094E-1
2.290248080E1,2.093831778E0,-1.303853512E0,8.020424247E-1
2.291162039E1,2.191261768E0,-1.215891480E0,9.136747718E-1
2.292078544E1,2.208365440E0,-1.169772506E0,9.688037634E-1
2.292993778E1,2.156138182E0,-1.313932419E0,9.513946176E-1
2.293907736E1,2.075811625E0,-1.543916464E0,8.973346353E-1
2.294824242E1,2.029081821E0,-1.728545070E0,8.470924497E-1
2.295739471E1,2.067870617E0,-1.779856205E0,8.034168482E-1
2.296653429E1,2.188971043E0,-1.729919434E0,7.595885396E-1
2.297569934E1,2.358633995E0,-1.648371339E0,7.107207775E-1
2.298485169E1,2.514858246E0,-1.601794243E0,6.971294284E-1
2.299400398E1,2.597475290E0,-1.640124917E0,7.466080785E-1
2.300315632E1,2.605263472E0,-1.715564489E0,8.272398710E-1
2.301230867E1,2.581440449E0,-1.769624472E0,8.948912621E-1
2.302146096E1,2.547538519E0,-1.784132123E0,9.228374958E-1
2.303061325E1,2.498670816E0,-1.755269647E0,9.058864713E-1
2.303976559E1,2.429797649E0,-1.686854720E0,8.583931327E-1
2.304891788E1,2.342904568E0,-1.590188146E0,8.003626466E-1
2.305807023E1,2.265021563E0,-1.465269804E0,7.490514517E-1
2.306722252E1,2.221651554E0,-1.295454383E0,7.266027927E-1
2.307637486E1,2.214932203E0,-1.095249176E0,7.466080785E-1
2.308552721E1,2.242573023E0,-9.017632604E-1,7.881456614E-1
2.309467950E1,2.274947882E0,-7.424848676E-1,8.127322793E-1
2.310383179E1,2.285179615E0,-6.339067221E-1,8.083036542E-1
2.311298414E1,2.265479803E0,-5.599942207E-1,7.782194018E-1
2.312213648E1,2.219513416E0,-4.987567961E-1,7.369872332E-1
2.313128877E1,2.158123255E0,-4.291202128E-1,6.998782754E-1
2.314044111E1,2.084668875E0,-3.486410677E-1,6.784985662E-1
2.314959341E1,2.014421463E0,-2.848075330E-1,6.804838181E-1
2.315874575E1,1.961430550E0,-2.895416021E-1,7.020162344E-1
2.316789804E1,1.925543308E0,-3.643703759E-1,7.269082665E-1
2.317705038E1,1.912868142E0,-4.619532526E-1,7.372926474E-1
2.318620268E1,1.919892907E0,-5.654918551E-1,7.348492742E-1
2.319535502E1,1.913173556E0,-6.403206587E-1,7.244648337E-1
2.320450731E1,1.879729748E0,-6.807892919E-1,7.041541934E-1
2.321365966E1,1.841399074E0,-7.105680704E-1,6.592568755E-1
2.322281195E1,1.783521295E0,-7.513421178E-1,5.905365944E-1
2.323196429E1,1.704263806E0,-8.102889061E-1,5.057815313E-1
2.324111658E1,1.618897915E0,-8.817580342E-1,4.124746025E-1
2.325026893E1,1.531241417E0,-9.648332596E-1,3.232909143E-1
2.325942122E1,1.440988660E0,-1.027445078E0,2.391466945E-1
2.326857356E1,1.340351582E0,-1.045923233E0,1.638597846E-1
2.327772585E1,1.237576604E0,-1.034927964E0,1.003316641E-1
2.328687820E1,1.130983710E0,-1.006370902E0,4.459185153E-2
2.329603049E1,1.026376128E0,-9.416210651E-1,-8.093725890E-3
2.330518283E1,9.252808690E-1,-8.371661901E-1,-5.971032009E-2
2.331433513E1,8.159392476E-1,-7.188144922E-1,-1.075091213E-1
2.332348747E1,6.940752268E-1,-5.896202922E-1,-1.475196183E-1
2.333263976E1,5.693096519E-1,-4.694361091E-1,-1.760767251E-1
2.334179210E1,4.366030693E-1,-3.775036037E-1,-1.965401024E-1
2.335094440E1,3.008422852E-1,-2.921377122E-1,-2.043284029E-1
2.336009674E1,1.824906170E-1,-2.104368806E-1,-1.991362125E-1
2.336924903E1,8.506047726E-2,-1.508792788E-1,-1.875301152E-1
2.337840138E1,1.130067464E-2,-1.111742035E-1,-1.722589284E-1
2.338755367E1,-3.542914242E-2,-6.108472496E-2,-1.580567211E-1
2.339670601E1,-6.429167092E-2,-5.650337320E-3,-1.374406368E-1
2.340585830E1,-1.056765765E-1,5.100574717E-2,-1.175880954E-1
2.341501065E1,-1.762294322E-1,1.551551968E-1,-1.041494608E-1
2.342416294E1,-2.861819267E-1,3.213056624E-1,-9.223793447E-2
2.343331528E1,-4.233171642E-1,4.862344265E-1,-7.437065244E-2
2.344246757E1,-5.648810267E-1,5.777087808E-1,-4.917320609E-2
2.345161992E1,-6.975875497E-1,5.879405141E-1,-1.603474095E-2
2.346077221E1,-8.237275481E-1,5.474718809E-1,1.252236869E-2
2.346992455E1,-9.678874612E-1,4.677563012E-1,2.855710872E-2
2.347907690E1,-1.135717750E0,3.481829464E-1,3.008422814E-2
2.348822919E1,-1.328898191E0,1.748550236E-1,1.404948719E-2
2.349738148E1,-1.525896430E0,-3.710897267E-2,-2.626643144E-2
2.350653382E1,-1.585606813E0,-1.742441803E-1,-7.910472155E-2
2.351567341E1,-1.220625520E0,-1.406475753E-1,-1.461452097E-1
2.352483846E1,-4.034646153E-1,1.020114943E-1,-1.899735034E-1
2.353399080E1,3.607053161E-1,1.070509851E-1,-1.748550236E-1
2.354313033E1,5.624375939E-1,-3.086305857E-1,-1.889045089E-1
2.355229544E1,4.799732268E-1,-1.143047929E0,-2.701472044E-1
2.356144773E1,4.480564594E-1,-1.253000498E0,-4.853181541E-1
2.357058731E1,3.811686933E-1,2.367033064E-1,-7.634063363E-1
2.357975236E1,-4.902049154E-2,4.804313779E-1,-9.822424054E-1
2.358890471E1,-7.655443549E-1,-6.293253899E-1,-9.309312105E-1
2.359804424E1,-9.596410394E-1,-8.979454637E-1,-5.230379701E-1
2.360720934E1,-8.449544907E-1,3.691044450E-1,3.268032894E-2
2.361636164E1,-1.096165419E0,1.971967697E0,4.094203711E-1
2.362550122E1,-1.608513594E0,3.105700254E0,5.442649126E-1
2.363466627E1,-1.771762490E0,3.145557880E0,4.497362971E-1
2.364381861E1,-1.490925431E0,2.112767935E0,1.867665499E-1
2.365295820E1,-1.290109396E0,1.136328578E0,-9.804098308E-2
2.366212325E1,-1.327523828E0,6.206207871E-1,-3.617742956E-1
2.367127554E1,-1.399451017E0,2.767138183E-1,-5.854970813E-1
2.368041513E1,-1.423579574E0,7.543963939E-2,-7.076665759E-1
2.368958018E1,-1.331799746E0,-1.531699449E-1,-6.659762263E-1
2.369873252E1,-1.229941010E0,-2.522799075E-1,-4.831801951E-1
2.370787210E1,-1.286597013E0,-1.574458778E-1,-2.412846684E-1
2.371703716E1,-1.418845415E0,-8.215895295E-2,-4.749337584E-2
2.372618950E1,-1.513221383E0,-5.131116882E-2,5.268557742E-2
2.373532903E1,-1.581178188E0,3.130592033E-2,7.162184268E-2
2.374449414E1,-1.601030707E0,1.426328421E-1,3.542914242E-2
2.375364643E1,-1.577665806E0,1.742441803E-1,-3.283303976E-2
2.376279877E1,-1.546207070E0,1.258345395E-1,-1.119377613E-1
2.377195106E1,-1.521162391E0,5.146388337E-2,-1.887518018E-1
2.378110341E1,-1.498102903E0,-1.267508045E-2,-2.501419485E-1
2.379025570E1,-1.473210931E0,-8.383878320E-2,-2.994678617E-1
2.379940804E1,-1.456107140E0,-1.159082651E-1,-3.272614181E-1
2.380856033E1,-1.438850760E0,-4.840964451E-2,-3.297048211E-1
2.381771268E1,-1.417318344E0,8.964183182E-2,-3.100049794E-1
2.382686497E1,-1.389677525E0,2.194468826E-1,-2.782409191E-1
2.383601731E1,-1.362952948E0,3.810159862E-1,-2.432699203E-1
2.384516960E1,-1.344169378E0,5.474718809E-1,-2.231119573E-1
2.385432195E1,-1.351499557E0,7.476770282E-1,-2.209739983E-1
2.386347424E1,-1.390593767E0,1.006065488E0,-2.422009408E-1
2.387262658E1,-1.421288848E0,1.222152710E0,-2.950392365E-1
2.388177893E1,-1.433963895E0,1.358066201E0,-3.629959822E-1
2.389093122E1,-1.426175594E0,1.419303656E0,-4.228590131E-1
2.390008356E1,-1.420983434E0,1.478861213E0,-4.576773047E-1
2.390923585E1,-1.443737507E0,1.548039675E0,-4.555393457E-1
2.391838820E1,-1.464048147E0,1.589119196E0,-4.304946065E-1
2.392754049E1,-1.440988660E0,1.550788522E0,-3.889569938E-1
2.393669283E1,-1.363105655E0,1.422663212E0,-3.407000601E-1
2.394584512E1,-1.272089362E0,1.197718740E0,-2.585411072E-1
2.395499747E1,-1.202605486E0,1.056460381E0,-2.031067163E-1
2.396414976E1,-1.085780978E0,1.158624530E0,-1.925695986E-1
2.397330210E1,-1.023321867E0,9.976662993E-1,-2.084516287E-1
2.398245440E1,-1.005912781E0,8.483141065E-1,-2.331909388E-1
2.399160674E1,-9.865183234E-1,7.565343380E-1,-2.544178963E-1
2.400075903E1,-9.442171454E-1,7.143858671E-1,-2.651077211E-1
2.400991138E1,-8.884773254E-1,6.922426820E-1,-2.664821148E-1
2.401906367E1,-8.426637650E-1,6.710157394E-1,-2.710634768E-1
2.402821601E1,-8.130376935E-1,6.801784039E-1,-2.848075330E-1
2.403736835E1,-8.338065147E-1,7.409577370E-1,-3.064926267E-1
2.404652065E1,-8.689302206E-1,8.119687438E-1,-3.184041381E-1
2.405567299E1,-8.909206986E-1,8.559496999E-1,-3.148917556E-1
2.406482528E1,-9.019159675E-1,7.715001106E-1,-3.002314270E-1
2.407397762E1,-9.071081877E-1,6.395570636E-1,-2.837385535E-1
2.408312992E1,-9.011524320E-1,5.192201734E-1,-2.713688910E-1
2.409228226E1,-8.845068216E-1,3.770454824E-1,-2.712161839E-1
2.410143455E1,-8.588512540E-1,2.649549842E-1,-2.812951505E-1
2.411058690E1,-8.270871639E-1,1.678302884E-1,-2.944283783E-1
2.411973919E1,-8.043331504E-1,4.489727318E-2,-3.051182032E-1
2.412889153E1,-7.957812548E-1,-7.620319724E-2,-3.104631305E-1
2.413804382E1,-7.956285477E-1,-1.653869003E-1,-3.127537966E-1
2.414719617E1,-8.035695553E-1,-1.737860441E-1,-3.104631305E-1
2.415634851E1,-7.941014171E-1,-1.267508119E-1,-3.061871827E-1
2.416550080E1,-7.660024762E-1,-1.062874198E-1,-2.987042964E-1
2.417465315E1,-7.414158583E-1,-1.724116355E-1,-2.935121059E-1
2.418380544E1,-7.180509567E-1,-3.055763543E-1,-2.958027720E-1
2.419295778E1,-6.972821355E-1,-4.152234197E-1,-3.058817685E-1
2.420211007E1,-6.708629727E-1,-4.743228853E-1,-3.191677034E-1
2.421126242E1,-6.239804626E-1,-4.790569544E-1,-3.254288733E-1
2.422041471E1,-5.670189857E-1,-4.482091665E-1,-3.153499067E-1
2.422956705E1,-5.102101564E-1,-3.979669809E-1,-2.912214398E-1
2.423871934E1,-4.523324072E-1,-3.364241421E-1,-2.657185495E-1
2.424787169E1,-3.901786804E-1,-2.567085624E-1,-2.434226274E-1
2.425702398E1,-3.342861533E-1,-1.685938388E-1,-2.180724740E-1
2.426617632E1,-2.932066917E-1,-9.422318637E-2,-1.866138428E-1
2.427532861E1,-2.681619525E-1,-2.290677279E-2,-1.473668963E-1
2.428448096E1,-2.594573796E-1,8.750387281E-2,-1.107160673E-1
2.429363330E1,-2.396048307E-1,2.134911120E-1,-8.567132801E-2
2.430278559E1,-2.250972092E-1,3.017585576E-1,-6.795676053E-2
2.431193794E1,-2.148655206E-1,3.240544796E-1,-5.451811850E-2
2.432109023E1,-2.011214644E-1,3.029802442E-1,-4.642439261E-2
2.433024257E1,-1.910424829E-1,2.638860047E-1,-4.321744293E-2
2.433939486E1,-1.863084137E-1,2.192941606E-1,-4.321744293E-2
2.434854721E1,-1.766875684E-1,1.800472289E-1,-4.550812021E-2
2.435769950E1,-1.516428292E-1,1.307213157E-1,-3.985778242E-2
2.436685184E1,-1.140757278E-1,5.497625470E-2,-2.122694254E-2
2.437600419E1,-8.200624585E-2,-3.283303976E-2,9.009997360E-3
2.438515648E1,-9.605573118E-2,-1.273616552E-1,3.344388679E-2
2.439430882E1,-1.537808031E-1,-2.202104330E-1,4.703523964E-2
2.440346111E1,-2.278460264E-1,-2.764083743E-1,4.718795046E-2
2.441261346E1,-2.929012477E-1,-3.035911024E-1,4.367557913E-2
2.442176575E1,-3.353551328E-1,-3.180987239E-1,3.176405653E-2
2.443091809E1,-3.500154912E-1,-3.196258247E-1,5.497625098E-3
2.444007039E1,-3.443651497E-1,-3.075616062E-1,-2.870982140E-2
2.444922273E1,-3.326063454E-1,-2.933593988E-1,-6.948387623E-2
2.445837502E1,-3.332171738E-1,-2.765611112E-1,-1.116323397E-1
2.446752736E1,-3.468085229E-1,-2.568612695E-1,-1.490467340E-1
2.447667966E1,-3.759764731E-1,-2.232646793E-1,-1.779092699E-1
2.448583200E1,-4.193466306E-1,-1.835595965E-1,-1.936385781E-1
2.449498434E1,-4.666872919E-1,-1.372879148E-1,-1.976090819E-1
2.450413664E1,-4.923428893E-1,-8.612946421E-2,-1.892099380E-1
2.451328898E1,-4.816530645E-1,-4.932591692E-2,-1.800472289E-1
2.452244127E1,-4.422534108E-1,-4.443913698E-2,-1.705790907E-1
2.453159361E1,-4.002576768E-1,-6.902574003E-2,-1.714953631E-1
2.454074591E1,-3.636068404E-1,-9.849911928E-2,-1.701209545E-1
2.454989825E1,-3.179459870E-1,-9.773556143E-2,-1.653869003E-1
2.455905054E1,-2.664821148E-1,-6.215370819E-2,-1.583621502E-1
2.456820288E1,-2.263189107E-1,-1.313321572E-2,-1.507265568E-1
2.457735518E1,-2.105895877E-1,2.535016090E-2,-1.421747059E-1
2.458650752E1,-2.102841735E-1,5.314370990E-2,-1.336228400E-1
2.459565986E1,-2.092151791E-1,6.474980712E-2,-1.220167428E-1
2.460481216E1,-2.031067163E-1,6.230641901E-2,-1.110214889E-1
2.461396450E1,-1.808107942E-1,4.795150831E-2,-1.017060652E-1
2.462311679E1,-1.423274130E-1,8.246437646E-3,-9.040539712E-2
2.463226914E1,-9.498675168E-2,-5.314370990E-2,-8.139539510E-2
2.464142143E1,-4.214845970E-2,-1.059819981E-1,-6.642963737E-2
2.465057377E1,2.901524538E-3,-1.252236813E-1,-4.718795046E-2
2.465972606E1,3.176405653E-2,-1.201841980E-1,-2.611372061E-2
2.466887841E1,4.077405483E-2,-9.422318637E-2,-1.023169141E-2
2.467803075E1,3.359659761E-2,-5.741964281E-2,-2.443389036E-3
2.468718304E1,1.053711493E-2,-2.550287358E-2,-1.985253533E-3
2.469633538E1,-2.367033064E-2,5.192201585E-3,-1.267508045E-2
2.470548768E1,-6.765133142E-2,4.062134400E-2,-2.764083818E-2
2.471464002E1,-1.105633527E-1,8.017370105E-2,-4.566083103E-2
2.472379236E1,-1.427855492E-1,1.227803007E-1,-6.612421572E-2
2.473294466E1,-1.664558798E-1,1.661504507E-1,-8.704573661E-2
2.474209700E1,-1.852394342E-1,2.075353563E-1,-1.067455560E-1
2.475124929E1,-1.977618039E-1,2.345653474E-1,-1.195733473E-1
2.476040164E1,-2.060082406E-1,2.496838123E-1,-1.246128380E-1
2.476955393E1,-2.072299272E-1,2.586938143E-1,-1.240019947E-1
2.477870627E1,-2.079934925E-1,2.689255178E-1,-1.209477559E-1
2.478785856E1,-2.093679011E-1,2.774773538E-1,-1.160609797E-1
2.479701091E1,-2.130329758E-1,2.719797492E-1,-1.099525094E-1
2.480616320E1,-2.053973973E-1,2.545706034E-1,-1.056765765E-1
2.481531554E1,-1.879882365E-1,2.275405973E-1,-1.006370857E-1
2.482446788E1,-1.643179059E-1,1.968455315E-1,-9.376505762E-2
2.483362018E1,-1.382041872E-1,1.673721522E-1,-8.185353130E-2
2.484277252E1,-1.029277667E-1,1.397313178E-1,-6.398624927E-2
2.485192481E1,-6.810946763E-2,1.120904684E-1,-4.840964451E-2
2.486107716E1,-4.581354558E-2,9.239064902E-2,-3.909422457E-2
2.487022945E1,-3.665083647E-2,8.460234851E-2,-3.466558084E-2
2.487938179E1,-3.161134571E-2,7.971556485E-2,-3.100049868E-2
2.488853414E1,-2.611372061E-2,7.498150319E-2,-2.977880463E-2
2.489768643E1,-1.863084175E-2,6.948387623E-2,-2.901524492E-2
2.490683877E1,-1.542389300E-2,6.291726977E-2,-3.023693897E-2
2.491599106E1,-1.786728203E-2,5.207473040E-2,-3.390202299E-2
2.492514341E1,-2.443389036E-2,3.695625812E-2,-3.939964995E-2
2.493429570E1,-3.222219273E-2,2.244863659E-2,-4.627167806E-2
2.494344804E1,-4.016320780E-2,6.719320081E-3,-4.993676394E-2
2.495260038E1,-4.611896724E-2,-1.130067464E-2,-5.299099907E-2
2.496175268E1,-5.039490014E-2,-2.519745007E-2,-5.299099907E-2
2.497090502E1,-5.467082933E-2,-3.359659761E-2,-4.688252881E-2
2.498005731E1,-5.772506446E-2,-4.077405483E-2,-4.031591862E-2
2.498920966E1,-5.955760926E-2,-4.443913698E-2,-3.726168349E-2
2.499836195E1,-6.200099736E-2,-4.504998401E-2,-3.726168349E-2
2.500751429E1,-6.444438547E-2,-4.031591862E-2,-4.337015375E-2
2.501666664E1,-6.627693027E-2,-3.970507160E-2,-5.131116882E-2
2.502581893E1,-6.261184067E-2,-3.542914242E-2,-5.803048983E-2
2.503497127E1,-5.589252338E-2,-2.764083818E-2,-6.291726977E-2
2.504412356E1,-5.283828825E-2,-2.107422985E-2,-6.765133142E-2
2.505327591E1,-4.734066129E-2,-5.955760833E-3,-6.704048812E-2
2.506242825E1,-4.443913698E-2,1.450762246E-2,-6.520794332E-2
2.507158054E1,-4.642439261E-2,2.779355086E-2,-6.276455522E-2
2.508073289E1,-4.902049154E-2,3.084778599E-2,-6.032116711E-2
2.508988518E1,-5.131116882E-2,2.412846684E-2,-5.680879578E-2
2.509903752E1,-5.115845799E-2,1.832541777E-3,-5.192201585E-2
2.510818981E1,-4.535540938E-2,-2.397575416E-2,-5.054761097E-2
2.511734216E1,-3.542914242E-2,-4.031591862E-2,-4.810422286E-2
2.512649450E1,-2.305948362E-2,-4.566083103E-2,-4.428642616E-2
2.513564679E1,-8.857285604E-3,-4.978405312E-2,-4.230117425E-2
2.514479914E1,3.512371797E-3,-5.696150661E-2,-3.924693540E-2
2.515395143E1,5.497625098E-3,-7.024743408E-2,-3.619270027E-2
2.516310377E1,2.443389036E-3,-7.925742865E-2,-3.008422814E-2
2.517225606E1,-6.108472589E-4,-7.803573459E-2,-2.397575416E-2
2.518140841E1,-6.413896102E-3,-6.352811307E-2,-2.031067200E-2
2.519056075E1,-8.399149403E-3,-4.978405312E-2,-2.031067200E-2
2.519971304E1,-1.389677543E-2,-4.978405312E-2,-2.351761982E-2
2.520886539E1,-1.740914769E-2,-6.429167092E-2,-2.901524492E-2
2.521801768E1,-1.786728203E-2,-8.414421231E-2,-3.512371704E-2
2.522717002E1,-9.009997360E-3,-1.039967462E-1,-4.046862945E-2
2.523632236E1,-3.054236295E-4,-1.154501289E-1,-4.413371533E-2
2.524547466E1,4.734066315E-3,-1.238492802E-1,-4.703523964E-2
2.525462700E1,-2.596100792E-3,-1.336228400E-1,-4.840964451E-2
2.526377929E1,-1.359135192E-2,-1.371352077E-1,-4.657710344E-2
2.527293164E1,-2.290677279E-2,-1.281252056E-1,-4.428642616E-2
2.528208393E1,-2.550287358E-2,-1.185043678E-1,-3.878879920E-2
2.529123627E1,-1.832541823E-2,-1.064401343E-1,-3.512371704E-2
2.530038861E1,-5.344913341E-3,-9.972081333E-2,-3.069507517E-2
2.530954091E1,7.482878864E-3,-9.483403713E-2,-2.748812735E-2
2.531869325E1,1.557660475E-2,-9.605573118E-2,-2.626643144E-2
2.532784554E1,1.985253580E-2,-1.027750522E-1,-2.443389036E-2
2.533699789E1,2.061609551E-2,-1.111742035E-1,-2.260134928E-2
2.534615023E1,2.122694254E-2,-1.152974218E-1,-2.137965336E-2
2.535530252E1,2.122694254E-2,-1.117850468E-1,-1.771457121E-2
2.536445486E1,1.847812906E-2,-8.887827396E-2,-1.466033421E-2
2.537360716E1,1.634016447E-2,-5.925218388E-2,-1.160609815E-2
2.538275950E1,1.863084175E-2,-3.573456407E-2,-5.497625098E-3
2.539191184E1,2.275406010E-2,-1.939439960E-2,1.221694518E-3
2.540106414E1,2.260134928E-2,-1.282779220E-2,4.886778072E-3
2.541021648E1,2.076880634E-2,-1.282779220E-2,4.886778072E-3
2.541936877E1,2.321219631E-2,-1.404948719E-2,4.886778072E-3
2.542852111E1,2.702999115E-2,-1.466033421E-2,5.497625098E-3
2.543767341E1,3.008422814E-2,-1.939439960E-2,8.551862091E-3
2.544682575E1,2.886253223E-2,-2.840439789E-2,1.099525020E-2
2.545597809E1,2.596100792E-2,-3.985778242E-2,1.343864016E-2
2.546513039E1,2.550287358E-2,-5.864133686E-2,1.221694518E-2
2.547428273E1,2.641914412E-2,-8.093725890E-2,1.099525020E-2
2.548343502E1,3.268032894E-2,-9.712471068E-2,9.926267900E-3
2.549258736E1,4.001049697E-2,-9.773556143E-2,9.315420873E-3
2.550173971E1,4.367557913E-2,-8.154810965E-2,8.093725890E-3
2.551089200E1,3.542914242E-2,-5.497625470E-2,8.704573847E-3
2.552004434E1,2.397575416E-2,-2.367033064E-2,7.941014133E-3
2.552919664E1,1.084253844E-2,8.857285604E-3,8.399149403E-3
2.553834898E1,1.527118147E-4,3.176405653E-2,4.734066315E-3
2.554750132E1,-3.665083554E-3,3.894151375E-2,5.803049076E-3
2.555665361E1,6.108472589E-4,4.016320780E-2,6.566607859E-3
2.556580596E1,1.053711493E-2,3.665083647E-2,1.145338640E-2
2.557495825E1,2.351761982E-2,3.176405653E-2,1.588202827E-2
2.558411059E1,3.527642787E-2,2.458660305E-2,1.893626526E-2
2.559326288E1,4.642439261E-2,1.740914769E-2,2.153236605E-2
2.560241523E1,5.497625470E-2,1.740914769E-2,2.153236605E-2
2.561156757E1,5.925218388E-2,2.351761982E-2,2.031067200E-2
2.562071986E1,6.093201414E-2,3.558185324E-2,2.336490713E-2
2.562987221E1,5.833591148E-2,4.993676394E-2,2.519745007E-2
2.563902455E1,5.146388337E-2,7.101099193E-2,2.641914412E-2
2.564817684E1,3.955236077E-2,8.918370306E-2,2.626643144E-2
2.565732919E1,2.779355086E-2,9.758284688E-2,2.550287358E-2
2.566648148E1,1.420219894E-2,9.758284688E-2,2.122694254E-2
2.567563382E1,1.374406274E-3,9.208522737E-2,1.801999472E-2
2.568478611E1,-7.788302377E-3,8.536590636E-2,1.557660475E-2
2.569393846E1,-5.955760833E-3,7.574506104E-2,1.435491070E-2
2.570309080E1,3.054236295E-4,7.101099193E-2,1.374406368E-2
2.571224309E1,7.788302377E-3,6.490252167E-2,1.084253844E-2
2.572139544E1,1.267508045E-2,6.245913357E-2,6.566607859E-3
2.573054773E1,1.160609815E-2,5.833591148E-2,4.734066315E-3
2.573970007E1,6.566607859E-3,5.833591148E-2,4.123218823E-3
2.574885242E1,4.123218823E-3,6.368082762E-2,4.734066315E-3
2.575800471E1,4.734066315E-3,6.734590977E-2,9.620844387E-3
2.576715705E1,7.024743594E-3,7.284353673E-2,1.389677543E-2
2.577630934E1,3.359660041E-3,7.635590434E-2,1.572931744E-2
2.578546169E1,-2.137965523E-3,7.635590434E-2,1.618745178E-2
2.579461398E1,-8.399149403E-3,7.391251624E-2,1.557660475E-2
2.580376632E1,-1.267508045E-2,7.513421029E-2,1.191152167E-2
2.581291867E1,-1.007897966E-2,7.024743408E-2,1.191152167E-2
2.582207096E1,-7.024743594E-3,6.490252167E-2,1.191152167E-2
2.583122330E1,-3.359660041E-3,6.673506647E-2,1.313321572E-2
2.584037565E1,-9.162708884E-4,7.040014863E-2,1.374406368E-2
2.584952794E1,-9.162708884E-4,7.223268598E-2,1.435491070E-2
2.585868028E1,1.527118147E-3,6.795676053E-2,1.374406368E-2
2.586783257E1,4.734066315E-3,5.894676223E-2,1.389677543E-2
2.587698492E1,7.177455351E-3,5.344913527E-2,1.450762246E-2
