"Time (s)","Gyroscope x (rad/s)","Gyroscope y (rad/s)","Gyroscope z (rad/s)"
1.023525507E1,1.618745178E-2,3.405473381E-2,3.054236295E-3
1.024440752E1,1.313321572E-2,3.527642787E-2,3.054236295E-3
1.025356002E1,1.924168877E-2,4.306473210E-2,4.886778072E-3
1.026271252E1,2.901524492E-2,5.207473040E-2,7.330167107E-3
1.027186496E1,3.695625812E-2,6.352811307E-2,8.704573847E-3
1.028101746E1,4.291202128E-2,7.681404054E-2,6.261184346E-3
1.029016996E1,4.291202128E-2,8.643488586E-2,5.039489828E-3
1.029932246E1,4.092676565E-2,9.559759498E-2,2.596100792E-3
1.030847491E1,4.642439261E-2,1.021642014E-1,1.374406274E-3
1.031762741E1,5.680879578E-2,1.111742035E-1,1.374406274E-3
1.032677991E1,6.734590977E-2,1.113269106E-1,4.581354558E-3
1.033593241E1,7.360709459E-2,1.039967462E-1,7.024743594E-3
1.034508486E1,7.620319724E-2,8.887827396E-2,7.024743594E-3
1.035423736E1,7.574506104E-2,7.269082218E-2,7.024743594E-3
1.036338986E1,7.391251624E-2,6.001574174E-2,1.130067464E-2
1.037254231E1,7.406523079E-2,5.100574717E-2,1.374406368E-2
1.038169481E1,7.834116369E-2,4.627167806E-2,1.695101149E-2
1.039084731E1,7.956285775E-2,4.504998401E-2,1.695101149E-2
1.039999981E1,7.711946964E-2,4.566083103E-2,1.572931744E-2
1.040915231E1,7.345438004E-2,4.566083103E-2,1.068982668E-2
1.041830476E1,6.780404598E-2,4.734066129E-2,8.857285604E-3
1.042745726E1,6.536065787E-2,5.161659420E-2,5.803049076E-3
1.043660976E1,6.474980712E-2,5.650337040E-2,4.581354558E-3
1.044576220E1,6.597150117E-2,5.467082933E-2,3.970507067E-3
1.045491470E1,7.162184268E-2,5.039490014E-2,3.359660041E-3
1.046406720E1,7.650861889E-2,4.504998401E-2,3.512371797E-3
1.047321970E1,8.460234851E-2,4.321744293E-2,4.734066315E-3
1.048237215E1,8.826743066E-2,4.443913698E-2,2.901524538E-3
1.049152465E1,9.009996802E-2,5.451811850E-2,2.290677279E-3
1.050067715E1,8.735115826E-2,7.513421029E-2,2.290677279E-3
1.050982965E1,7.925742865E-2,8.597674966E-2,-3.970507067E-3
1.051898210E1,7.253811508E-2,8.108997345E-2,-1.618745178E-2
1.052813460E1,6.719319522E-2,7.910472155E-2,-2.657185495E-2
1.053728710E1,6.780404598E-2,7.910472155E-2,-3.878879920E-2
1.054643955E1,7.620319724E-2,4.840964451E-2,-4.718795046E-2
1.055559205E1,7.986827940E-2,3.390202299E-2,-4.230117425E-2
1.056474455E1,6.810946763E-2,4.245388508E-2,-3.145863488E-2
1.057389705E1,5.207473040E-2,3.451287001E-2,-2.611372061E-2
1.058304955E1,4.001049697E-2,1.038440317E-2,-2.183778957E-2
1.059220200E1,3.817795217E-2,-2.748812549E-3,-1.389677543E-2
1.060135450E1,4.428642616E-2,8.093725890E-3,-4.581354442E-4
1.061050700E1,5.207473040E-2,2.870982140E-2,1.130067464E-2
1.061965944E1,5.680879578E-2,4.672981426E-2,2.107422985E-2
1.062881194E1,5.772506446E-2,7.207997888E-2,1.863084175E-2
1.063796444E1,5.008947477E-2,1.070509851E-1,9.315420873E-3
1.064711694E1,4.184303805E-2,1.400367320E-1,-5.344913341E-3
1.065626939E1,3.741439432E-2,1.647760421E-1,-1.893626526E-2
1.066542189E1,4.337015375E-2,1.797417998E-1,-2.748812735E-2
1.067457439E1,5.390727147E-2,1.840177327E-1,-3.527642787E-2
1.068372689E1,6.505523622E-2,1.791309565E-1,-3.588727489E-2
1.069287934E1,7.375980914E-2,1.695101112E-1,-3.268032894E-2
1.070203184E1,7.635590434E-2,1.539335102E-1,-2.596100792E-2
1.071118434E1,7.330167294E-2,1.369825006E-1,-2.229592577E-2
1.072033684E1,7.284353673E-2,1.183516532E-1,-1.496575773E-2
1.072948929E1,7.360709459E-2,1.058292910E-1,-8.857285604E-3
1.073864179E1,7.971556485E-2,1.039967462E-1,-4.428642802E-3
1.074779429E1,8.338065445E-2,1.154501289E-1,-6.872031838E-3
1.075694679E1,8.521319181E-2,1.238492802E-1,-9.926267900E-3
1.076609924E1,9.147437662E-2,1.154501289E-1,-9.926267900E-3
1.077525174E1,9.972081333E-2,8.948912472E-2,-1.053711493E-2
1.078440424E1,1.140757278E-1,6.062658876E-2,-1.099525020E-2
1.079355674E1,1.371352077E-1,3.771981969E-2,-9.620844387E-3
1.080270918E1,1.655396074E-1,2.336490713E-2,-5.803049076E-3
1.081186168E1,2.018850148E-1,1.985253580E-2,-1.832541777E-3
1.082101418E1,2.426590770E-1,2.229592577E-2,3.054236295E-4
1.083016668E1,2.857238054E-1,2.596100792E-2,1.832541777E-3
1.083931913E1,3.356605768E-1,2.000524849E-2,5.192201585E-3
1.084847163E1,3.880407214E-1,7.482878864E-3,1.481304597E-2
1.085762413E1,4.356867969E-1,-1.985253533E-3,3.466558084E-2
1.086677663E1,4.798205197E-1,6.108472589E-4,6.368082762E-2
1.087592913E1,5.245651007E-1,1.298050396E-2,1.012479365E-1
1.088508158E1,5.716003180E-1,3.130592033E-2,1.424801201E-1
1.089423408E1,6.212316751E-1,5.803048983E-2,1.818797737E-1
1.090338658E1,6.638382673E-1,8.597674966E-2,2.206685692E-1
1.091253908E1,6.963658929E-1,1.090362370E-1,2.556395829E-1
1.092169153E1,7.244648337E-1,1.157555580E-1,2.875563502E-1
1.093084403E1,7.502731681E-1,1.134648770E-1,3.127537966E-1
1.093999653E1,7.774558663E-1,9.788827598E-2,3.271087110E-1
1.094914903E1,8.086090684E-1,6.612421572E-2,3.345915973E-1
1.095830148E1,8.501466513E-1,2.275406010E-2,3.403946459E-1
1.096745398E1,9.037485123E-1,-3.665083647E-2,3.524588645E-1
1.097660648E1,9.654440880E-1,-1.215586066E-1,3.683409095E-1
1.098575898E1,1.038898468E0,-2.249445021E-1,3.907895386E-1
1.099491142E1,1.128082156E0,-3.452814221E-1,4.172086716E-1
1.100406392E1,1.221541762E0,-4.674508572E-1,4.430169761E-1
1.101321642E1,1.312863469E0,-5.690042377E-1,4.614951015E-1
1.102236892E1,1.399298310E0,-6.597150564E-1,4.920374751E-1
1.103152137E1,1.496117592E0,-7.534800768E-1,5.337277651E-1
1.104067387E1,1.617218137E0,-8.765658140E-1,5.725166202E-1
1.104982637E1,1.767639279E0,-1.030652046E0,5.945070982E-1
1.105897887E1,1.905385256E0,-1.196649790E0,5.917583108E-1
1.106813132E1,2.001593828E0,-1.340046167E0,5.829010010E-1
1.107728382E1,2.069092274E0,-1.439308882E0,5.796940327E-1
1.108643632E1,2.134147644E0,-1.495812178E0,5.913001299E-1
1.109558882E1,2.212183237E0,-1.476265073E0,6.039752364E-1
1.110472856E1,2.280750990E0,-1.346154690E0,5.975613594E-1
1.111389377E1,2.307475567E0,-1.144269586E0,5.708367825E-1
1.112304627E1,2.286401272E0,-9.106205702E-1,5.296045542E-1
1.113219877E1,2.235853672E0,-6.734591126E-1,4.833329022E-1
1.114135121E1,2.179197550E0,-4.530959427E-1,4.326325655E-1
1.115050371E1,2.113837004E0,-2.786990702E-1,3.862081766E-1
1.115965621E1,2.048781633E0,-1.614163816E-1,3.576510847E-1
1.116880871E1,2.003120899E0,-8.674030751E-2,3.571929336E-1
1.117796116E1,1.964026690E0,-6.566607859E-3,3.764346242E-1
1.118711366E1,1.912410021E0,1.014006436E-1,4.309527278E-1
1.119626616E1,1.856517553E0,1.739387512E-1,5.172349215E-1
1.120541866E1,1.814827204E0,1.795890927E-1,6.030589342E-1
1.121455840E1,1.792378545E0,1.676775664E-1,6.658235192E-1
1.122372361E1,1.771609783E0,1.569877416E-1,6.894938350E-1
1.123287611E1,1.743205309E0,9.483403713E-2,6.704048514E-1
1.124202861E1,1.723810911E0,-5.909947306E-2,6.227588058E-1
1.125118111E1,1.732210159E0,-2.881672084E-1,5.667135715E-1
1.126033356E1,1.750993609E0,-5.005893111E-1,5.218162537E-1
1.126948606E1,1.750077367E0,-6.682668924E-1,5.036435723E-1
1.127863856E1,1.723963618E0,-7.779139876E-1,4.735593498E-1
1.128779106E1,1.688381791E0,-8.463288546E-1,4.337015450E-1
1.129694351E1,1.654327035E0,-8.861866593E-1,3.999522328E-1
1.130609601E1,1.616301894E0,-9.026795626E-1,3.752129376E-1
1.131524851E1,1.571251869E0,-8.817580342E-1,3.596363366E-1
1.132440101E1,1.529714227E0,-8.577822447E-1,3.544441164E-1
1.133355351E1,1.489092946E0,-8.559496999E-1,3.516952991E-1
1.134270595E1,1.456259847E0,-8.338065147E-1,3.410054743E-1
1.135185845E1,1.417623758E0,-7.844805717E-1,3.254288733E-1
1.136101095E1,1.360509515E0,-7.172874212E-1,3.055763543E-1
1.137016345E1,1.284611821E0,-6.372663975E-1,2.872509360E-1
1.137931590E1,1.199398637E0,-5.416688323E-1,2.652604282E-1
1.138846840E1,1.111742020E0,-4.309527278E-1,2.370087355E-1
1.139762090E1,1.025001645E0,-3.064926267E-1,2.070772201E-1
1.140677340E1,9.536852837E-1,-1.818797737E-1,1.820324808E-1
1.141592590E1,8.970292211E-1,-1.073564067E-1,1.760767251E-1
1.142507835E1,8.376243114E-1,-8.506047726E-2,1.841704547E-1
1.143423085E1,7.734853625E-1,-9.177979827E-2,1.959292591E-1
1.144338335E1,7.078192830E-1,-1.117850468E-1,1.985253543E-1
1.145253585E1,6.468872428E-1,-1.348445266E-1,1.925695986E-1
1.146168835E1,6.042806506E-1,-1.837123185E-1,1.892099380E-1
1.147084080E1,5.697677732E-1,-2.585411072E-1,1.860029846E-1
1.147999330E1,5.309789777E-1,-3.313846290E-1,1.791309565E-1
1.148914580E1,4.869979918E-1,-3.713951409E-1,1.745496094E-1
1.149829830E1,4.341596961E-1,-3.889569938E-1,1.667613089E-1
1.150745075E1,3.781144619E-1,-3.878880143E-1,1.517955512E-1
1.151660325E1,3.332171738E-1,-3.886515796E-1,1.417165697E-1
1.152575575E1,2.983988822E-1,-4.332434237E-1,1.401894391E-1
1.153490825E1,2.589992285E-1,-5.025745630E-1,1.437018216E-1
1.154406069E1,2.163926363E-1,-5.690042377E-1,1.446180940E-1
1.155321319E1,1.605001241E-1,-5.986303091E-1,1.461452097E-1
1.156236569E1,9.513945878E-2,-5.824428797E-1,1.475196183E-1
1.157151819E1,2.611372061E-2,-5.253286362E-1,1.531699449E-1
1.158067069E1,-4.672981426E-2,-4.355340898E-1,1.598892659E-1
1.158982314E1,-1.255291104E-1,-3.246653080E-1,1.696628332E-1
1.159897564E1,-2.134911120E-1,-2.049392611E-1,1.731752008E-1
1.160812814E1,-3.051182032E-1,-8.872556686E-2,1.718007922E-1
1.161728064E1,-3.917058110E-1,1.588202827E-2,1.656923145E-1
1.162643314E1,-4.758500159E-1,1.236965731E-1,1.575985998E-1
1.163558559E1,-5.628957748E-1,2.264716178E-1,1.539335102E-1
1.164473809E1,-6.516213417E-1,2.872509360E-1,1.562241912E-1
1.165389059E1,-7.307260633E-1,2.973299026E-1,1.612636745E-1
1.166304309E1,-8.005153537E-1,2.550287247E-1,1.575985998E-1
1.167219554E1,-8.338065147E-1,1.856975704E-1,1.415638477E-1
1.168134804E1,-7.664605975E-1,1.204896197E-1,1.061347127E-1
1.169050054E1,-5.578562617E-1,3.756710514E-2,6.184828654E-2
1.169965304E1,-2.525853515E-1,-9.101624042E-2,1.160609815E-2
1.170879278E1,3.206948051E-3,-2.174616307E-1,-3.894151375E-2
1.171795798E1,7.650861889E-2,-2.429644912E-1,-1.185043678E-1
1.172711048E1,2.825168520E-2,-2.009687424E-1,-1.470614821E-1
1.173625023E1,-1.969982497E-2,3.176405653E-2,-9.620844573E-2
1.174541548E1,-1.130067464E-2,3.361186981E-1,-8.903098851E-2
1.175456799E1,-1.896680743E-1,-4.688252881E-2,-1.143811494E-1
1.176370773E1,-5.876350403E-1,-6.523848772E-1,-6.551336497E-2
1.177287293E1,-8.452599049E-1,-3.002314270E-1,8.078455180E-2
1.178202543E1,-9.520054460E-1,6.394043565E-1,1.832541823E-1
1.179116517E1,-1.131594539E0,1.022863746E0,1.768402755E-1
1.180033043E1,-1.413347840E0,9.926267862E-1,8.750387281E-2
1.180948288E1,-1.563005447E0,8.770239353E-1,1.756185852E-2
1.181862262E1,-1.565296054E0,6.003101468E-1,-1.527118124E-2
1.182778788E1,-1.653716207E0,2.125748396E-1,-3.756710514E-2
1.183694038E1,-1.782757759E0,-2.748812735E-2,-3.649812192E-2
1.184608012E1,-1.799097896E0,-1.521009654E-1,-3.512371797E-3
1.185524533E1,-1.694948435E0,-4.424061179E-1,1.572931744E-2
1.186439783E1,-1.548039675E0,-8.096780181E-1,1.084253844E-2
1.187353757E1,-1.452136636E0,-9.958337545E-1,1.603474095E-2
1.188270283E1,-1.368297815E0,-1.035691500E0,8.872556686E-2
1.189185528E1,-1.309656501E0,-9.103151560E-1,2.447970361E-1
1.190099502E1,-1.314543247E0,-6.468872428E-1,4.191939235E-1
1.191016028E1,-1.379598498E0,-3.855973184E-1,5.192201734E-1
1.191931278E1,-1.466338873E0,-9.956810623E-2,5.079194903E-1
1.192845252E1,-1.545290828E0,2.241809368E-1,4.315635860E-1
1.193761778E1,-1.593089700E0,4.268295169E-1,3.411581814E-1
1.194677023E1,-1.624701023E0,5.018110275E-1,2.597627938E-1
1.195590996E1,-1.637986898E0,4.984513521E-1,1.821851879E-1
1.196507523E1,-1.581178188E0,3.854446113E-1,9.529217333E-2
1.197422772E1,-1.464964390E0,1.882936656E-1,5.803049076E-3
1.198336746E1,-1.340351582E0,-1.175880991E-2,-7.314895838E-2
1.199253267E1,-1.207339644E0,-1.786728203E-1,-1.264453828E-1
1.200168517E1,-1.078756213E0,-2.648022771E-1,-1.554606259E-1
1.201083767E1,-9.981244206E-1,-2.538070381E-1,-1.517955512E-1
1.201999017E1,-9.907942414E-1,-1.186570823E-1,-1.279724985E-1
1.202914262E1,-1.016602516E0,7.345438004E-2,-1.026223376E-1
1.203829512E1,-1.056307673E0,3.031329513E-1,-8.475505561E-2
1.204744762E1,-1.119072199E0,5.447230339E-1,-7.375980914E-2
1.205660012E1,-1.155875683E0,7.434011102E-1,-7.971556485E-2
1.206575262E1,-1.169314384E0,8.699992299E-1,-7.498150319E-2
1.207490507E1,-1.193137407E0,9.964445829E-1,-7.895200700E-2
1.208405757E1,-1.204896212E0,1.149461865E0,-1.175880954E-1
1.209321007E1,-1.144880533E0,1.227039456E0,-1.777565479E-1
1.210236257E1,-1.035233378E0,1.254680276E0,-2.441861928E-1
1.211151507E1,-9.520054460E-1,1.353942990E0,-3.089359999E-1
1.212066752E1,-8.790091872E-1,1.435796499E0,-3.762819171E-1
1.212982002E1,-8.408312798E-1,1.550024867E0,-4.512633979E-1
1.213897252E1,-8.716790676E-1,1.710525036E0,-5.260922313E-1
1.214812502E1,-9.408574700E-1,1.904316306E0,-5.902311802E-1
1.215727752E1,-9.817842841E-1,2.101619959E0,-6.534538269E-1
1.216642996E1,-1.003163934E0,2.312362194E0,-7.197307944E-1
1.217558246E1,-1.041036487E0,2.522799253E0,-7.831062078E-1
1.218473496E1,-1.090056896E0,2.718423128E0,-8.428165317E-1
1.219388746E1,-1.131441832E0,2.836927414E0,-9.005415440E-1
1.220302720E1,-1.143047929E0,2.849297047E0,-9.532271624E-1
1.221219246E1,-1.124875188E0,2.829902649E0,-9.901834130E-1
1.222134491E1,-1.047603011E0,2.735984802E0,-1.004232883E0
1.223048465E1,-9.323056340E-1,2.609539509E0,-1.010035992E0
1.223964991E1,-8.719844818E-1,2.472862482E0,-1.014464617E0
1.224880241E1,-9.167290330E-1,2.239518881E0,-1.021947503E0
1.225794215E1,-9.469659925E-1,1.955627441E0,-1.015838981E0
1.226710736E1,-9.626953006E-1,1.721825719E0,-1.006065488E0
1.227625986E1,-1.020420313E0,1.528950691E0,-9.866710305E-1
1.228541236E1,-1.081199646E0,1.420678020E0,-9.278770089E-1
1.229456486E1,-1.127776742E0,1.336686492E0,-8.078454733E-1
1.230371731E1,-1.178018928E0,1.218487620E0,-6.377245188E-1
1.231285710E1,-1.257276416E0,1.034775257E0,-4.581354558E-1
1.232202231E1,-1.355470061E0,7.127060294E-1,-3.138227761E-1
1.233117481E1,-1.401283622E0,2.736595869E-1,-2.252499312E-1
1.234032731E1,-1.388455868E0,-1.508792788E-1,-1.973036677E-1
1.234947981E1,-1.360662222E0,-4.952444136E-1,-2.134911120E-1
1.235863226E1,-1.299272060E0,-6.730009913E-1,-2.507528067E-1
1.236777200E1,-1.204743505E0,-7.310314775E-1,-3.196258247E-1
1.237693726E1,-1.110673070E0,-6.516213417E-1,-4.149180055E-1
1.238608976E1,-1.022711039E0,-3.901786804E-1,-5.103628635E-1
1.239522950E1,-8.984035850E-1,2.244863659E-2,-5.769452453E-1
1.240439470E1,-6.705575585E-1,5.361711979E-1,-5.897729993E-1
1.241354720E1,-3.268032968E-1,1.038287640E0,-5.540384650E-1
1.242268694E1,7.238540053E-2,1.244601250E0,-4.781406820E-1
1.243185220E1,4.268295169E-1,9.523108602E-1,-3.355078697E-1
1.244100470E1,7.661551833E-1,3.377985358E-1,-1.226275861E-1
1.245015715E1,1.186112642E0,-1.372879148E-1,1.035386100E-1
1.245930965E1,1.652341843E0,-3.298575282E-1,2.993151546E-1
1.246846215E1,2.068634272E0,-4.454603493E-1,4.642439187E-1
1.247760189E1,2.396048307E0,-6.673506498E-1,6.137487888E-1
1.248676715E1,2.682535648E0,-8.507575393E-1,7.527165413E-1
1.249591960E1,2.888544083E0,-1.005912781E0,9.081771374E-1
1.250505939E1,2.936190128E0,-1.328745484E0,1.098761559E0
1.251422460E1,2.906716585E0,-1.730988383E0,1.319888234E0
1.252337710E1,2.903815269E0,-1.849492788E0,1.518413544E0
1.253251684E1,2.960623980E0,-1.781994224E0,1.669598222E0
1.254168210E1,3.053625345E0,-1.747786760E0,1.761225343E0
1.255083455E1,3.117764473E0,-1.834374309E0,1.769624472E0
1.255997429E1,3.107074499E0,-2.128802776E0,1.698918939E0
1.256913955E1,3.047517061E0,-2.503404856E0,1.587592006E0
1.257829205E1,3.041866541E0,-2.526158810E0,1.477639556E0
1.258743179E1,3.094552279E0,-2.159955978E0,1.402047157E0
1.259659705E1,3.153498888E0,-1.914700747E0,1.373642802E0
1.260574950E1,3.205420971E0,-1.816965222E0,1.396549582E0
1.261488924E1,3.247264147E0,-1.568350315E0,1.477181435E0
1.262405450E1,3.258411884E0,-1.144116879E0,1.606528282E0
1.263320700E1,3.205268383E0,-7.522584200E-1,1.713273883E0
1.264234674E1,3.094704866E0,-5.256340504E-1,1.741525531E0
1.265151194E1,2.965663433E0,-3.988832533E-1,1.688076377E0
1.266066444E1,2.834942102E0,-3.481829464E-1,1.593700528E0
1.266980418E1,2.734457731E0,-3.932329118E-1,1.512457848E0
1.267896944E1,2.650771618E0,-5.041016936E-1,1.434422135E0
1.268812194E1,2.577011824E0,-6.322268844E-1,1.352721214E0
1.269726168E1,2.514247417E0,-7.476770282E-1,1.276059866E0
1.270642689E1,2.444152594E0,-8.579349518E-1,1.177866220E0
1.271557939E1,2.348402262E0,-9.055810571E-1,1.024696231E0
1.272471913E1,2.216459274E0,-8.817580342E-1,8.454126120E-1
1.273388439E1,2.067107201E0,-8.574768305E-1,6.763606071E-1
1.274303689E1,1.918823957E0,-8.967237473E-1,5.355603099E-1
1.275217663E1,1.759087443E0,-9.607100487E-1,4.208737612E-1
1.276134184E1,1.566975951E0,-1.003622055E0,3.272614181E-1
1.277049434E1,1.344322085E0,-1.027139664E0,2.383831441E-1
1.277963408E1,1.107771516E0,-9.881981611E-1,1.317902952E-1
1.278879934E1,8.667922616E-1,-8.606837988E-1,1.511846948E-2
1.279795184E1,6.187883019E-1,-6.529957056E-1,-9.055810422E-2
1.280710434E1,3.706315756E-1,-4.271349311E-1,-1.957765520E-1
1.281625679E1,1.204896197E-1,-2.519744933E-1,-2.892361879E-1
1.282540929E1,-1.172826737E-1,-1.803526580E-1,-3.495573401E-1
1.283456179E1,-3.066453338E-1,-2.119639963E-1,-3.692571819E-1
1.284371429E1,-4.758500159E-1,-2.573194206E-1,-3.478775024E-1
1.285286679E1,-6.421532035E-1,-2.147128135E-1,-3.210002482E-1
1.286200653E1,-7.876875401E-1,-1.325538605E-1,-3.365768492E-1
1.287117174E1,-8.599202037E-1,-1.832541823E-2,-3.988832533E-1
1.288032424E1,-7.580614686E-1,1.722589284E-1,-5.296045542E-1
1.288946398E1,-6.070294380E-1,6.044333577E-1,-7.328640223E-1
1.289862924E1,-1.185196400E0,8.509102464E-1,-8.116632700E-1
1.290778174E1,-2.387343884E0,3.521534503E-1,-7.440119386E-1
1.291692142E1,-3.532224178E0,-1.267508119E-1,-6.966713071E-1
1.292608668E1,-3.982876778E0,6.992673874E-1,-5.192201734E-1
1.293523918E1,-3.045073509E0,3.149986506E0,-1.114796288E-2
1.294437892E1,-1.967080832E0,4.273029327E0,4.524851143E-1
1.295354418E1,-1.668376565E0,2.186375141E0,3.523061574E-1
1.296269668E1,-1.848729253E0,1.444653720E-1,2.275406010E-2
1.297183642E1,-1.864458561E0,-4.975350797E-1,-1.443126649E-1
1.298100163E1,-1.607139111E0,-1.011715770E0,-3.185568452E-1
1.299015413E1,-1.394869685E0,-1.235133171E0,-5.227325559E-1
1.299929387E1,-1.152057886E0,-1.167176366E0,-4.996730685E-1
1.300845913E1,-1.117545009E0,-1.152821541E0,-2.350234836E-1
1.301761163E1,-1.390593767E0,-9.436063170E-1,7.253811508E-2
1.302675137E1,-1.567281365E0,-6.316160560E-1,2.689255178E-1
1.303591658E1,-1.549108624E0,-5.250232220E-1,2.403683960E-1
1.304506908E1,-1.475501537E0,-5.016583204E-1,3.206948051E-3
1.305422158E1,-1.418692708E0,-3.260397315E-1,-2.579302490E-1
1.306337408E1,-1.334548593E0,-1.235438585E-1,-4.669927359E-1
1.307252658E1,-1.260177851E0,-2.764083818E-2,-6.154286265E-1
1.308166632E1,-1.250709772E0,1.185043678E-1,-6.795675755E-1
1.309083153E1,-1.282473803E0,2.921377122E-1,-6.580352187E-1
1.309998403E1,-1.331647038E0,5.774033666E-1,-5.833591223E-1
1.310913653E1,-1.392426372E0,9.958337545E-1,-5.012001991E-1
1.311828903E1,-1.403268814E0,1.290109396E0,-4.349232614E-1
1.312744153E1,-1.360967636E0,1.499477267E0,-3.810159862E-1
1.313658127E1,-1.328898191E0,1.622563004E0,-3.497100472E-1
1.314574648E1,-1.306144118E0,1.564685225E0,-3.597890437E-1
1.315489898E1,-1.285222650E0,1.435643792E0,-3.938437700E-1
1.316403871E1,-1.309809208E0,1.312558055E0,-4.311054647E-1
1.317320398E1,-1.325385809E0,1.132205367E0,-4.689779878E-1
1.318235648E1,-1.308282137E0,9.712471366E-1,-4.973823726E-1
1.319150898E1,-1.286597013E0,8.945857882E-1,-5.167768002E-1
1.320066142E1,-1.271631241E0,8.800781965E-1,-5.392253995E-1
1.320981392E1,-1.262926698E0,8.222004175E-1,-5.618267655E-1
1.321896642E1,-1.238798261E0,8.107470274E-1,-5.676298141E-1
1.322811892E1,-1.201231122E0,9.301676750E-1,-5.460974574E-1
1.323727142E1,-1.178171635E0,1.103342891E0,-5.210527182E-1
1.324642392E1,-1.172979474E0,1.281252146E0,-4.986040890E-1
1.325557642E1,-1.180767775E0,1.380667567E0,-4.688252807E-1
1.326472887E1,-1.210393786E0,1.504211426E0,-4.306473136E-1
1.327388137E1,-1.271173120E0,1.667154908E0,-3.707842827E-1
1.328303387E1,-1.357149839E0,1.787797213E0,-2.974826097E-1
1.329218637E1,-1.417318344E0,1.878966212E0,-2.429644912E-1
1.330132611E1,-1.437628984E0,1.947686434E0,-2.298312783E-1
1.331049137E1,-1.445569992E0,1.934858680E0,-2.457133085E-1
1.331964382E1,-1.442363143E0,1.793294787E0,-2.632751763E-1
1.332879632E1,-1.440225124E0,1.493063450E0,-2.672456801E-1
1.333794882E1,-1.414874911E0,1.120751977E0,-2.699944973E-1
1.334710132E1,-1.348292589E0,7.863131166E-1,-2.930539846E-1
1.335624106E1,-1.269493341E0,4.676035643E-1,-3.326063454E-1
1.336540632E1,-1.200162172E0,1.753131598E-1,-3.709369898E-1
1.337455882E1,-1.122279167E0,-4.291202128E-2,-4.007157981E-1
1.338369856E1,-1.063026905E0,-1.719534993E-1,-4.442386627E-1
1.339286377E1,-1.060889006E0,-2.473931462E-1,-5.015056133E-1
1.340201627E1,-1.089598775E0,-2.554868758E-1,-5.664080977E-1
1.341115601E1,-1.142895222E0,-1.136175916E-1,-6.218425035E-1
1.342032127E1,-1.190388560E0,5.115845799E-2,-6.687250137E-1
1.342947377E1,-1.199551344E0,1.172826737E-1,-7.006418109E-1
1.343862627E1,-1.178018928E0,1.408002973E-1,-7.151494026E-1
1.344777871E1,-1.153279662E0,1.342336833E-1,-7.278245091E-1
1.345693121E1,-1.132968903E0,6.123743951E-2,-7.397360206E-1
1.346608371E1,-1.081963181E0,-5.070032179E-2,-7.388197780E-1
1.347523621E1,-9.965972900E-1,-1.673721522E-1,-7.197307944E-1
1.348438871E1,-8.947384953E-1,-2.732014358E-1,-6.853706241E-1
1.349354121E1,-7.919634581E-1,-3.355078697E-1,-6.369609833E-1
1.350269371E1,-7.107207775E-1,-3.562766612E-1,-5.838172436E-1
1.351184616E1,-6.299362183E-1,-3.052709103E-1,-5.332696438E-1
1.352098590E1,-4.804313779E-1,-9.162709117E-2,-4.834856093E-1
1.353015116E1,-2.478512824E-1,1.977618039E-1,-4.118637741E-1
1.353930366E1,5.955760926E-2,3.727695346E-1,-3.084778786E-1
1.354845616E1,4.306473136E-1,2.425063550E-1,-1.792836636E-1
1.355760866E1,8.347227573E-1,-6.245913357E-2,-4.856235534E-2
1.356676116E1,1.243074179E0,-2.921377122E-1,6.994201243E-2
1.357591361E1,1.630198598E0,-2.904578745E-1,1.899735034E-1
1.358506611E1,1.969066143E0,-1.320957243E-1,3.326063454E-1
1.359421861E1,2.206532955E0,-7.085828483E-2,4.862344265E-1
1.360335835E1,2.385205746E0,-5.696150661E-2,6.053496599E-1
1.361252361E1,2.511040449E0,-1.798945218E-1,6.980457306E-1
1.362167611E1,2.519897699E0,-4.735593498E-1,8.222004175E-1
1.363081585E1,2.456827641E0,-9.602518678E-1,1.018129706E0
1.363998106E1,2.437586069E0,-1.380820274E0,1.205812454E0
1.364913356E1,2.545247793E0,-1.700140595E0,1.336228371E0
1.365827330E1,2.746521950E0,-1.925390601E0,1.436101913E0
1.366743856E1,2.926110983E0,-2.059318781E0,1.505280375E0
1.367659106E1,3.044157267E0,-2.251124859E0,1.533684731E0
1.368573080E1,3.107685328E0,-2.517454147E0,1.504364133E0
1.369489606E1,3.137616873E0,-2.725753069E0,1.404032469E0
1.370404851E1,3.174420595E0,-2.830666304E0,1.237576604E0
1.371318825E1,3.211529493E0,-2.801192760E0,1.026070714E0
1.372235351E1,3.211529493E0,-2.579607964E0,8.341119289E-1
1.373150601E1,3.143114567E0,-2.122694254E0,7.417212725E-1
1.374064575E1,3.032703876E0,-1.498408318E0,7.759287357E-1
1.374981101E1,2.957111597E0,-8.787037730E-1,8.933641315E-1
1.375896351E1,2.918780804E0,-3.810159862E-1,1.031415582E0
1.376811601E1,2.871134758E0,1.114796288E-2,1.158319116E0
1.377726845E1,2.798902035E0,3.174878657E-1,1.245517612E0
1.378642095E1,2.726669550E0,5.457920432E-1,1.264453769E0
1.379556069E1,2.659018040E0,6.685723066E-1,1.236354828E0
1.380472595E1,2.599155188E0,6.351284385E-1,1.193748236E0
1.381387845E1,2.523257256E0,5.311316848E-1,1.126860499E0
1.382301819E1,2.422620296E0,3.739912212E-1,1.056002140E0
1.383218345E1,2.329160690E0,1.704263836E-1,9.883508682E-1
1.384133590E1,2.256775141E0,-4.077405483E-2,9.188669920E-1
1.385047564E1,2.184695244E0,-2.177670449E-1,8.367080092E-1
1.385964090E1,2.097496748E0,-3.442124426E-1,7.342383862E-1
1.386879340E1,2.001135588E0,-4.781406820E-1,6.226060390E-1
1.387793314E1,1.878202558E0,-5.974085927E-1,5.050179958E-1
1.388709840E1,1.719534993E0,-7.211052179E-1,3.978142738E-1
1.389625090E1,1.535670042E0,-8.585458398E-1,2.806843221E-1
1.390539064E1,1.327371120E0,-9.287932515E-1,1.386623234E-1
1.391455585E1,1.109604001E0,-9.434536099E-1,2.672456764E-2
1.392370835E1,9.026795626E-1,-9.193251133E-1,-4.016320780E-2
1.393286085E1,6.856760383E-1,-8.336538076E-1,-8.322793990E-2
1.394201335E1,4.611896873E-1,-7.299624681E-1,-1.178935245E-1
1.395116585E1,2.498365343E-1,-6.646018028E-1,-1.230857223E-1
1.396031835E1,6.429167092E-2,-6.183301210E-1,-8.780929446E-2
1.396947085E1,-8.857285231E-2,-4.869979918E-1,-5.482354015E-2
1.397862330E1,-2.118112892E-1,-2.829749882E-1,-4.001049697E-2
1.398777580E1,-3.109212518E-1,-1.708845198E-1,-1.863084175E-2
1.399692830E1,-3.946073353E-1,-2.722851634E-1,-1.801999472E-2
1.400608080E1,-4.674508572E-1,-5.051707029E-1,-4.886778072E-2
1.401522054E1,-5.665608048E-1,-6.345176101E-1,-1.038440317E-1
1.402438580E1,-6.804838181E-1,-6.038225293E-1,-2.171562016E-1
1.403353830E1,-7.241594195E-1,-5.291464329E-1,-3.761292100E-1
1.404267804E1,-6.230642200E-1,-2.391466945E-1,-5.662553906E-1
1.405184325E1,-5.774033666E-1,5.279247165E-1,-7.295043468E-1
1.406099575E1,-8.553388715E-1,9.229902029E-1,-7.055285573E-1
1.407013549E1,-1.499629974E0,4.375193417E-1,-5.088357925E-1
1.407930075E1,-2.471029758E0,-3.907895386E-1,-3.782671690E-1
1.408845325E1,-3.227716923E0,-4.169032574E-1,-2.516690791E-1
1.409759298E1,-2.901371717E0,1.475959659E0,1.033858955E-1
1.410675825E1,-2.166827917E0,3.455410242E0,5.505260825E-1
1.411591075E1,-2.029845476E0,2.864109993E0,4.475983381E-1
1.412505049E1,-1.859419107E0,1.109451294E0,-5.497625470E-2
1.413421569E1,-1.405864954E0,3.133646548E-1,-2.515163720E-1
1.414336819E1,-1.358371615E0,-1.753131598E-1,-2.625116110E-1
1.415250793E1,-1.559493065E0,-8.547280431E-1,-3.910949528E-1
1.416167319E1,-1.596143842E0,-1.536280870E0,-5.343386531E-1
1.417082569E1,-1.432742238E0,-1.683495045E0,-5.178457499E-1
1.417996543E1,-1.316528559E0,-1.449387789E0,-3.411581814E-1
1.418913069E1,-1.393800735E0,-9.793408513E-1,-1.276670843E-1
1.419828319E1,-1.441599488E0,-5.196782947E-1,2.855710872E-2
1.420742293E1,-1.373337388E0,-3.138227761E-1,7.162184268E-2
1.421658814E1,-1.344169378E0,-1.669140160E-1,1.801999472E-2
1.422574064E1,-1.413347840E0,9.177979827E-2,-6.016845629E-2
1.423488038E1,-1.405712247E0,2.582356930E-1,-1.611109674E-1
1.424404564E1,-1.278197885E0,2.345653474E-1,-2.713688910E-1
1.425319814E1,-1.248419046E0,2.487675399E-1,-3.408527672E-1
1.426233788E1,-1.349208832E0,4.144598544E-1,-3.342861533E-1
1.427150314E1,-1.386012435E0,6.574243903E-1,-2.669402659E-1
1.428065559E1,-1.324927688E0,8.958075047E-1,-1.878355294E-1
1.428980809E1,-1.278350592E0,1.042563558E0,-1.412584335E-1
1.429896059E1,-1.239103675E0,1.048061132E0,-1.427855492E-1
1.430811309E1,-1.215738773E0,1.020114899E0,-1.823379099E-1
1.431726559E1,-1.220320106E0,9.301676750E-1,-2.446443290E-1
1.432641809E1,-1.229024649E0,7.696675658E-1,-3.110739589E-1
1.433557059E1,-1.226886749E0,6.891884208E-1,-3.648285270E-1
1.434472309E1,-1.237882018E0,6.215370893E-1,-4.027010500E-1
1.435387554E1,-1.208866715E0,4.943281412E-1,-4.353813827E-1
1.436302804E1,-1.163663983E0,4.112529159E-1,-4.581354558E-1
1.437218054E1,-1.128998399E0,4.020902216E-1,-4.663818777E-1
1.438133304E1,-1.119377613E0,4.883723855E-1,-4.547757804E-1
1.439048554E1,-1.127929449E0,6.740699410E-1,-4.398100376E-1
1.439963804E1,-1.125333309E0,8.800781965E-1,-4.350759685E-1
1.440879054E1,-1.113116384E0,1.094027400E0,-4.399627447E-1
1.441794304E1,-1.118614078E0,1.377155185E0,-4.616478086E-1
1.442709554E1,-1.153737783E0,1.681967974E0,-4.840964675E-1
1.443624804E1,-1.176186442E0,1.926459551E0,-5.021164417E-1
1.444540048E1,-1.182142138E0,2.114447832E0,-5.004366040E-1
1.445455299E1,-1.171146870E0,2.250208616E0,-4.931064546E-1
1.446370548E1,-1.151141644E0,2.291898966E0,-4.929537475E-1
1.447285799E1,-1.142895222E0,2.259218693E0,-5.045598149E-1
1.448201049E1,-1.161067963E0,2.177212238E0,-5.167768002E-1
1.449116298E1,-1.163205862E0,2.066190958E0,-5.338805318E-1
1.450031549E1,-1.118614078E0,1.995027184E0,-5.700731874E-1
1.450945523E1,-1.047297597E0,1.896069884E0,-6.227588058E-1
1.451862049E1,-1.012021184E0,1.758629203E0,-6.595623493E-1
1.452777298E1,-1.006218195E0,1.587592006E0,-6.636855602E-1
1.453692543E1,-9.498674870E-1,1.422510505E0,-6.516213417E-1
1.454607793E1,-9.153546095E-1,1.274380088E0,-6.519267559E-1
1.455523043E1,-9.727742672E-1,1.160457134E0,-6.485670805E-1
1.456438293E1,-1.035538793E0,9.254335761E-1,-6.193991303E-1
1.457353543E1,-9.927794933E-1,5.176930428E-1,-5.748072863E-1
1.458268793E1,-9.043593407E-1,5.635065958E-2,-5.396835804E-1
1.459182767E1,-8.900044560E-1,-3.327590525E-1,-5.192201734E-1
1.460099293E1,-9.261971712E-1,-5.601469278E-1,-5.016583204E-1
1.461014543E1,-9.158127308E-1,-5.665608048E-1,-4.721849263E-1
1.461928517E1,-8.779402375E-1,-3.958290219E-1,-4.573718905E-1
1.462845038E1,-8.448017836E-1,-1.638597846E-1,-4.744756222E-1
1.463760288E1,-7.820371985E-1,7.177455351E-3,-5.114318728E-1
1.464675538E1,-6.873558760E-1,6.200099736E-2,-5.625903010E-1
1.465590788E1,-5.955760479E-1,2.092151903E-2,-6.224533319E-1
1.466506038E1,-5.329642296E-1,-5.803048983E-2,-6.731536984E-1
1.467421288E1,-4.546230733E-1,-4.535540938E-2,-7.014053464E-1
1.468336538E1,-3.130592108E-1,1.043021679E-1,-7.084301114E-1
1.469251788E1,-1.137702987E-1,2.848075330E-1,-6.991146803E-1
1.470165762E1,1.284306347E-1,3.329117596E-1,-6.511631608E-1
1.471082283E1,4.089622498E-1,2.061609477E-1,-5.415160656E-1
1.471997533E1,7.211052179E-1,4.566083103E-2,-3.901786804E-1
1.472912783E1,1.038898468E0,6.261184346E-3,-2.542651594E-1
1.473828033E1,1.353942990E0,8.689302206E-2,-1.452289373E-1
1.474743283E1,1.661046386E0,3.124483824E-1,-4.352286831E-2
1.475657257E1,1.895000935E0,4.182776511E-1,8.383878320E-2
1.476573783E1,2.074742794E0,3.684936166E-1,2.475458533E-1
1.477489033E1,2.211877823E0,-4.321744293E-2,4.485146105E-1
1.478403007E1,2.304268599E0,-6.664343476E-1,7.414158583E-1
1.479319528E1,2.368407488E0,-1.243379593E0,1.088529825E0
1.480234778E1,2.462783337E0,-1.593547821E0,1.364785433E0
1.481148757E1,2.619313002E0,-1.741525531E0,1.527270913E0
1.482065278E1,2.766680002E0,-1.758629203E0,1.564990640E0
1.482980528E1,2.858917952E0,-1.856212139E0,1.522994876E0
1.483894502E1,2.892361879E0,-2.111240864E0,1.462826490E0
1.484811028E1,2.872967482E0,-2.479734421E0,1.406323075E0
1.485726278E1,2.855710983E0,-2.940924168E0,1.341115117E0
1.486640252E1,2.853267431E0,-3.328812122E0,1.266897202E0
1.487556778E1,2.841050625E0,-3.320565701E0,1.209324837E0
1.488472028E1,2.834636688E0,-2.925347567E0,1.193748236E0
1.489386002E1,2.859223366E0,-2.293120623E0,1.211768270E0
1.490302522E1,2.907633066E0,-1.529256105E0,1.261094213E0
1.491217773E1,2.949476004E0,-7.812736630E-1,1.318819284E0
1.492131746E1,2.896637678E0,-1.097997949E-1,1.347376347E0
1.493048273E1,2.724684238E0,3.689517379E-1,1.355470061E0
1.493963523E1,2.527227879E0,5.893148780E-1,1.380209327E0
1.494877496E1,2.404142141E0,6.187883019E-1,1.420830727E0
1.495794023E1,2.355732441E0,5.706840754E-1,1.476112366E0
1.496709272E1,2.339086771E0,4.732539058E-1,1.521315098E0
1.497623246E1,2.320914268E0,2.961082160E-1,1.529256105E0
1.498539767E1,2.315874577E0,5.299099907E-2,1.462062955E0
1.499455017E1,2.320914268E0,-2.373141646E-1,1.323706031E0
1.500368991E1,2.309002638E0,-5.592306852E-1,1.165802002E0
1.501285517E1,2.267006874E0,-8.883246183E-1,1.018587828E0
1.502200767E1,2.204547644E0,-1.161373377E0,8.741224408E-1
1.503114741E1,2.116280317E0,-1.282015681E0,7.247702479E-1
1.504031267E1,2.003426313E0,-1.283848286E0,5.937435627E-1
1.504946517E1,1.858960867E0,-1.206117868E0,4.889832437E-1
1.505860491E1,1.682426095E0,-1.071884274E0,3.978142738E-1
1.506777017E1,1.464964390E0,-9.061918855E-1,3.303156495E-1
1.507692267E1,1.218029380E0,-7.096518278E-1,2.929012477E-1
1.508606241E1,9.744541049E-1,-5.390726924E-1,2.690782249E-1
1.509522762E1,7.418739796E-1,-4.237752855E-1,2.050919682E-1
1.510438012E1,4.885250926E-1,-3.148917556E-1,1.275143623E-1
1.511351986E1,2.160872221E-1,-2.173089087E-1,5.283828825E-2
1.512268512E1,-5.131116882E-2,-1.246128380E-1,-2.290677279E-3
1.513183762E1,-3.214583695E-1,-3.115320951E-2,-2.199050039E-2
1.514097736E1,-5.838172436E-1,8.292251825E-2,-1.038440317E-2
1.515014262E1,-8.170081973E-1,2.310529798E-1,2.443389036E-2
1.515929512E1,-1.006370902E0,3.567348123E-1,5.604523420E-2
1.516843486E1,-1.167939901E0,3.733803928E-1,4.138490185E-2
1.517760012E1,-1.288429618E0,2.457133085E-1,-2.580829710E-2
1.518675262E1,-1.411973476E0,3.603998944E-2,-1.151447073E-1
1.519589236E1,-1.605917454E0,-1.424801201E-1,-2.312056869E-1
1.520505757E1,-1.867512822E0,-1.730224788E-1,-3.906368315E-1
1.521421007E1,-1.980214119E0,3.817795217E-2,-5.980194807E-1
1.522334981E1,-1.639972210E0,6.881194115E-1,-8.025006056E-1
1.523251507E1,-1.157555580E0,1.544069171E0,-9.132166505E-1
1.524166757E1,-1.210393786E0,1.126249671E0,-8.095253110E-1
1.525080731E1,-1.681815267E0,-8.017370105E-2,-6.398624778E-1
1.525997257E1,-2.377417564E0,-3.785725832E-1,-5.320479870E-1
1.526912507E1,-2.638707399E0,6.395570636E-1,-3.411581814E-1
1.527826481E1,-2.078560591E0,1.746259570E0,5.955760833E-3
1.528743007E1,-1.670056462E0,1.678302884E0,1.853921413E-1
1.529658252E1,-1.696170092E0,7.878402472E-1,6.856760383E-2
1.530572231E1,-1.591104388E0,1.980672181E-1,-6.032116711E-2
1.531488752E1,-1.298966646E0,-1.653869003E-1,-5.436540768E-2
1.532404002E1,-1.265522838E0,-6.117635369E-1,-1.603474095E-2
1.533317976E1,-1.489245653E0,-1.002705812E0,-6.795676053E-2
1.534234502E1,-1.573848009E0,-1.184432864E0,-1.160609797E-1
1.535149752E1,-1.467713237E0,-1.090667725E0,-3.222219273E-2
1.536063726E1,-1.376238823E0,-9.353598356E-1,2.870982140E-2
1.536980252E1,-1.269646049E0,-1.046381354E0,-5.405998230E-2
1.537895502E1,-1.130525589E0,-1.235896707E0,-1.953184158E-1
1.538809476E1,-1.087766290E0,-1.203674555E0,-2.933593988E-1
1.539726002E1,-1.132052660E0,-8.538117409E-1,-3.355078697E-1
1.540641252E1,-1.176949978E0,-4.327852726E-1,-3.703261614E-1
1.541555226E1,-1.172826767E0,-4.779879749E-2,-3.981196880E-1
1.542471746E1,-1.166260123E0,2.452551723E-1,-3.781144619E-1
1.543386996E1,-1.179087877E0,4.871506989E-1,-3.092414141E-1
1.544302246E1,-1.196649790E0,7.560762167E-1,-2.345653474E-1
1.545217496E1,-1.234827757E0,1.017824292E0,-1.861557066E-1
1.546132746E1,-1.226428628E0,1.170230627E0,-1.623326540E-1
1.547046720E1,-1.175728321E0,1.212073684E0,-1.424801201E-1
1.547963246E1,-1.157250166E0,1.192831993E0,-1.068982705E-1
1.548878496E1,-1.158319116E0,1.081505060E0,-7.437065244E-2
1.549792470E1,-1.167023659E0,9.538379908E-1,-6.093201414E-2
1.550708996E1,-1.190235853E0,8.597674966E-1,-6.719319522E-2
1.551624246E1,-1.178782463E0,6.904101372E-1,-9.208522737E-2
1.552539496E1,-1.140146375E0,5.263976455E-1,-1.197260618E-1
1.553454741E1,-1.136328578E0,4.402681589E-1,-1.313321590E-1
1.554369991E1,-1.171146870E0,4.069769979E-1,-1.333174109E-1
1.555285241E1,-1.212073684E0,4.430169761E-1,-1.470614821E-1
1.556200491E1,-1.263842940E0,5.332696438E-1,-1.829487532E-1
1.557115741E1,-1.327523828E0,6.462764144E-1,-2.249445021E-1
1.558030991E1,-1.368603230E0,9.200887084E-1,-2.730487287E-1
1.558946241E1,-1.390899181E0,1.220625520E0,-3.150444627E-1
1.559861491E1,-1.405101418E0,1.457328796E0,-3.512371778E-1
1.560776741E1,-1.441294074E0,1.657228589E0,-3.706315756E-1
1.561691991E1,-1.484817028E0,1.843231559E0,-3.808632791E-1
1.562607241E1,-1.510777950E0,2.065579891E0,-3.927747905E-1
1.563521215E1,-1.499782681E0,2.226538181E0,-4.165978432E-1
1.564437741E1,-1.444042921E0,2.221651554E0,-4.566083252E-1
1.565352986E1,-1.381889224E0,2.185306072E0,-5.164713860E-1
1.566266965E1,-1.343253136E0,2.099482059E0,-5.992411375E-1
1.567183486E1,-1.221999884E0,1.970287800E0,-6.923953891E-1
1.568098736E1,-1.039662004E0,1.810551286E0,-7.782194018E-1
1.569013986E1,-9.058864713E-1,1.613553047E0,-8.321266770E-1
1.569929236E1,-8.782456517E-1,1.429687977E0,-8.586985469E-1
1.570844486E1,-8.715263009E-1,1.233758807E0,-8.645015955E-1
1.571759736E1,-8.391514421E-1,1.051420808E0,-8.470924497E-1
1.572674986E1,-7.812736630E-1,8.967237473E-1,-8.130376935E-1
1.573590236E1,-7.327113152E-1,7.534800768E-1,-7.649334669E-1
1.574505486E1,-7.278245091E-1,6.001574397E-1,-7.142331600E-1
1.575420736E1,-7.401941419E-1,4.459185004E-1,-6.755970716E-1
1.576335986E1,-7.032378912E-1,3.593308926E-1,-6.514685750E-1
1.577251236E1,-6.439857483E-1,3.547495604E-1,-6.436802745E-1
1.578166486E1,-6.067240238E-1,3.179459870E-1,-6.464291215E-1
1.579081731E1,-5.428904891E-1,2.131856978E-1,-6.447492838E-1
1.579996981E1,-4.081986845E-1,9.834641218E-2,-6.432221532E-1
1.580912231E1,-2.205158621E-1,7.681404054E-2,-6.497887969E-1
1.581827481E1,-2.901524492E-2,1.669140160E-1,-6.551336646E-1
1.582742731E1,1.539335102E-1,3.077143133E-1,-6.375718117E-1
1.583657981E1,3.469612300E-1,4.095730782E-1,-5.610632300E-1
1.584573231E1,5.664080977E-1,4.653128982E-1,-4.220954478E-1
1.585487205E1,8.486195803E-1,4.874561131E-1,-2.528907657E-1
1.586403731E1,1.216349602E0,4.201101959E-1,-7.864658535E-2
1.587318981E1,1.623937488E0,2.910687327E-1,4.337015375E-2
1.588232955E1,1.979908705E0,2.767138183E-1,1.076618284E-1
1.589149481E1,2.209434509E0,2.093679011E-1,2.040229887E-1
1.590064731E1,2.307628155E0,-5.405998230E-2,4.100312293E-1
1.590978705E1,2.315874577E0,-5.001311898E-1,7.346965671E-1
1.591895231E1,2.304421186E0,-8.092198968E-1,1.041952729E0
1.592810481E1,2.349165916E0,-1.099372387E0,1.251320601E0
1.593724455E1,2.425063610E0,-1.469240427E0,1.415791273E0
1.594640976E1,2.512872934E0,-1.829640269E0,1.545443535E0
1.595556226E1,2.582967520E0,-2.178128719E0,1.585301399E0
1.596470200E1,2.643594265E0,-2.534405231E0,1.523147583E0
1.597386726E1,2.708038568E0,-2.991013527E0,1.390746474E0
1.598301976E1,2.786685228E0,-3.451439619E0,1.222458124E0
1.599215950E1,2.843188524E0,-3.623087883E0,1.064859509E0
1.600132476E1,2.863193750E0,-3.398143291E0,9.683456421E-1
1.601047726E1,2.826848507E0,-2.856321812E0,9.646805525E-1
1.601961700E1,2.751255989E0,-2.191567183E0,1.016144395E0
1.602878226E1,2.700555801E0,-1.513526797E0,1.085017443E0
1.603793476E1,2.651535273E0,-8.823688626E-1,1.148851037E0
1.604707450E1,2.524326324E0,-4.485146105E-1,1.192221165E0
1.605623976E1,2.361535549E0,-1.827960461E-1,1.226886749E0
1.606539226E1,2.257233381E0,1.114796288E-2,1.279877663E0
1.607454476E1,2.199661016E0,1.620272398E-1,1.335464835E0
1.608369726E1,2.155069113E0,2.176143378E-1,1.394258857E0
1.609284970E1,2.110477209E0,1.640124917E-1,1.422052383E0
1.610198950E1,2.050766945E0,3.588727489E-2,1.373642802E0
1.611115470E1,2.033052444E0,-1.267508119E-1,1.242310643E0
1.612030720E1,2.050156116E0,-3.225273490E-1,1.089293361E0
1.612945970E1,2.060235023E0,-5.635066032E-1,9.631534219E-1
1.613861220E1,2.062067747E0,-8.512156606E-1,8.649597168E-1
1.614776470E1,2.056111813E0,-1.115559816E0,7.711946368E-1
1.615690444E1,2.008618593E0,-1.263842940E0,6.517740488E-1
1.616606970E1,1.900498509E0,-1.306602240E0,5.082249045E-1
1.617522220E1,1.738623977E0,-1.269493341E0,3.642176688E-1
1.618436194E1,1.537655234E0,-1.150378108E0,2.655658424E-1
1.619352720E1,1.320499063E0,-9.538379908E-1,2.089097649E-1
1.620267970E1,1.108993173E0,-7.241594195E-1,1.803526580E-1
1.621181944E1,8.979454637E-1,-4.876088202E-1,1.866138428E-1
1.622098470E1,6.923953891E-1,-2.605263591E-1,2.290677279E-1
1.623013720E1,5.099047422E-1,-7.574506104E-2,2.374668717E-1
1.623928970E1,3.390202224E-1,1.154501289E-1,1.969982386E-1
1.624844220E1,1.568350345E-1,3.029802442E-1,1.679829955E-1
1.625759470E1,1.282779220E-2,3.396310806E-1,1.725643575E-1
1.626673444E1,-7.223268598E-2,2.008160353E-1,1.896680743E-1
1.627589965E1,-1.221694499E-1,-1.847812906E-2,1.864611208E-1
1.628505215E1,-1.918060333E-1,-2.092151791E-1,1.403421611E-1
1.629419189E1,-3.358132839E-1,-2.489202619E-1,6.306997687E-2
1.630335715E1,-5.639647245E-1,-1.973036677E-1,-3.145863488E-2
1.631250965E1,-8.141067028E-1,-1.452289373E-1,-1.927223057E-1
1.632164939E1,-1.012021184E0,-8.399149403E-3,-4.372139275E-1
1.633081465E1,-9.347490072E-1,4.585935771E-1,-7.545490861E-1
1.633996715E1,-6.363501549E-1,1.205812454E0,-1.025307178E0
1.634910689E1,-6.578825116E-1,1.136633992E0,-1.023627281E0
1.635827215E1,-1.157708287E0,3.573456407E-2,-7.887565494E-1
1.636742465E1,-2.069703341E0,-5.677825212E-1,-6.183301210E-1
1.637656439E1,-2.600071430E0,4.944808483E-1,-4.402681589E-1
1.638572965E1,-2.030914307E0,2.309002638E0,-5.772506446E-2
1.639488215E1,-1.579803705E0,2.946727276E0,2.728960216E-1
1.640402189E1,-1.655243397E0,1.554606318E0,1.366770715E-1
1.641318715E1,-1.336686492E0,1.646233350E-1,-1.250709742E-1
1.642233965E1,-1.035844207E0,-4.222481549E-1,-2.362451702E-1
1.643149215E1,-1.209477544E0,-8.057075143E-1,-3.526115716E-1
1.644064465E1,-1.387081385E0,-8.011261821E-1,-4.979932308E-1
1.644979710E1,-1.244143128E0,-5.809157491E-1,-4.671454430E-1
1.645893689E1,-1.118308663E0,-3.741439581E-1,-2.185306102E-1
1.646810210E1,-1.167481780E0,-1.826433241E-1,8.093725890E-2
1.647725460E1,-1.226123214E0,-1.899735034E-1,2.612899244E-1
1.648639434E1,-1.239714503E0,-2.628170252E-1,2.806843221E-1
1.649555960E1,-1.237576604E0,-2.660239935E-1,2.112004459E-1
1.650471210E1,-1.235591292E0,-2.261662036E-1,1.110214889E-1
1.651386460E1,-1.179698825E0,-2.365505993E-1,2.657185495E-2
1.652301710E1,-1.115559816E0,-3.545968235E-1,-6.566607859E-3
1.653216960E1,-1.112810969E0,-4.807367921E-1,1.130067464E-2
1.654132210E1,-1.163969398E0,-5.595360994E-1,4.825693369E-2
1.655047460E1,-1.192373872E0,-5.708367825E-1,7.971556485E-2
1.655962710E1,-1.152668834E0,-4.622586668E-1,9.101624042E-2
1.656877960E1,-1.123653531E0,-3.242071867E-1,8.017370105E-2
1.657793210E1,-1.140757203E0,-1.942494214E-1,5.299099907E-2
1.658708460E1,-1.179087877E0,-8.414421231E-2,1.786728203E-2
1.659623710E1,-1.185959935E0,-5.344913527E-2,-1.572931744E-2
1.660538960E1,-1.185196400E0,-1.130067464E-2,-1.954711229E-2
1.661454210E1,-1.194511771E0,9.162709117E-3,-2.015795931E-2
1.662369460E1,-1.162442327E0,6.994201243E-2,-2.611372061E-2
1.663284710E1,-1.137092113E0,1.423274130E-1,-3.390202299E-2
1.664199960E1,-1.159998894E0,2.875563502E-1,-3.665083647E-2
1.665115210E1,-1.223068953E0,4.506525695E-1,-4.504998401E-2
1.666030460E1,-1.263842940E0,6.801784039E-1,-6.276455522E-2
1.666945705E1,-1.260483265E0,8.831323981E-1,-1.006370857E-1
1.667860955E1,-1.234522343E0,1.034622550E0,-1.678302884E-1
1.668776205E1,-1.243074179E0,1.197107911E0,-2.339545041E-1
1.669691455E1,-1.251931429E0,1.323400617E0,-2.872509360E-1
1.670606705E1,-1.240478039E0,1.444348335E0,-3.263451457E-1
1.671521955E1,-1.235591292E0,1.521925926E0,-3.593308926E-1
1.672437205E1,-1.273311138E0,1.550330400E0,-3.620797098E-1
1.673352455E1,-1.333784938E0,1.544221878E0,-3.405473530E-1
1.674267705E1,-1.396091461E0,1.539335132E0,-3.237490356E-1
1.675182955E1,-1.388455868E0,1.512763262E0,-3.323009014E-1
1.676098205E1,-1.331341624E0,1.473058224E0,-3.556658030E-1
1.677013455E1,-1.261246920E0,1.382652760E0,-3.924693763E-1
1.677928705E1,-1.198787689E0,1.314390540E0,-4.437805414E-1
1.678843955E1,-1.173437595E0,1.275754452E0,-5.108210444E-1
1.679759205E1,-1.174811959E0,1.175422788E0,-5.882459283E-1
1.680674455E1,-1.150988936E0,9.552124143E-1,-6.490252018E-1
1.681589705E1,-1.054322362E0,6.931589246E-1,-6.792621613E-1
1.682504955E1,-9.498674870E-1,6.027535200E-1,-6.943806410E-1
1.683420205E1,-9.119949341E-1,5.810684562E-1,-7.136223316E-1
1.684335455E1,-8.843541145E-1,5.352548957E-1,-7.255338430E-1
1.685250705E1,-8.557969928E-1,5.041016936E-1,-7.168292403E-1
1.686165955E1,-8.333483934E-1,6.029062271E-1,-7.001836896E-1
1.687081205E1,-7.979192138E-1,7.779139876E-1,-6.872031689E-1
1.687996455E1,-7.304205894E-1,8.828269839E-1,-6.795675755E-1
1.688911705E1,-6.325323582E-1,8.805363178E-1,-6.824691296E-1
1.689826950E1,-5.274665952E-1,8.583931327E-1,-6.951441765E-1
1.690742205E1,-4.311054647E-1,8.403730989E-1,-7.061394453E-1
1.691657450E1,-3.228327632E-1,8.550334573E-1,-7.072083950E-1
1.692571429E1,-1.881409585E-1,9.487984776E-1,-6.788040400E-1
1.693487950E1,-3.588727489E-2,1.068066478E0,-6.058077812E-1
1.694403200E1,1.496575773E-1,1.072342396E0,-4.969242513E-1
1.695317174E1,4.074351192E-1,9.323056340E-1,-3.723114133E-1
1.696233700E1,7.353073955E-1,6.073349118E-1,-2.550287247E-1
1.697148950E1,1.027903199E0,1.670667231E-1,-1.542389393E-1
1.698062924E1,1.213448048E0,-1.685938388E-1,-5.192201585E-2
1.698979450E1,1.362647533E0,-2.938175201E-1,6.887302548E-2
1.699894700E1,1.531699538E0,-3.689517379E-1,2.008160353E-1
1.700808674E1,1.727170587E0,-3.484883606E-1,2.669402659E-1
1.701725200E1,1.868276358E0,-2.728960216E-1,2.782409191E-1
1.702640450E1,1.953489542E0,-3.750602305E-1,3.199312389E-1
1.703554424E1,2.053668499E0,-6.740699410E-1,4.245388508E-1
1.704470950E1,2.213099718E0,-8.666395545E-1,5.778614879E-1
1.705386200E1,2.378486633E0,-9.538379908E-1,7.207997441E-1
1.706300174E1,2.434379101E0,-1.133427143E0,8.458707333E-1
1.707216700E1,2.376959324E0,-1.515817523E0,9.446752667E-1
1.708131950E1,2.322899342E0,-2.063289404E0,1.011257648E0
1.709045924E1,2.369323730E0,-2.441098452E0,1.025307178E0
1.709962450E1,2.492104053E0,-2.495311022E0,9.675820470E-1
1.710877700E1,2.616411448E0,-2.347944260E0,8.522846103E-1
1.711791674E1,2.656269312E0,-2.117501974E0,7.314895988E-1
1.712708200E1,2.583884001E0,-1.849187374E0,6.655181050E-1
1.713623450E1,2.486300945E0,-1.547886968E0,6.762079000E-1
1.714537424E1,2.427965164E0,-1.262773991E0,7.269082665E-1
1.715453950E1,2.406585455E0,-9.691091776E-1,7.893673778E-1
1.716369200E1,2.387496471E0,-5.813738704E-1,8.695410490E-1
1.717283174E1,2.366116762E0,-1.560714692E-1,9.741486907E-1
1.718199700E1,2.338781357E0,2.202104330E-1,1.092194915E0
1.719114950E1,2.300603390E0,4.585935771E-1,1.172368646E0
1.720028924E1,2.258455038E0,4.857762754E-1,1.187792540E0
1.720945450E1,2.224858522E0,3.884988427E-1,1.167023659E0
1.721860700E1,2.210656166E0,2.050919682E-1,1.115101695E0
1.722774674E1,2.181793690E0,1.847812906E-2,1.030804753E0
1.723691200E1,2.139645338E0,-1.754658818E-1,9.164236188E-1
1.724606450E1,2.102383614E0,-3.567348123E-1,7.818844914E-1
1.725520424E1,2.077033281E0,-5.031854510E-1,6.609367132E-1
1.726436950E1,2.049392462E0,-6.168029904E-1,5.642701387E-1
1.727352194E1,2.010298252E0,-6.810947061E-1,4.822639227E-1
1.728266174E1,1.949060917E0,-6.989619732E-1,4.153761268E-1
1.729182694E1,1.851783514E0,-7.052231431E-1,3.914003670E-1
1.730097944E1,1.729155898E0,-6.939224601E-1,3.898732662E-1
1.731011924E1,1.599656224E0,-6.171084642E-1,3.755183518E-1
1.731928450E1,1.453205585E0,-4.866925478E-1,3.481829464E-1
1.732843694E1,1.267508030E0,-3.213056624E-1,3.130592108E-1
1.733758944E1,1.053558826E0,-1.614163816E-1,2.907632887E-1
1.734674194E1,8.573241234E-1,-1.143811494E-1,2.478512824E-1
1.735589444E1,7.036960125E-1,-1.353026628E-1,1.911951900E-1
1.736504694E1,5.723638535E-1,-1.175880954E-1,1.614163816E-1
1.737419944E1,4.385883212E-1,-5.161659420E-2,1.470614821E-1
1.738335194E1,2.848075330E-1,6.077930331E-2,1.313321590E-1
1.739250444E1,1.015533581E-1,1.533226669E-1,1.305686086E-1
1.740165694E1,-8.139539510E-2,1.351499557E-1,1.621799469E-1
1.741080944E1,-2.237228155E-1,2.596100792E-2,2.064663768E-1
1.741996194E1,-3.153499067E-1,-1.337755471E-1,2.272351831E-1
1.742911444E1,-3.848337829E-1,-2.869454920E-1,2.067717910E-1
1.743826694E1,-4.672981501E-1,-3.523061574E-1,1.672194302E-1
1.744740668E1,-5.801522136E-1,-3.255815804E-1,1.308740228E-1
1.745657194E1,-7.180509567E-1,-2.620534599E-1,9.880454093E-2
1.746572444E1,-8.703046441E-1,-2.420482337E-1,5.619794875E-2
1.747486418E1,-1.046686769E0,-2.032594234E-1,5.955760833E-3
1.748402944E1,-1.267049909E0,-7.849387079E-2,-5.665608495E-2
1.749318194E1,-1.500699043E0,1.183516532E-1,-1.482831687E-1
1.750233444E1,-1.627907991E0,2.828222811E-1,-2.835858464E-1
1.751148694E1,-1.491078138E0,4.944808483E-1,-4.410317242E-1
1.752063944E1,-1.018587828E0,9.345963001E-1,-5.723638535E-1
1.752977918E1,-6.603258848E-1,1.144727707E0,-6.303943992E-1
1.753894444E1,-9.617789984E-1,3.119902313E-1,-4.688252807E-1
1.754809694E1,-1.492299795E0,-5.876350403E-1,-2.197522968E-1
1.755723668E1,-2.153389215E0,-1.869192570E-1,3.054236248E-2
1.756640194E1,-2.501572132E0,1.187028885E0,3.257342875E-1
1.757555444E1,-2.265937805E0,2.302130699E0,4.566083252E-1
1.758469418E1,-1.783063173E0,1.476417780E0,9.361234307E-2
1.759385944E1,-1.114032745E0,-5.546492934E-1,-4.204156399E-1
1.760301194E1,-9.200887084E-1,-8.909206986E-1,-5.317425132E-1
1.761215168E1,-1.420219898E0,-1.238492802E-1,-3.185568452E-1
1.762131694E1,-1.832389116E0,3.825430870E-1,-1.122431830E-1
1.763046944E1,-1.610346079E0,1.204896197E-1,-3.603998944E-2
1.763960918E1,-1.316375852E0,-6.354338527E-1,-3.939964995E-2
1.764877444E1,-1.377155185E0,-9.964445829E-1,-5.864133686E-2
1.765792694E1,-1.452747464E0,-9.539906979E-1,-8.857285231E-2
1.766706668E1,-1.291789293E0,-9.866710305E-1,-1.832541823E-1
1.767623194E1,-1.076312900E0,-1.110214949E0,-2.823641598E-1
1.768538444E1,-1.004232883E0,-1.023474574E0,-3.136700690E-1
1.769452418E1,-1.043632507E0,-7.620319724E-1,-3.124483824E-1
1.770368944E1,-1.086086392E0,-4.089622498E-1,-3.300102353E-1
1.771284194E1,-1.133274436E0,7.177455351E-3,-3.727695346E-1
1.772199444E1,-1.177408099E0,4.782933891E-1,-4.167505503E-1
1.773114694E1,-1.192068458E0,8.994725943E-1,-4.208737612E-1
1.774029944E1,-1.174964666E0,1.168245435E0,-4.031592011E-1
1.774943918E1,-1.105022669E0,1.276976228E0,-3.888042867E-1
1.775860444E1,-1.045923233E0,1.283695459E0,-3.761292100E-1
1.776775694E1,-1.004843712E0,1.225206852E0,-3.794888556E-1
1.777690944E1,-1.001484036E0,1.146865726E0,-4.129327536E-1
1.778606194E1,-1.002400398E0,1.059209108E0,-4.520269632E-1
1.779521444E1,-9.640696645E-1,9.898779988E-1,-4.731011987E-1
1.780436694E1,-8.877137899E-1,9.315420985E-1,-4.804313779E-1
1.781351944E1,-8.470924497E-1,8.670976758E-1,-4.831801951E-1
1.782267194E1,-8.667922616E-1,8.079982400E-1,-5.100574493E-1
1.783182444E1,-9.061918855E-1,7.577560544E-1,-5.427377820E-1
1.784097694E1,-9.465078115E-1,7.860077024E-1,-5.650337338E-1
1.785012944E1,-9.251281619E-1,8.328902125E-1,-5.850389600E-1
1.785928194E1,-8.990144730E-1,1.012937427E0,-6.137487888E-1
1.786843444E1,-8.842014074E-1,1.173743010E0,-6.551336646E-1
1.787758694E1,-8.171609044E-1,1.214669824E0,-6.957550049E-1
1.788673944E1,-7.704311013E-1,1.288887739E0,-7.003363967E-1
1.789589194E1,-8.217422962E-1,1.434116602E0,-6.775823236E-1
1.790504444E1,-8.994725943E-1,1.569724798E0,-6.354338527E-1
1.791419694E1,-9.231429100E-1,1.639208674E0,-5.813738704E-1
1.792334944E1,-9.052756429E-1,1.691283345E0,-5.292991400E-1
1.793250194E1,-9.147437811E-1,1.752368093E0,-4.781406820E-1
1.794165444E1,-1.000720501E0,1.768097401E0,-4.182776511E-1
1.795080694E1,-1.102121115E0,1.704263806E0,-3.524588645E-1
1.795995944E1,-1.121210098E0,1.673721433E0,-2.909159958E-1
1.796909918E1,-1.070509791E0,1.550483108E0,-2.281514555E-1
1.797826444E1,-1.039814711E0,1.324164152E0,-1.818797737E-1
1.798741694E1,-1.021947503E0,1.119988441E0,-1.811162084E-1
1.799655668E1,-1.001025915E0,8.040276766E-1,-2.179197669E-1
1.800572194E1,-1.010646820E0,3.633013964E-1,-2.585411072E-1
1.801487444E1,-9.932376146E-1,2.443389036E-3,-2.619007528E-1
1.802402694E1,-9.552124143E-1,-2.541124523E-1,-2.467822880E-1
1.803317944E1,-9.810206890E-1,-4.085040987E-1,-2.437280566E-1
1.804233194E1,-1.046534061E0,-5.105155706E-1,-2.631224692E-1
1.805147168E1,-1.060125470E0,-5.714476109E-1,-2.906105816E-1
1.806063694E1,-1.078298092E0,-5.873296261E-1,-3.164188862E-1
1.806978944E1,-1.130067468E0,-4.457657933E-1,-3.358132839E-1
1.807892918E1,-1.141978979E0,-2.771719396E-1,-3.555130959E-1
1.808809444E1,-1.101815701E0,-1.481304616E-1,-3.804051280E-1
1.809724694E1,-1.050199151E0,-2.825168520E-2,-4.130854607E-1
1.810639944E1,-1.024848938E0,-1.588202827E-2,-4.691306949E-1
1.811555194E1,-9.988879561E-1,-5.894676223E-2,-5.586197972E-1
1.812470444E1,-9.234483242E-1,-1.038440317E-1,-6.642963886E-1
1.813385694E1,-8.118160367E-1,-1.310267299E-1,-7.495095730E-1
1.814300944E1,-6.896465421E-1,-7.253811508E-2,-7.866185308E-1
1.815216194E1,-5.596888065E-1,1.415638477E-1,-7.687512636E-1
1.816130168E1,-3.946073353E-1,4.181249440E-1,-7.030851841E-1
1.817046694E1,-1.884463727E-1,6.212316751E-1,-6.120689511E-1
1.817961944E1,4.550812021E-2,6.797202826E-1,-5.384618640E-1
1.818875918E1,3.083251417E-1,5.635066032E-1,-4.863871336E-1
1.819792444E1,5.592306852E-1,3.104631305E-1,-4.257605374E-1
1.820707694E1,7.756233215E-1,1.189625040E-1,-3.245126009E-1
1.821622944E1,9.869764447E-1,6.917845458E-2,-1.734806150E-1
1.822538194E1,1.226581335E0,1.461452097E-1,-6.872031838E-3
1.823453444E1,1.476875901E0,2.748812735E-1,1.279724985E-1
1.824367418E1,1.710983157E0,3.399364948E-1,2.052446753E-1
1.825283944E1,1.885838151E0,3.229855001E-1,2.651077211E-1
1.826199194E1,2.009229422E0,1.241547018E-1,3.527642787E-1
1.827113168E1,2.133231401E0,-3.202366829E-1,5.457920432E-1
1.828029694E1,2.325190067E0,-7.553126216E-1,7.959339619E-1
1.828944944E1,2.532725334E0,-1.097234368E0,9.649859667E-1
1.829858918E1,2.638401985E0,-1.436712742E0,1.021642089E0
1.830775444E1,2.671540499E0,-1.819255829E0,1.022711039E0
1.831690694E1,2.722546339E0,-2.285637617E0,9.946120381E-1
1.832604668E1,2.800581932E0,-2.585258245E0,9.546015263E-1
1.833521194E1,2.876327038E0,-2.565405846E0,9.086353183E-1
1.834436444E1,2.927485466E0,-2.461256266E0,8.606837988E-1
1.835350418E1,2.923820496E0,-2.303504944E0,8.147175312E-1
1.836266944E1,2.876479626E0,-2.033205032E0,7.843278646E-1
1.837182194E1,2.813256979E0,-1.706707239E0,7.902836204E-1
1.838096168E1,2.755684614E0,-1.225054145E0,8.414421082E-1
1.839012694E1,2.726822138E0,-5.703786016E-1,9.403993487E-1
1.839929288E1,2.702540874E0,8.872556686E-2,1.058750987E0
1.840843194E1,2.634431601E0,6.482616663E-1,1.151905179E0
1.841758444E1,2.524631739E0,1.041800022E0,1.213142633E0
1.842673694E1,2.412846565E0,1.247350097E0,1.251931429E0
1.843587668E1,2.293884277E0,1.301410079E0,1.296828747E0
1.844504194E1,2.194621563E0,1.222458124E0,1.346307397E0
1.845419444E1,2.106048584E0,1.050809979E0,1.362800241E0
1.846333424E1,2.039008141E0,7.504258752E-1,1.340046167E0
1.847249944E1,2.008160353E0,3.897205591E-1,1.260635972E0
1.848165194E1,1.986169815E0,5.955760833E-3,1.136175871E0
1.849079174E1,1.955169320E0,-3.900259733E-1,9.750649333E-1
1.849995694E1,1.912868142E0,-7.444701195E-1,7.924215794E-1
1.850910944E1,1.869498014E0,-1.004996419E0,6.232169271E-1
1.851826194E1,1.816048861E0,-1.168245435E0,4.928010404E-1
1.852741444E1,1.739082098E0,-1.267660737E0,3.929274976E-1
1.853656694E1,1.618745208E0,-1.275449038E0,3.009949923E-1
1.854570674E1,1.459161401E0,-1.169314384E0,2.217375487E-1
1.855487200E1,1.266591787E0,-9.787300229E-1,1.652341783E-1
1.856402450E1,1.056002140E0,-7.695148587E-1,1.299577504E-1
1.857317700E1,8.460234404E-1,-5.867187977E-1,1.198787764E-1
1.858232950E1,6.360446811E-1,-4.720322192E-1,1.236965731E-1
1.859148200E1,4.286620617E-1,-3.770454824E-1,1.313321590E-1
1.860063450E1,2.397575527E-1,-2.826695740E-1,1.378987730E-1
1.860978700E1,7.116370648E-2,-1.835595965E-1,1.446180940E-1
1.861893950E1,-8.353336155E-2,-4.627167806E-2,1.586675793E-1
1.862809200E1,-2.360924631E-1,4.871506989E-2,1.643179059E-1
1.863724450E1,-4.027010500E-1,8.506047726E-2,1.472141892E-1
1.864639700E1,-5.712949038E-1,6.795676053E-2,1.154501289E-1
1.865553674E1,-7.527165413E-1,4.566083103E-2,6.719319522E-2
1.866470200E1,-9.517000318E-1,5.589252338E-2,-1.985253533E-3
1.867385450E1,-1.149614573E0,4.153761268E-2,-7.788302749E-2
1.868300700E1,-1.315917730E0,-2.046338283E-2,-1.261399537E-1
1.869215950E1,-1.462979198E0,-4.489727318E-2,-1.577513069E-1
1.870131200E1,-1.563158154E0,-3.924693540E-2,-2.334963679E-1
1.871045174E1,-1.434422135E0,1.797417998E-1,-3.842229247E-1
1.871961700E1,-1.018587828E0,8.020424247E-1,-5.972558856E-1
1.872876950E1,-8.701519370E-1,7.783721089E-1,-6.798729897E-1
1.873790924E1,-1.350125194E0,-5.596888065E-1,-5.467082858E-1
1.874707450E1,-2.092151880E0,-1.105786204E0,-4.563029110E-1
1.875622700E1,-2.689865828E0,-3.881934285E-1,-3.828485310E-1
1.876536674E1,-2.214321375E0,7.824953198E-1,-1.349972486E-1
1.877453200E1,-1.518566251E0,1.566975951E0,1.656923145E-1
1.878368450E1,-1.387539506E0,1.277128935E0,1.156028435E-1
1.879282424E1,-1.284917235E0,6.629219651E-1,-1.171299592E-1
1.880198950E1,-1.048824787E0,1.172826737E-1,-1.664558798E-1
1.881114200E1,-1.077534556E0,-4.399627447E-1,-7.956285775E-2
1.882028174E1,-1.373490095E0,-5.228852630E-1,-4.550812021E-2
1.882944700E1,-1.499629974E0,-2.918322682E-1,-1.235438585E-1
1.883859950E1,-1.383110881E0,-1.901262105E-1,-1.966928244E-1
1.884773924E1,-1.293927193E0,-1.122431830E-1,-1.797417998E-1
1.885690450E1,-1.347529054E0,-7.543963939E-2,-1.291942000E-1
1.886605700E1,-1.364327312E0,-1.928750277E-1,-1.195733473E-1
1.887520950E1,-1.278197885E0,-3.645231128E-1,-1.635543555E-1
1.888436200E1,-1.213906169E0,-3.749074936E-1,-1.885990947E-1
1.889351450E1,-1.178782463E0,-2.970244884E-1,-1.817270666E-1
1.890266700E1,-1.113574505E0,-2.939702570E-1,-1.885990947E-1
1.891181950E1,-1.020114899E0,-3.347443044E-1,-2.002051920E-1
1.892097200E1,-1.003927469E0,-2.907632887E-1,-1.688992679E-1
1.893012455E1,-1.068066478E0,-2.560977042E-1,-1.009425074E-1
1.893927705E1,-1.138924718E0,-1.438545287E-1,-3.069507517E-2
1.894842950E1,-1.160457134E0,2.809897438E-2,2.458660305E-2
1.895758205E1,-1.168245435E0,2.003578991E-1,4.825693369E-2
1.896673455E1,-1.168245435E0,2.757975459E-1,4.092676565E-2
1.897588705E1,-1.148087382E0,2.341072112E-1,2.275406010E-2
1.898503955E1,-1.108076930E0,1.743968874E-1,1.389677543E-2
1.899419205E1,-1.080130696E0,8.170082420E-2,9.162709117E-3
1.900334455E1,-1.044090629E0,-8.093725890E-2,-3.817795310E-3
1.901249705E1,-1.006370902E0,-1.556133330E-1,-8.399149403E-3
1.902164955E1,-9.637642503E-1,-1.688992679E-1,-1.969982497E-2
1.903080205E1,-1.006065488E0,-1.107160673E-1,-5.604523420E-2
1.903995455E1,-1.071273327E0,-2.489202656E-2,-1.114796251E-1
1.904910705E1,-1.090973258E0,1.382041872E-1,-1.759240031E-1
1.905825955E1,-1.115559816E0,3.687990308E-1,-2.244863659E-1
1.906741205E1,-1.140757203E0,5.089884996E-1,-2.516690791E-1
1.907656455E1,-1.144880533E0,6.450546980E-1,-2.750339806E-1
1.908571705E1,-1.145796776E0,7.631009221E-1,-3.002314270E-1
1.909486955E1,-1.151141644E0,9.619317055E-1,-3.210002482E-1
1.910402205E1,-1.172368646E0,1.262468576E0,-3.373403847E-1
1.911317455E1,-1.169772506E0,1.468476772E0,-3.558185399E-1
1.912232705E1,-1.160457134E0,1.611262321E0,-3.723114133E-1
1.913147955E1,-1.173132181E0,1.663031697E0,-3.950654566E-1
1.914063205E1,-1.235133171E0,1.715259075E0,-4.101839364E-1
1.914978455E1,-1.280794024E0,1.727781415E0,-4.330907166E-1
1.915893705E1,-1.253916740E0,1.696322799E0,-4.590517282E-1
1.916808955E1,-1.201078415E0,1.668071151E0,-4.960079789E-1
1.917724205E1,-1.168092728E0,1.579956412E0,-5.311316848E-1
1.918639455E1,-1.134190679E0,1.443126678E0,-5.685460567E-1
1.919554705E1,-1.100135922E0,1.320040941E0,-6.152759194E-1
1.920469955E1,-1.081810474E0,1.291483760E0,-6.615476012E-1
1.921385205E1,-1.068219185E0,1.312405348E0,-7.108734846E-1
1.922300455E1,-1.017824292E0,1.284611821E0,-7.569924593E-1
1.923215705E1,-9.384140968E-1,1.228566527E0,-7.905890942E-1
1.924130960E1,-9.052756429E-1,1.179240584E0,-7.853968740E-1
1.925046210E1,-9.785773158E-1,1.085780978E0,-7.547017932E-1
1.925961460E1,-1.108993173E0,9.706363082E-1,-7.128587365E-1
1.926876710E1,-1.121668339E0,8.539644480E-1,-6.578825116E-1
1.927791960E1,-1.013701081E0,7.350019813E-1,-6.111527085E-1
1.928707210E1,-9.442171454E-1,6.140542030E-1,-5.983248949E-1
1.929622460E1,-9.350544214E-1,4.989095032E-1,-6.160394549E-1
1.930537710E1,-9.579612017E-1,3.800997138E-1,-6.453601122E-1
1.931452960E1,-9.776610136E-1,3.226800561E-1,-6.705575585E-1
1.932368210E1,-9.593356252E-1,2.864873707E-1,-6.861341596E-1
1.933283460E1,-8.941276670E-1,2.312056869E-1,-6.992673874E-1
1.934198710E1,-8.136485219E-1,1.992889196E-1,-7.090409398E-1
1.935113960E1,-7.321004272E-1,1.704263836E-1,-7.139277458E-1
1.936029210E1,-6.710157394E-1,1.550024897E-1,-7.053758502E-1
1.936943184E1,-6.368082762E-1,1.774511337E-1,-6.759024858E-1
1.937859710E1,-5.612159371E-1,1.885990947E-1,-6.296308041E-1
1.938774960E1,-3.697153032E-1,1.806580722E-1,-5.610632300E-1
1.939688934E1,-7.299624383E-2,9.788827598E-2,-4.540122151E-1
1.940605460E1,2.730487287E-1,-8.368607610E-2,-2.987042964E-1
1.941520710E1,5.954233408E-1,-3.005368412E-1,-1.215586066E-1
1.942434689E1,8.606837988E-1,-5.225798488E-1,1.664558798E-2
1.943351210E1,1.080894232E0,-6.473453641E-1,1.081199646E-1
1.944266460E1,1.295148849E0,-5.942016840E-1,1.907370538E-1
1.945180439E1,1.503905892E0,-3.898732662E-1,2.623589039E-1
1.946096965E1,1.688992620E0,-2.657185495E-2,3.329117596E-1
1.947012215E1,1.816965222E0,3.048127890E-1,4.118637741E-1
1.947926189E1,1.908744931E0,4.204156399E-1,5.015056133E-1
1.948842715E1,2.010298252E0,6.383354217E-2,6.649072170E-1
1.949757965E1,2.181641102E0,-5.088357925E-1,8.473978639E-1
1.950671939E1,2.416511774E0,-9.996515512E-1,9.921686649E-1
1.951588465E1,2.613357306E0,-1.262315869E0,1.073105931E0
1.952503715E1,2.697959661E0,-1.355622768E0,1.081199646E0
1.953418965E1,2.713536263E0,-1.562394619E0,1.033706307E0
1.954334215E1,2.717812061E0,-1.871941447E0,9.503256083E-1
1.955249465E1,2.748812675E0,-2.053057671E0,8.524373770E-1
1.956163439E1,2.781340361E0,-2.069703341E0,7.550072074E-1
1.957079965E1,2.748354435E0,-2.047712803E0,6.673506498E-1
1.957995215E1,2.641914368E0,-2.101772785E0,6.019899845E-1
1.958909189E1,2.553647041E0,-2.086959600E0,5.799994469E-1
1.959825715E1,2.526464224E0,-1.683036923E0,6.210789680E-1
1.960740965E1,2.524326324E0,-9.969027042E-1,7.151494026E-1
1.961654939E1,2.496380091E0,-3.306210935E-1,8.347227573E-1
1.962571465E1,2.418802500E0,1.747023165E-1,9.376505613E-1
1.963486715E1,2.313584089E0,4.657710493E-1,1.005607247E0
1.964401965E1,2.223331213E0,6.068767309E-1,1.061194420E0
1.965317220E1,2.163926363E0,6.714738607E-1,1.123500824E0
1.966232470E1,2.139339924E0,6.361974478E-1,1.184432864E0
1.967146444E1,2.119945526E0,5.222744346E-1,1.216807723E0
1.968062970E1,2.084058046E0,3.468085229E-1,1.177560806E0
1.968978220E1,2.036564827E0,1.275143623E-1,1.060125470E0
1.969892194E1,1.980824947E0,-6.291726977E-2,9.072608948E-1
1.970808720E1,1.934705973E0,-2.153236568E-1,7.788302302E-1
1.971723970E1,1.912257314E0,-4.188885093E-1,6.804838181E-1
1.972639220E1,1.904621720E0,-6.386408210E-1,6.079457402E-1
1.973554470E1,1.885380030E0,-8.105943203E-1,5.541911721E-1
1.974469720E1,1.832236409E0,-9.078717232E-1,5.141806602E-1
1.975383694E1,1.735722542E0,-9.243646264E-1,4.847072959E-1
1.976300220E1,1.610193372E0,-8.729007244E-1,4.642439187E-1
1.977215470E1,1.483747959E0,-7.850914598E-1,4.596625566E-1
1.978129444E1,1.367992401E0,-6.551336646E-1,4.428642690E-1
1.979045970E1,1.228719234E0,-5.126535892E-1,4.162923992E-1
1.979961220E1,1.056613088E0,-4.117110670E-1,3.898732662E-1
1.980876470E1,8.686248064E-1,-3.434488773E-1,3.720059693E-1
1.981791720E1,6.775823236E-1,-2.666348219E-1,3.523061574E-1
1.982706970E1,4.879142344E-1,-1.236965731E-1,3.214583695E-1
1.983622226E1,3.008422852E-1,5.497625470E-2,2.987042964E-1
1.984540137E1,1.467560530E-1,1.317902952E-1,2.913741469E-1
1.985452726E1,3.252761811E-2,5.818320066E-2,3.151971996E-1
1.986370632E1,-7.742489129E-2,-7.269082218E-2,3.516952991E-1
1.987283226E1,-1.916533262E-1,-1.806580722E-1,3.717005551E-1
1.988198476E1,-3.046600819E-1,-2.325800955E-1,3.642176688E-1
1.989113726E1,-4.242334068E-1,-2.203631550E-1,3.235963285E-1
1.990028976E1,-5.616740584E-1,-1.731752008E-1,2.451024652E-1
1.990944226E1,-7.394306064E-1,-1.046075895E-1,1.491994411E-1
1.991858200E1,-9.498674870E-1,-2.412846684E-2,2.733541466E-2
1.992774726E1,-1.148392797E0,2.061609551E-2,-1.745496094E-1
1.993689976E1,-1.228719234E0,2.202104330E-1,-4.321744442E-1
1.994603950E1,-9.274188280E-1,7.902836204E-1,-6.893411279E-1
1.995520476E1,-3.987305462E-1,1.288276911E0,-8.423583508E-1
1.996435726E1,-4.343124032E-1,1.114796281E0,-8.015843034E-1
1.997349705E1,-1.164122105E0,2.783936262E-1,-6.772769094E-1
1.998266226E1,-2.077491522E0,-5.757235289E-1,-4.949389994E-1
1.999181476E1,-2.366422176E0,-2.651077211E-1,-1.614163816E-1
2.000095455E1,-1.891793966E0,8.451071978E-1,3.199312389E-1
2.001011981E1,-1.530783176E0,1.507112861E0,5.821374655E-1
2.001927231E1,-1.448166132E0,5.442649126E-1,2.457133085E-1
2.002841205E1,-1.181225896E0,-7.040014863E-1,-2.339545041E-1
2.003757731E1,-9.538379908E-1,-9.652913809E-1,-4.251496792E-1
2.004672981E1,-1.167634487E0,-7.624900937E-1,-4.030064642E-1
2.005586955E1,-1.397160411E0,-4.251496792E-1,-3.370349705E-1
2.006503481E1,-1.290720224E0,-2.927485406E-1,-2.869454920E-1
2.007418731E1,-1.149309158E0,-2.761029601E-1,-2.451024652E-1
2.008332705E1,-1.285680771E0,-1.440072358E-1,-1.667613089E-1
2.009249231E1,-1.523453116E0,7.757759839E-2,-7.146912813E-2
2.010164481E1,-1.576138616E0,2.325800955E-1,-4.443913698E-2
2.011079731E1,-1.478097677E0,2.524326444E-1,-8.399149776E-2
2.011994981E1,-1.396396875E0,3.138227761E-1,-1.391204596E-1
2.012910231E1,-1.355164647E0,4.124746025E-1,-2.060082406E-1
2.013824210E1,-1.285222650E0,4.098785222E-1,-2.831276953E-1
2.014740736E1,-1.173743010E0,3.116848171E-1,-3.304683566E-1
2.015655986E1,-1.095401883E0,2.243336588E-1,-3.286358118E-1
2.016571236E1,-1.114643574E0,1.690519750E-1,-3.013004065E-1
2.017486486E1,-1.176186442E0,6.245913357E-2,-2.643441558E-1
2.018401736E1,-1.209172130E0,1.007897966E-2,-2.139492482E-1
2.019316986E1,-1.241699815E0,9.956810623E-2,-1.440072358E-1
2.020232236E1,-1.263842940E0,1.377460510E-1,-8.429691941E-2
2.021147486E1,-1.249640822E0,4.566083103E-2,-6.154286116E-2
2.022062736E1,-1.196038961E0,-8.521319181E-2,-8.429691941E-2
2.022977986E1,-1.142589808E0,-1.725643575E-1,-1.235438585E-1
2.023893236E1,-1.110214949E0,-2.553341687E-1,-1.702736765E-1
2.024807210E1,-1.114796281E0,-2.747285664E-1,-2.215848416E-1
2.025723736E1,-1.107924223E0,-1.966928244E-1,-2.747285664E-1
2.026638986E1,-1.092653036E0,-2.504473738E-2,-3.119902313E-1
2.027554236E1,-1.115101695E0,1.658450365E-1,-3.428380191E-1
2.028469491E1,-1.166565537E0,3.530697227E-1,-3.775036037E-1
2.029384741E1,-1.193290114E0,5.276193023E-1,-4.034646153E-1
2.030299991E1,-1.211310148E0,6.949914694E-1,-4.178195298E-1
2.031215241E1,-1.228261113E0,8.625163436E-1,-4.173613787E-1
2.032130491E1,-1.218945742E0,1.062110662E0,-4.095730782E-1
2.033045741E1,-1.185196400E0,1.217113137E0,-3.941491842E-1
2.033960991E1,-1.172368646E0,1.356997132E0,-3.746020794E-1
2.034876241E1,-1.189625025E0,1.482373595E0,-3.504736125E-1
2.035791491E1,-1.222458124E0,1.568044901E0,-3.239017725E-1
2.036706741E1,-1.220930934E0,1.596907496E0,-3.141281903E-1
2.037621991E1,-1.170688748E0,1.563158154E0,-3.252761662E-1
2.038537241E1,-1.122737288E0,1.513221383E0,-3.457395434E-1
2.039452496E1,-1.100288630E0,1.490925431E0,-3.710896969E-1
2.040367746E1,-1.061041713E0,1.404643297E0,-4.056025743E-1
2.041282996E1,-1.020573020E0,1.293010950E0,-4.425588250E-1
2.042198246E1,-9.907942414E-1,1.214669824E0,-4.764608741E-1
2.043113496E1,-9.507837296E-1,1.109756708E0,-5.120427012E-1
2.044028746E1,-8.974873424E-1,1.027139664E0,-5.514423847E-1
2.044943996E1,-8.368607163E-1,1.027597785E0,-5.954233408E-1
2.045859246E1,-8.208259940E-1,1.107007980E0,-6.369609833E-1
2.046774496E1,-8.345700502E-1,1.151447058E0,-6.713211536E-1
2.047689746E1,-8.342646360E-1,1.126096964E0,-6.969767213E-1
2.048604996E1,-8.435800672E-1,1.123653531E0,-6.884248853E-1
2.049520252E1,-8.419002295E-1,1.125638843E0,-6.513158679E-1
2.050435502E1,-8.576295376E-1,1.135412335E0,-6.073349118E-1
2.051350752E1,-9.225320816E-1,1.151752472E0,-5.693096519E-1
2.052266002E1,-1.003927469E0,1.129456639E0,-5.289937258E-1
2.053181252E1,-1.018587828E0,1.036149621E0,-4.862344265E-1
2.054096502E1,-9.462023973E-1,8.437327743E-1,-4.514161348E-1
2.055011752E1,-8.744278550E-1,6.575770974E-1,-4.428642690E-1
2.055927002E1,-8.787037730E-1,4.622586668E-1,-4.677563012E-1
2.056842252E1,-9.239065051E-1,2.240282297E-1,-5.131117105E-1
2.057757502E1,-9.367342591E-1,2.000524849E-2,-5.526640415E-1
2.058672752E1,-8.887827396E-1,-9.498675168E-2,-5.749599934E-1
2.059588002E1,-8.264763355E-1,-1.491994411E-1,-5.873296261E-1
2.060503257E1,-7.696675658E-1,-1.647760421E-1,-6.009209752E-1
2.061418507E1,-7.166765332E-1,-1.588202864E-1,-6.096255779E-1
2.062333757E1,-6.733064055E-1,-1.068982705E-1,-6.033644080E-1
2.063249007E1,-6.444438696E-1,-4.764608666E-2,-5.751127005E-1
2.064164257E1,-5.847335458E-1,3.970507067E-3,-5.263976455E-1
2.065079507E1,-4.069769979E-1,8.154810965E-2,-4.581354558E-1
2.065993481E1,-1.331647038E-1,1.600419879E-1,-3.640649617E-1
2.066910007E1,1.495048702E-1,1.488940120E-1,-2.441861928E-1
2.067825257E1,4.314108789E-1,-2.183778957E-2,-1.113269106E-1
2.068740512E1,7.211052179E-1,-2.637332976E-1,-7.788302377E-3
2.069655762E1,9.814788103E-1,-4.662291706E-1,5.909947306E-2
2.070571012E1,1.165191174E0,-6.380299330E-1,1.203369126E-1
2.071484986E1,1.276365399E0,-7.840224504E-1,2.035648525E-1
2.072401512E1,1.350888729E0,-8.310576677E-1,3.153499067E-1
2.073316762E1,1.403574347E0,-6.991146803E-1,4.352286756E-1
2.074230736E1,1.436865449E0,-3.358132839E-1,5.457920432E-1
2.075147262E1,1.455801725E0,1.995943487E-1,6.322268844E-1
2.076062517E1,1.483442545E0,7.339329720E-1,7.169819474E-1
2.076976491E1,1.508029222E0,9.758284688E-1,7.864658237E-1
2.077893017E1,1.527881742E0,7.875348330E-1,8.619054556E-1
2.078808267E1,1.555980682E0,1.110214889E-1,1.035386086E0
2.079722241E1,1.629740477E0,-8.041804433E-1,1.234980464E0
2.080638767E1,1.836970448E0,-1.619966984E0,1.344627500E0
2.081554017E1,2.141172409E0,-2.173089027E0,1.362342119E0
2.082467996E1,2.402920485E0,-2.466906548E0,1.323553324E0
2.083384517E1,2.549371004E0,-2.624199867E0,1.254527569E0
2.084299772E1,2.608317852E0,-2.689560413E0,1.175422788E0
2.085213746E1,2.646342993E0,-2.635653257E0,1.078603506E0
2.086130272E1,2.687575340E0,-2.498670816E0,9.671239257E-1
2.087045522E1,2.701777458E0,-2.365811348E0,8.406785131E-1
2.087959496E1,2.645884991E0,-2.200119019E0,7.162184119E-1
2.088876023E1,2.527533293E0,-1.934858680E0,6.291726828E-1
2.089791272E1,2.393299580E0,-1.605612040E0,6.151232123E-1
2.090705252E1,2.274795294E0,-1.257887244E0,6.739172339E-1
2.091621778E1,2.194163322E0,-8.979454637E-1,7.585195899E-1
2.092537028E1,2.161483049E0,-5.065450668E-1,8.281561732E-1
2.093452278E1,2.154916525E0,-1.502684206E-1,8.767185211E-1
2.094367528E1,2.153389215E0,9.391776472E-2,9.064973593E-1
2.095282778E1,2.141019583E0,2.959555089E-1,9.245173335E-1
2.096198028E1,2.111240864E0,4.446968138E-1,9.407047629E-1
2.097113278E1,2.047254562E0,5.561764240E-1,9.646805525E-1
2.098028533E1,1.951809645E0,6.067240238E-1,9.950701594E-1
2.098942507E1,1.837733984E0,5.940489769E-1,1.014464617E0
2.099859033E1,1.725032687E0,5.305208564E-1,1.005759954E0
2.100774283E1,1.647149682E0,4.175141156E-1,9.710944295E-1
2.101688257E1,1.610193372E0,2.431172132E-1,9.306257963E-1
2.102604783E1,1.606222868E0,-9.926267900E-3,9.087880254E-1
2.103520033E1,1.617981672E0,-2.794626355E-1,8.791618943E-1
2.104435288E1,1.626533508E0,-5.219689608E-1,8.214368224E-1
2.105350538E1,1.608971715E0,-7.350019813E-1,7.499676943E-1
2.106265788E1,1.573848009E0,-9.547542930E-1,6.430694461E-1
2.107179762E1,1.518260837E0,-1.155417562E0,5.089884996E-1
2.108096288E1,1.431673288E0,-1.280183196E0,3.859027624E-1
2.109011538E1,1.328898191E0,-1.382652760E0,2.863346636E-1
2.109926788E1,1.223527074E0,-1.421746969E0,1.957765520E-1
2.110842043E1,1.111436605E0,-1.394411564E0,1.125486046E-1
2.111757293E1,9.856020808E-1,-1.355011940E0,5.115845799E-2
2.112672543E1,8.341119289E-1,-1.339893460E0,5.497625098E-3
2.113587793E1,6.664343476E-1,-1.333021402E0,-3.115320951E-2
2.114503043E1,5.160132051E-1,-1.318971992E0,-5.482354015E-2
2.115418293E1,3.860554695E-1,-1.253611326E0,-7.773031294E-2
2.116333543E1,2.564031482E-1,-1.064706802E0,-1.154501289E-1
2.117248798E1,1.058292910E-1,-7.379034758E-1,-1.663031727E-1
2.118164049E1,-9.223793447E-2,-3.520007432E-1,-2.064663768E-1
2.119079298E1,-3.080197275E-1,6.108472589E-3,-2.124221325E-1
2.119994548E1,-4.892886579E-1,2.680092454E-1,-1.876828223E-1
2.120909798E1,-5.880932212E-1,4.198047817E-1,-1.560714692E-1
2.121825049E1,-6.177192926E-1,4.868452549E-1,-1.221694499E-1
2.122740304E1,-6.355865598E-1,4.605788291E-1,-7.391251624E-2
2.123654278E1,-6.940752268E-1,3.581092060E-1,-3.894151375E-2
2.124570804E1,-8.083036542E-1,2.567085624E-1,-4.398100078E-2
2.125486054E1,-9.507837296E-1,1.901262105E-1,-6.383354217E-2
2.126401304E1,-1.080588818E0,1.145338640E-1,-7.314895838E-2
2.127316554E1,-1.196344376E0,1.313321572E-2,-6.352811307E-2
2.128231809E1,-1.286902428E0,-7.375980914E-2,-4.947862774E-2
2.129147059E1,-1.355928183E0,-1.400367320E-1,-3.894151375E-2
2.130062309E1,-1.438850760E0,-1.023169160E-1,-3.527642787E-2
2.130977559E1,-1.582094431E0,5.955760833E-3,-6.688777357E-2
2.131891533E1,-1.749466538E0,1.786728203E-2,-1.591257155E-1
2.132808059E1,-1.598129153E0,-3.359659761E-2,-2.892361879E-1
2.133723314E1,-6.868977547E-1,2.628170252E-1,-3.790307343E-1
2.134637288E1,3.249707520E-1,5.867187977E-1,-4.233171642E-1
2.135553814E1,-4.214845970E-2,4.608842432E-1,-3.678827584E-1
2.136469064E1,-8.602256775E-1,6.218425035E-1,-3.541387022E-1
2.137383038E1,-1.570793748E0,1.206117868E0,-5.887040496E-1
2.138299564E1,-2.065274477E0,-1.769929975E-1,-8.762603998E-1
2.139214819E1,-1.644553542E0,-5.818319917E-1,-8.437327743E-1
2.140128793E1,-1.014464617E0,2.017323077E-1,-4.789042473E-1
2.141045319E1,-1.302173615E0,5.236487985E-1,-1.496575773E-1
2.141960569E1,-1.804748178E0,6.563553810E-1,-7.925742865E-2
2.142874543E1,-1.726865172E0,1.223679781E0,-7.788302377E-3
2.143791069E1,-1.558882236E0,1.519482613E0,3.909422457E-2
2.144706325E1,-1.620730519E0,1.162900448E0,-5.512896553E-2
2.145620298E1,-1.672805190E0,5.004366040E-1,-2.090624720E-1
2.146536825E1,-1.619050622E0,-1.959292591E-1,-3.559712470E-1
2.147452075E1,-1.458550572E0,-7.475243211E-1,-4.685198367E-1
2.148366054E1,-1.335464835E0,-1.046381354E0,-5.108210444E-1
2.149282580E1,-1.254069448E0,-1.202300072E0,-4.741701782E-1
2.150197830E1,-1.168398142E0,-1.159693480E0,-4.118637741E-1
2.151111804E1,-1.203369141E0,-9.860602021E-1,-3.871244490E-1
2.152028330E1,-1.343558550E0,-6.675033569E-1,-3.897205591E-1
2.152943580E1,-1.465880752E0,-3.043546379E-1,-3.871244490E-1
2.153858830E1,-1.510167122E0,9.880454093E-2,-3.712424338E-1
2.154774085E1,-1.508792758E0,4.882196784E-1,-3.489464819E-1
2.155689335E1,-1.514137626E0,8.040276766E-1,-3.266505599E-1
2.156604585E1,-1.483137131E0,1.058903694E0,-3.222219348E-1
2.157519835E1,-1.437934399E0,1.174811959E0,-3.122956753E-1
2.158435085E1,-1.428313613E0,1.199093223E0,-2.805316150E-1
2.159349064E1,-1.428771734E0,1.156944752E0,-2.412846684E-1
2.160265590E1,-1.387997627E0,1.002400398E0,-2.195995897E-1
2.161180840E1,-1.340656996E0,8.588512540E-1,-2.234173864E-1
2.162096090E1,-1.339740753E0,7.653915882E-1,-2.392994165E-1
2.163011340E1,-1.345696568E0,6.804838181E-1,-2.533488870E-1
2.163926595E1,-1.340198874E0,6.236750484E-1,-2.660239935E-1
2.164841845E1,-1.329661727E0,6.230642200E-1,-2.848075330E-1
2.165757095E1,-1.322789788E0,6.259657145E-1,-3.019112647E-1
2.166672345E1,-1.301257372E0,6.267293096E-1,-2.968717813E-1
2.167587601E1,-1.263995647E0,6.563553810E-1,-2.721324563E-1
2.168502851E1,-1.250404358E0,7.178982496E-1,-2.476985604E-1
2.169418101E1,-1.223374367E0,7.945595980E-1,-2.304421216E-1
2.170333351E1,-1.188097954E0,8.296833038E-1,-2.235700935E-1
2.171248601E1,-1.163205862E0,8.157865405E-1,-2.264716178E-1
2.172163851E1,-1.144269586E0,8.440381885E-1,-2.367033064E-1
2.173079106E1,-1.121515512E0,9.158127308E-1,-2.463241518E-1
2.173994356E1,-1.086697221E0,9.382613897E-1,-2.441861928E-1
2.174909606E1,-1.045923233E0,8.641961813E-1,-2.402156889E-1
2.175824856E1,-1.012021184E0,7.220214605E-1,-2.429644912E-1
2.176740111E1,-9.859074950E-1,5.696150661E-1,-2.457133085E-1
2.177655361E1,-9.790354371E-1,4.767662883E-1,-2.547233105E-1
2.178570611E1,-9.513946176E-1,4.399627447E-1,-2.661767006E-1
2.179485861E1,-8.877137899E-1,4.069769979E-1,-2.724378705E-1
2.180401111E1,-8.089144826E-1,3.533751369E-1,-2.718270421E-1
2.181316366E1,-7.624900937E-1,2.721324563E-1,-2.689255178E-1
2.182231616E1,-7.333221436E-1,1.692046970E-1,-2.594573796E-1
2.183146866E1,-7.006418109E-1,8.490777016E-2,-2.501419485E-1
2.184062116E1,-6.810947061E-1,3.985778242E-2,-2.396048307E-1
2.184977371E1,-6.901046634E-1,5.497625098E-3,-2.267770469E-1
2.185892621E1,-7.044596076E-1,-5.604523420E-2,-2.202104330E-1
2.186807871E1,-6.974348426E-1,-1.403421611E-1,-2.223484069E-1
2.187723121E1,-6.404733658E-1,-2.391466945E-1,-2.324273884E-1
2.188638371E1,-5.760289431E-1,-3.439069986E-1,-2.373141646E-1
2.189553621E1,-5.477772951E-1,-4.071297050E-1,-2.370087355E-1
2.190468877E1,-5.636593103E-1,-4.300364852E-1,-2.304421216E-1
2.191384127E1,-6.511631608E-1,-4.326325655E-1,-2.261662036E-1
2.192299377E1,-7.505785823E-1,-4.049917459E-1,-2.299840003E-1
2.193214632E1,-7.847860456E-1,-3.086305857E-1,-2.315111160E-1
2.194129882E1,-7.673768401E-1,-1.771457046E-1,-2.309002578E-1
2.195045132E1,-7.266027927E-1,-4.642439261E-2,-2.373141646E-1
2.195960382E1,-6.806365848E-1,5.482354015E-2,-2.512109280E-1
2.196875632E1,-6.539120078E-1,1.223221645E-1,-2.681619525E-1
2.197790887E1,-6.710157394E-1,1.655396074E-1,-2.822114229E-1
2.198706137E1,-7.256865501E-1,2.322746664E-1,-3.011476994E-1
2.199621387E1,-7.991409302E-1,3.266505599E-1,-3.193204105E-1
2.200536637E1,-8.400676847E-1,4.182776511E-1,-3.240544796E-1
2.201451892E1,-8.209787011E-1,4.798205197E-1,-3.013004065E-1
2.202367142E1,-7.689039707E-1,4.813476503E-1,-2.466295809E-1
2.203281116E1,-7.288935184E-1,4.002576768E-1,-1.777565479E-1
2.204197642E1,-7.174401283E-1,2.451024652E-1,-1.091889441E-1
2.205112898E1,-7.252284288E-1,6.154286116E-2,-4.306473210E-2
2.206028148E1,-7.375980616E-1,-1.021642014E-1,2.107422985E-2
2.206943398E1,-7.485933304E-1,-2.141019702E-1,5.818320066E-2
2.207858648E1,-7.692093849E-1,-2.531961799E-1,5.741964281E-2
2.208773898E1,-7.982246280E-1,-2.228065431E-1,7.788302377E-3
2.209689153E1,-8.275453448E-1,-1.430909634E-1,-7.543963939E-2
2.210604403E1,-8.354863524E-1,-3.909422457E-2,-1.637070626E-1
2.211519653E1,-8.072346449E-1,8.475505561E-2,-2.403683960E-1
2.212434903E1,-7.408050299E-1,1.937913001E-1,-2.919849753E-1
2.213350158E1,-6.374191046E-1,2.841966748E-1,-3.205420971E-1
2.214264132E1,-4.960079789E-1,3.368822634E-1,-3.214583695E-1
2.215180658E1,-3.248180151E-1,3.396310806E-1,-2.947337925E-1
2.216095913E1,-1.183516532E-1,2.418955117E-1,-2.480039895E-1
2.217011163E1,8.903098851E-2,1.093416587E-1,-1.791309565E-1
2.217926413E1,2.362451702E-1,2.489202656E-2,-9.743013978E-2
2.218841663E1,2.860292196E-1,-1.221694518E-3,-1.527118124E-2
2.219756918E1,2.341072112E-1,4.734066129E-2,6.200099736E-2
2.220672168E1,1.241547018E-1,1.817270666E-1,1.214058921E-1
2.221587418E1,2.244863659E-2,3.726168275E-1,1.524063945E-1
2.222502668E1,-3.084778599E-2,5.538857579E-1,1.530172378E-1
2.223417918E1,-3.237490356E-2,6.623111367E-1,1.273616552E-1
2.224333174E1,-1.389677543E-2,6.791094542E-1,8.231166750E-2
2.225247148E1,2.290677279E-3,6.174138784E-1,2.687728032E-2
2.226163674E1,1.542389300E-2,4.888305068E-1,-2.916795574E-2
2.227078924E1,2.535016090E-2,3.049654961E-1,-7.345438004E-2
2.227994179E1,2.779355086E-2,9.987352788E-2,-1.032331884E-1
2.228909429E1,1.893626526E-2,-8.261708915E-2,-1.085781008E-1
2.229824679E1,3.054236295E-3,-2.327328026E-1,-9.330692142E-2
2.230739934E1,-9.773556143E-3,-3.405473530E-1,-6.536065787E-2
2.231655184E1,-2.229592577E-2,-4.078932703E-1,-3.542914242E-2
2.232570434E1,-4.245388508E-2,-4.271349311E-1,-1.481304597E-2
2.233485684E1,-5.512896553E-2,-3.927747905E-1,-5.803049076E-3
2.234400939E1,-5.833591148E-2,-3.150444627E-1,3.970507067E-3
2.235316189E1,-5.070032179E-2,-2.023431510E-1,3.970507067E-3
2.236231439E1,-3.695625812E-2,-8.124268800E-2,-3.970507067E-3
2.237146689E1,-3.405473381E-2,1.511846948E-2,-1.863084175E-2
2.238061944E1,-4.016320780E-2,8.078455180E-2,-2.977880463E-2
2.238977194E1,-3.649812192E-2,1.650814712E-1,-3.649812192E-2
2.239892444E1,7.345438004E-2,4.165978432E-1,-3.237490356E-2
2.240807694E1,7.864658535E-2,3.184041381E-1,-3.038965166E-2
2.241722950E1,-1.863084175E-2,2.422009408E-1,-4.321744293E-2
2.242638200E1,-6.108472496E-2,2.867927849E-1,-3.863608837E-2
2.243553450E1,-5.299099907E-2,3.544441164E-1,-2.275406010E-2
2.244468705E1,-2.947338112E-2,4.014793634E-1,-5.497625098E-3
2.245383955E1,-1.404948719E-2,3.961344361E-1,8.093725890E-3
2.246299205E1,-5.803049076E-3,3.582619131E-1,1.053711493E-2
2.247214460E1,3.970507067E-3,2.997733057E-1,5.803049076E-3
2.248129710E1,1.588202827E-2,2.208212912E-1,-3.206948051E-3
2.249044960E1,3.268032894E-2,1.328592747E-1,-1.282779220E-2
2.249960210E1,4.840964451E-2,4.123219103E-2,-2.183778957E-2
2.250875465E1,5.711421743E-2,-4.382828996E-2,-2.351761982E-2
2.251790715E1,5.711421743E-2,-1.087308154E-1,-1.679829881E-2
2.252705965E1,4.932591692E-2,-1.498102844E-1,-9.468132630E-3
2.253621220E1,4.016320780E-2,-1.672194302E-1,-3.359660041E-3
2.254536470E1,2.977880463E-2,-1.702736765E-1,1.374406274E-3
2.255451720E1,1.252236869E-2,-1.672194302E-1,1.832541777E-3
2.256366970E1,-9.009997360E-3,-1.637070626E-1,1.068982761E-3
2.257282226E1,-2.718270384E-2,-1.444653720E-1,2.901524538E-3
2.258197476E1,-3.787253052E-2,-1.094943732E-1,3.054236295E-4
2.259112726E1,-4.504998401E-2,-6.139015034E-2,-6.566607859E-3
2.260027981E1,-4.489727318E-2,-1.313321572E-2,-1.939439960E-2
2.260943231E1,-3.038965166E-2,2.229592577E-2,-3.451287001E-2
2.261858481E1,-2.748812549E-3,4.337015375E-2,-4.718795046E-2
2.262773731E1,3.038965166E-2,6.581879407E-2,-4.947862774E-2
2.263688986E1,5.482354015E-2,8.093725890E-2,-4.016320780E-2
2.264604236E1,6.032116711E-2,9.422318637E-2,-3.023693897E-2
2.265519486E1,4.413371533E-2,1.068982705E-1,-2.015795931E-2
2.266434741E1,1.496575773E-2,1.111742035E-1,-1.053711493E-2
2.267349991E1,-3.054236295E-4,9.895725548E-2,-1.985253533E-3
2.268265241E1,6.566607859E-3,7.910472155E-2,4.123218823E-3
2.269180496E1,2.458660305E-2,6.902574003E-2,7.330167107E-3
2.270095746E1,5.161659420E-2,6.734590977E-2,1.481304597E-2
2.271010996E1,7.269082218E-2,6.429167092E-2,1.557660475E-2
2.271926252E1,7.284353673E-2,4.428642616E-2,1.007897966E-2
2.272841502E1,5.726693198E-2,9.162708884E-4,5.192201585E-3
2.273756752E1,4.046862945E-2,-4.963133857E-2,1.527118147E-4
2.274672007E1,3.833066672E-2,-8.353336155E-2,-2.901524538E-3
2.275587257E1,5.008947477E-2,-9.788827598E-2,-9.162708884E-4
2.276502507E1,6.368082762E-2,-1.026223376E-1,5.344913341E-3
2.277417757E1,6.368082762E-2,-1.134648770E-1,1.206423342E-2
2.278333012E1,4.474456236E-2,-1.165191159E-1,1.786728203E-2
2.279248262E1,1.313321572E-2,-1.039967462E-1,1.893626526E-2
2.280163512E1,-6.261184346E-3,-7.024743408E-2,1.206423342E-2
2.281078767E1,-4.123218823E-3,-3.344388679E-2,4.123218823E-3
2.281994017E1,2.015795931E-2,7.482878864E-3,1.832541777E-3
2.282909267E1,4.688252881E-2,4.672981426E-2,2.596100792E-3
2.283824522E1,5.421269313E-2,6.719319522E-2,3.206948051E-3
2.284739772E1,3.573456407E-2,6.413896382E-2,-3.054236295E-3
2.285655023E1,1.252236869E-2,4.474456236E-2,-1.053711493E-2
2.286570278E1,5.955760833E-3,1.878355257E-2,-1.298050396E-2
2.287485528E1,1.420219894E-2,-1.068982761E-3,-1.282779220E-2
2.288400783E1,2.916795574E-2,-1.603474095E-2,-1.038440317E-2
2.289316033E1,4.337015375E-2,-3.222219273E-2,-3.512371797E-3
2.290231283E1,5.100574717E-2,-5.207473040E-2,9.162708884E-4
2.291146538E1,5.711421743E-2,-6.047387794E-2,5.192201585E-3
2.292061788E1,6.077930331E-2,-5.864133686E-2,9.468132630E-3
2.292977038E1,5.772506446E-2,-5.024218559E-2,1.252236869E-2
2.293892288E1,3.970507160E-2,-4.062134400E-2,1.298050396E-2
2.294807543E1,9.315420873E-3,-2.504473738E-2,9.620844387E-3
2.295722793E1,-1.221694518E-2,-1.603474095E-2,5.344913341E-3
2.296638049E1,-1.710372418E-2,-2.397575416E-2,-1.985253533E-3
2.297553298E1,-7.635590620E-3,-4.566083103E-2,-5.650337320E-3
2.298468548E1,3.665083554E-3,-6.856760383E-2,-5.497625098E-3
2.299383804E1,1.801999472E-2,-8.475505561E-2,-4.275931045E-3
2.300299054E1,2.596100792E-2,-9.254335612E-2,-4.734066315E-3
2.301214304E1,2.550287358E-2,-1.015533581E-1,-9.009997360E-3
2.302129559E1,2.367033064E-2,-1.058292910E-1,-1.084253844E-2
2.303044809E1,3.161134571E-2,-9.376505762E-2,-7.788302377E-3
2.303960059E1,4.062134400E-2,-6.474980712E-2,-1.068982761E-3
2.304875314E1,4.138490185E-2,-2.550287358E-2,7.482878864E-3