"Time (s)","Gyroscope x (rad/s)","Gyroscope y (rad/s)","Gyroscope z (rad/s)"
7.639126878E0,2.962609194E-2,-5.955760833E-3,-1.511846948E-2
7.648279117E0,3.573456407E-2,-4.734066315E-3,-1.695101149E-2
7.657431305E0,3.939964995E-2,-4.581354442E-4,-2.000524849E-2
7.666583544E0,4.245388508E-2,4.275931045E-3,-2.244863659E-2
7.675735732E0,3.573456407E-2,-5.344913341E-3,-2.244863659E-2
7.684887971E0,2.428117767E-2,-2.275406010E-2,-2.305948362E-2
7.694040211E0,1.023169141E-2,-3.909422457E-2,-2.137965336E-2
7.703192399E0,7.941014133E-3,-6.444438547E-2,-1.832541823E-2
7.712344638E0,1.756185852E-2,-9.269607067E-2,-1.756185852E-2
7.721496826E0,3.497100621E-2,-1.154501289E-1,-1.618745178E-2
7.730649065E0,5.665608495E-2,-1.276670843E-1,-1.786728203E-2
7.739801305E0,7.452336699E-2,-1.252236813E-1,-2.031067200E-2
7.748953492E0,8.368607610E-2,-1.166718230E-1,-2.260134928E-2
7.758105732E0,8.292251825E-2,-1.027750522E-1,-2.382304333E-2
7.767257919E0,7.727217674E-2,-8.964183182E-2,-2.397575416E-2
7.776410159E0,6.368082762E-2,-8.964183182E-2,-2.214321308E-2
7.785562346E0,4.642439261E-2,-9.513945878E-2,-2.412846684E-2
7.794714586E0,3.603998944E-2,-1.012479365E-1,-2.977880463E-2
7.803866826E0,3.848337755E-2,-1.017060652E-1,-2.962609194E-2
7.813019013E0,4.581354558E-2,-1.004843712E-1,-2.535016090E-2
7.822171253E0,5.070032179E-2,-9.575030953E-2,-2.229592577E-2
7.831323440E0,4.520269856E-2,-9.025268257E-2,-2.290677279E-2
7.840475680E0,3.603998944E-2,-9.391776472E-2,-2.550287358E-2
7.849627919E0,2.748812735E-2,-9.941539168E-2,-3.038965166E-2
7.858780107E0,2.626643144E-2,-1.084253863E-1,-3.588727489E-2
7.867932346E0,3.130592033E-2,-1.090362370E-1,-4.077405483E-2
7.877084534E0,4.230117425E-2,-1.006370857E-1,-4.184303805E-2
7.886236774E0,5.635065958E-2,-8.674030751E-2,-4.123219103E-2
7.895389013E0,6.536065787E-2,-7.345438004E-2,-3.497100621E-2
7.904541201E0,6.291726977E-2,-6.795676053E-2,-2.901524492E-2
7.913693440E0,5.176930502E-2,-7.101099193E-2,-2.351761982E-2
7.922845628E0,4.138490185E-2,-7.635590434E-2,-1.924168877E-2
7.931997867E0,3.405473381E-2,-8.551861346E-2,-1.634016447E-2
7.941150107E0,3.420744836E-2,-9.681928903E-2,-1.695101149E-2
7.950302294E0,4.474456236E-2,-1.029277667E-1,-1.679829881E-2
7.959454534E0,5.635065958E-2,-1.029277667E-1,-1.924168877E-2
7.968606721E0,6.612421572E-2,-9.681928903E-2,-2.275406010E-2
7.977758961E0,7.223268598E-2,-8.903098851E-2,-2.702999115E-2
7.986911201E0,7.345438004E-2,-8.185353130E-2,-2.947338112E-2
7.996063388E0,6.536065787E-2,-6.612421572E-2,-3.191677108E-2
8.005215628E0,5.467082933E-2,-4.688252881E-2,-3.206948191E-2
8.014367815E0,4.657710344E-2,-2.886253223E-2,-3.145863488E-2
8.023520055E0,4.092676565E-2,-1.740914769E-2,-3.344388679E-2
8.032672294E0,4.153761268E-2,-1.435491070E-2,-3.955236077E-2
8.041824482E0,4.886778072E-2,-5.344913341E-3,-4.245388508E-2
8.050976721E0,5.726693198E-2,1.221694518E-2,-4.306473210E-2
8.060128909E0,6.704048812E-2,2.779355086E-2,-4.062134400E-2
8.069281149E0,6.810946763E-2,3.985778242E-2,-3.817795217E-2
8.078433388E0,5.818320066E-2,4.703523964E-2,-3.695625812E-2
8.087585576E0,4.642439261E-2,5.497625470E-2,-3.405473381E-2
8.096737815E0,3.466558084E-2,6.337540597E-2,-2.977880463E-2
8.105890055E0,2.596100792E-2,6.627693027E-2,-2.687728032E-2
8.115042242E0,2.397575416E-2,7.482878864E-2,-2.748812735E-2
8.124194482E0,2.687728032E-2,9.529217333E-2,-2.504473738E-2
8.133346669E0,3.405473381E-2,1.212531775E-1,-2.504473738E-2
8.142498909E0,4.611896724E-2,1.453816444E-1,-2.367033064E-2
8.151651149E0,5.283828825E-2,1.531699449E-1,-2.122694254E-2
8.160803336E0,5.665608495E-2,1.435490996E-1,-2.000524849E-2
8.169955576E0,6.001574174E-2,1.230857223E-1,-1.572931744E-2
8.179107763E0,6.200099736E-2,9.544488788E-2,-1.191152167E-2
8.188260003E0,6.780404598E-2,5.986303091E-2,-8.857285604E-3
8.197412242E0,7.803573459E-2,1.771457121E-2,-9.926267900E-3
8.206564430E0,9.452861547E-2,-2.443389036E-2,-1.099525020E-2
8.215716669E0,1.090362370E-1,-6.001574174E-2,-1.389677543E-2
8.224868909E0,1.215586066E-1,-8.521319181E-2,-1.878355257E-2
8.234021096E0,1.291942000E-1,-1.009425074E-1,-2.596100792E-2
8.243173336E0,1.310267299E-1,-1.052184403E-1,-3.512371704E-2
8.252325524E0,1.243074164E-1,-1.070509851E-1,-4.367557913E-2
8.261477763E0,1.133121699E-1,-1.119377613E-1,-4.566083103E-2
8.270630003E0,1.059819981E-1,-1.185043678E-1,-4.443913698E-2
8.279782190E0,1.015533581E-1,-1.221694499E-1,-4.382828996E-2
8.288934430E0,1.017060652E-1,-1.233911440E-1,-4.199574888E-2
8.298086669E0,1.041494608E-1,-1.240019947E-1,-4.566083103E-2
8.307238857E0,1.065928489E-1,-1.192679256E-1,-5.176930502E-2
8.316391096E0,1.120904684E-1,-1.113269106E-1,-5.787777901E-2
8.325543284E0,1.218640283E-1,-1.029277667E-1,-6.383354217E-2
8.334695524E0,1.324011385E-1,-1.053711548E-1,-7.299624383E-2
8.343847763E0,1.319430023E-1,-1.204896197E-1,-7.849387079E-2
8.352999951E0,1.290414780E-1,-1.313321590E-1,-7.910472155E-2
8.362152190E0,1.308740228E-1,-1.362189353E-1,-7.543963939E-2
8.371304430E0,1.394258887E-1,-1.301104724E-1,-6.810946763E-2
8.380456617E0,1.565296054E-1,-1.125486046E-1,-6.062658876E-2
8.389608857E0,1.747023165E-1,-8.047912270E-2,-5.253286287E-2
8.398761044E0,1.860029846E-1,-3.710897267E-2,-5.192201585E-2
8.407913284E0,1.820324808E-1,-2.137965523E-3,-5.375456065E-2
8.417065524E0,1.634016484E-1,1.466033421E-2,-5.329642445E-2
8.426217711E0,1.333174109E-1,-1.068982761E-3,-5.467082933E-2
8.435369951E0,1.058292910E-1,-3.359659761E-2,-5.986303091E-2
8.444522190E0,8.964183182E-2,-6.627693027E-2,-6.902574003E-2
8.453674378E0,9.055810422E-2,-9.513945878E-2,-7.941014320E-2
8.462826617E0,1.061347127E-1,-1.174353883E-1,-8.842013776E-2
8.471978805E0,1.304158866E-1,-1.337755471E-1,-9.009996802E-2
8.481131044E0,1.513374150E-1,-1.421747059E-1,-8.872556686E-2
8.490283284E0,1.667613089E-1,-1.511846930E-1,-8.674030751E-2
8.499435471E0,1.823379099E-1,-1.583621502E-1,-8.475505561E-2
8.508587711E0,2.020377368E-1,-1.553079188E-1,-8.276980370E-2
8.517739951E0,2.301367074E-1,-1.455343664E-1,-7.956285775E-2
8.526892138E0,2.620534599E-1,-1.287360638E-1,-7.269082218E-2
8.536044378E0,3.000787199E-1,-1.128540337E-1,-6.505523622E-2
8.545196617E0,3.393256664E-1,-9.239064902E-2,-5.925218388E-2
8.554348805E0,3.811686933E-1,-7.543963939E-2,-5.222744122E-2
8.563501044E0,4.347705245E-1,-7.879929990E-2,-4.214845970E-2
8.572653284E0,4.999784827E-1,-8.231166750E-2,-2.519745007E-2
8.581805471E0,5.676298141E-1,-7.192726433E-2,-1.527118147E-3
8.590957711E0,6.390989423E-1,-7.956285775E-2,3.191677108E-2
8.600109951E0,7.223268747E-1,-1.001789495E-1,7.284353673E-2
8.609262138E0,8.110524416E-1,-1.119377613E-1,1.223221645E-1
8.618414378E0,9.075663090E-1,-1.200314835E-1,1.766875684E-1
8.627566565E0,1.014006495E0,-1.195733473E-1,2.299840003E-1
8.636718805E0,1.127776742E0,-1.084253863E-1,2.783936262E-1
8.645871044E0,1.249488115E0,-9.788827598E-2,3.190149665E-1
8.655023232E0,1.386317849E0,-9.575030953E-2,3.553603888E-1
8.664175471E0,1.543000221E0,-1.290414780E-1,3.930802047E-1
8.673327711E0,1.704416513E0,-2.250972092E-1,4.340069890E-1
8.682479899E0,1.860335350E0,-3.878880143E-1,4.840964675E-1
8.691632138E0,2.002357244E0,-5.821374655E-1,5.444176197E-1
8.700784378E0,2.124374151E0,-7.502731681E-1,6.145123243E-1
8.709936565E0,2.209434509E0,-8.446490765E-1,6.774296165E-1
8.719088805E0,2.256469727E0,-8.828269839E-1,7.180509567E-1
8.728241044E0,2.285637617E0,-8.562551737E-1,7.322531343E-1
8.737393232E0,2.290982723E0,-8.188407421E-1,7.346965671E-1
8.746532711E0,2.237686157E0,-7.815790772E-1,7.331694365E-1
8.755697711E0,2.117196560E0,-7.366818190E-1,7.023216486E-1
8.764849899E0,1.986017108E0,-7.180509567E-1,6.171084642E-1
8.774002138E0,1.885380030E0,-7.149966955E-1,4.967715442E-1
8.783154378E0,1.843078852E0,-6.829272509E-1,3.785725832E-1
8.792306565E0,1.861404300E0,-6.296308041E-1,3.109212518E-1
8.801458805E0,1.915616989E0,-6.145123243E-1,3.051182032E-1
8.810611044E0,1.974105597E0,-6.413896084E-1,3.489464819E-1
8.819763232E0,2.021140814E0,-6.885775924E-1,4.286620617E-1
8.828915471E0,2.049545288E0,-7.484406233E-1,5.144860744E-1
8.838067711E0,2.070008755E0,-7.776085734E-1,5.761816502E-1
8.847219899E0,2.085585356E0,-7.528692484E-1,6.026008129E-1
8.856372138E0,2.094289780E0,-6.841489077E-1,5.989357233E-1
8.865524326E0,2.080851078E0,-6.137487888E-1,5.755708218E-1
8.874676565E0,2.044200420E0,-5.682406425E-1,5.308262706E-1
8.883816044E0,1.994874477E0,-5.311316848E-1,4.833329022E-1
8.892980992E0,1.948297381E0,-4.921901822E-1,4.585935771E-1
8.902133232E0,1.911035657E0,-4.668400288E-1,4.607315361E-1
8.911285471E0,1.895459056E0,-4.474456310E-1,4.776825607E-1
8.920437711E0,1.899276853E0,-4.112529159E-1,5.021164417E-1
8.929589899E0,1.914853454E0,-3.767400384E-1,5.393781066E-1
8.938742138E0,1.928902984E0,-3.633013964E-1,5.682406425E-1
8.947894326E0,1.915616989E0,-3.303156495E-1,5.619794726E-1
8.957046565E0,1.875453830E0,-2.907632887E-1,5.299099684E-1
8.966198805E0,1.820630312E0,-2.823641598E-1,4.966188073E-1
8.975350992E0,1.763363361E0,-2.699944973E-1,4.662291706E-1
8.984503232E0,1.701209664E0,-2.044811249E-1,4.407263100E-1
8.993655471E0,1.633100152E0,-9.437590092E-2,4.187358022E-1
9.002807711E0,1.552010179E0,3.603998944E-2,3.729222417E-1
9.011959899E0,1.462673783E0,1.194206402E-1,3.289412558E-1
9.021112138E0,1.367228866E0,1.174353883E-1,3.061871827E-1
9.030264326E0,1.271783948E0,5.100574717E-2,2.994678617E-1
9.039416565E0,1.168856263E0,-1.618745178E-2,3.013004065E-1
9.048568805E0,1.055696726E0,-5.482354015E-2,3.109212518E-1
9.057721044E0,9.399412274E-1,-7.375980914E-2,3.064926267E-1
9.066873232E0,8.373188972E-1,-9.086353332E-2,2.831276953E-1
9.076025471E0,7.612683773E-1,-1.313321590E-1,2.551814318E-1
9.085177711E0,6.972821355E-1,-1.835595965E-1,2.266243398E-1
9.094329899E0,6.274928451E-1,-2.403683960E-1,1.944021434E-1
9.103482138E0,5.386145711E-1,-2.857238054E-1,1.589729935E-1
9.112634378E0,4.298837483E-1,-3.150444627E-1,1.319430023E-1
9.121786565E0,3.150444627E-1,-3.436015844E-1,1.152974218E-1
9.130938805E0,2.092151791E-1,-3.726168275E-1,1.114796251E-1
9.140091044E0,1.226275861E-1,-4.107947946E-1,1.140757278E-1
9.149243232E0,5.161659420E-2,-4.549284875E-1,1.215586066E-1
9.158395471E0,-1.801999472E-2,-4.772244096E-1,1.301104724E-1
9.167547711E0,-9.391776472E-2,-4.585935771E-1,1.363716573E-1
9.176699899E0,-1.812689304E-1,-4.274403751E-1,1.418692768E-1
9.185852138E0,-2.757975459E-1,-3.920112252E-1,1.429382563E-1
9.195004378E0,-3.712424338E-1,-3.338280320E-1,1.427855492E-1
9.204156617E0,-4.495835900E-1,-2.573194206E-1,1.427855492E-1
9.213308805E0,-5.054761171E-1,-2.092151791E-1,1.400367320E-1
9.222461044E0,-5.474718809E-1,-1.936385781E-1,1.421747059E-1
9.231613284E0,-5.827482939E-1,-1.815743446E-1,1.461452097E-1
9.240765471E0,-6.206207871E-1,-1.545443535E-1,1.495048702E-1
9.249917711E0,-6.412369013E-1,-1.238492802E-1,1.462979168E-1
9.259069951E0,-6.267293096E-1,-9.009996802E-2,1.415638477E-1
9.268222138E0,-5.674771070E-1,-8.582404256E-2,1.296523362E-1
9.277374378E0,-4.408790171E-1,-1.128540337E-1,1.140757278E-1
9.286526617E0,-2.742704153E-1,-1.330119967E-1,1.079672500E-1
9.295666096E0,-1.337755471E-1,-1.382041872E-1,1.243074164E-1
9.304831044E0,-6.230641901E-2,-1.542389393E-1,1.638597846E-1
9.313983284E0,-4.932591692E-2,-2.293731421E-1,1.841704547E-1
9.323122763E0,-5.635065958E-2,-3.277195692E-1,1.627907902E-1
9.332287711E0,-6.123743951E-2,-3.326063454E-1,1.304158866E-1
9.341439951E0,-4.779879749E-2,-2.147128135E-1,8.215895295E-2
9.350579430E0,-3.130592033E-2,-2.351761982E-2,-1.068982668E-2
9.359744378E0,-2.092151903E-2,2.635805905E-1,-1.409530044E-1
9.368896617E0,-1.710372418E-2,5.793886185E-1,-2.559449971E-1
9.378036096E0,-8.200624585E-2,7.569924593E-1,-2.912214398E-1
9.387201044E0,-2.661767006E-1,7.411104441E-1,-2.657185495E-1
9.396353284E0,-5.086830258E-1,5.485408306E-1,-2.593046725E-1
9.405505524E0,-7.724163532E-1,4.028537571E-1,-2.629697323E-1
9.414657763E0,-1.023016453E0,4.990622103E-1,-2.067717910E-1
9.423809951E0,-1.166718245E0,7.444701195E-1,-1.212531775E-1
9.432949430E0,-1.184127450E0,1.010341406E0,-8.063183725E-2
9.442114430E0,-1.131289124E0,1.116934180E0,-1.084253863E-1
9.451266617E0,-1.146865726E0,8.745805621E-1,-1.450762302E-1
9.460406096E0,-1.206728816E0,3.959817290E-1,-1.579040140E-1
9.469571096E0,-1.219098449E0,-2.596100792E-2,-1.508792788E-1
9.478723336E0,-1.184738278E0,-1.643179059E-1,-1.114796251E-1
9.487875524E0,-1.165954709E0,-2.218902707E-1,-5.344913527E-2
9.497027763E0,-1.196191669E0,-3.729222417E-1,1.068982668E-2
9.506180003E0,-1.212684512E0,-6.426113248E-1,9.865183383E-2
9.515332190E0,-1.237729311E0,-8.735115528E-1,2.244863659E-1
9.524484430E0,-1.276518106E0,-8.724426031E-1,3.622324169E-1
9.533636669E0,-1.224137902E0,-7.941014171E-1,4.747810364E-1
9.542788909E0,-1.128540277E0,-7.456917763E-1,5.370874405E-1
9.551941096E0,-1.063179612E0,-7.670714259E-1,5.566345453E-1
9.561093336E0,-1.012326598E0,-8.002098799E-1,5.471664071E-1
9.570245576E0,-9.520054460E-1,-7.627955079E-1,5.183038712E-1
9.579397763E0,-8.878664970E-1,-6.882721782E-1,4.686725736E-1
9.588550003E0,-8.532009125E-1,-5.938962698E-1,3.985778391E-1
9.597702242E0,-8.171609044E-1,-5.205945969E-1,3.084778786E-1
9.606854482E0,-7.802046537E-1,-4.039227366E-1,2.151709497E-1
9.616006669E0,-7.652388811E-1,-2.434226274E-1,1.229330078E-1
9.625158909E0,-7.637118101E-1,-3.038965166E-2,4.275930673E-2
9.634311149E0,-7.769976854E-1,1.855448484E-1,-2.351761982E-2
9.643463388E0,-7.545490861E-1,3.849864900E-1,-6.978929788E-2
9.652615576E0,-7.458444834E-1,6.006155610E-1,-8.154810965E-2
9.661767815E0,-7.675296068E-1,8.121214509E-1,-6.841489673E-2
9.670920055E0,-7.777612805E-1,9.243646264E-1,-5.451811850E-2
9.680072242E0,-7.876875401E-1,9.906415343E-1,-6.139015034E-2
9.689224482E0,-7.866185308E-1,1.028514028E0,-8.215895295E-2
9.698376721E0,-7.736380696E-1,1.022405624E0,-1.088835225E-1
9.707528961E0,-7.853968740E-1,1.042716265E0,-1.316375881E-1
9.716681149E0,-7.837170362E-1,1.014311910E0,-1.511846930E-1
9.725833388E0,-7.794411182E-1,1.035233378E0,-1.882936656E-1
9.734985628E0,-7.924215794E-1,1.047297597E0,-2.153236568E-1
9.744137867E0,-8.557969928E-1,1.037524104E0,-2.188360244E-1
9.753290055E0,-8.851176500E-1,1.000109673E0,-2.220429778E-1
9.762442294E0,-8.674030900E-1,9.542961121E-1,-2.371614426E-1
9.771594534E0,-8.362498879E-1,9.287932515E-1,-2.594573796E-1
9.780746774E0,-8.580876589E-1,9.698727131E-1,-2.767138183E-1
9.789898961E0,-8.990144730E-1,9.967499971E-1,-2.843494117E-1
9.799051201E0,-9.457442760E-1,1.050351858E0,-2.854183912E-1
9.808203440E0,-9.799517393E-1,1.165496588E0,-2.777827978E-1
9.817355680E0,-9.860602021E-1,1.284153700E0,-2.644968629E-1
9.826507867E0,-9.791881442E-1,1.331188917E0,-2.510582209E-1
9.835660107E0,-9.552124143E-1,1.351194143E0,-2.429644912E-1
9.844812346E0,-9.283351302E-1,1.310267329E0,-2.396048307E-1
9.853964586E0,-9.016105533E-1,1.205354333E0,-2.374668717E-1
9.863116774E0,-8.872556686E-1,1.120446563E0,-2.386885732E-1
9.872269013E0,-8.802309036E-1,1.028819442E0,-2.446443290E-1
9.881421253E0,-8.707627654E-1,9.246700406E-1,-2.438807636E-1
9.890573492E0,-8.820634484E-1,8.680139780E-1,-2.279987335E-1
9.899725680E0,-9.072608948E-1,8.487722874E-1,-1.933331639E-1
9.908877919E0,-9.162709117E-1,8.067765236E-1,-1.629435122E-1
9.918030159E0,-9.234483242E-1,7.687512636E-1,-1.531699449E-1
9.927182399E0,-9.460496902E-1,7.499676943E-1,-1.569877416E-1
9.936334586E0,-1.000262380E0,7.583668828E-1,-1.591257155E-1
9.945486826E0,-1.057529330E0,7.401941419E-1,-1.565296054E-1
9.954639065E0,-1.074480295E0,6.481089592E-1,-1.589729935E-1
9.963791305E0,-1.039509296E0,5.305208564E-1,-1.800472289E-1
9.972943544E0,-9.668185115E-1,4.188885093E-1,-2.209739983E-1
9.982095732E0,-9.017632604E-1,3.248180151E-1,-2.680092454E-1
9.991247971E0,-8.561024070E-1,2.102841735E-1,-3.151971996E-1
1.000040021E1,-8.454126120E-1,1.366770715E-1,-3.530697227E-1
1.000955240E1,-8.507575393E-1,1.232384369E-1,-3.860554695E-1
1.001870464E1,-8.486195803E-1,1.750077456E-1,-4.135435820E-1
1.002785688E1,-8.557969928E-1,2.302894145E-1,-4.312581718E-1
1.003700912E1,-8.600729704E-1,2.965663373E-1,-4.393518865E-1
1.004616136E1,-8.779402375E-1,3.706315756E-1,-4.456130862E-1
1.005531354E1,-9.069554806E-1,4.428642690E-1,-4.598152637E-1
1.006446578E1,-9.379559755E-1,5.541911721E-1,-4.839437306E-1
1.007361802E1,-9.677347541E-1,6.565080881E-1,-5.080721974E-1
1.008277026E1,-9.923213720E-1,7.256865501E-1,-5.248705149E-1
1.009192250E1,-9.936957955E-1,7.504258752E-1,-5.291464329E-1
1.010107469E1,-9.688037634E-1,7.111788988E-1,-5.257867575E-1
1.011022693E1,-9.451334476E-1,6.123743653E-1,-5.299099684E-1
1.011937917E1,-9.266552925E-1,4.894413650E-1,-5.480827093E-1
1.012853141E1,-9.135220647E-1,4.111002088E-1,-5.741963983E-1
1.013768360E1,-8.996253014E-1,3.761292100E-1,-5.819846988E-1
1.014683584E1,-8.675557971E-1,3.750602305E-1,-5.639647245E-1
1.015598808E1,-7.997517586E-1,3.348970115E-1,-5.238015056E-1
1.016514032E1,-6.930062175E-1,2.363978922E-1,-4.857762754E-1
1.017429256E1,-5.494571328E-1,9.819369763E-2,-4.480564594E-1
1.018344474E1,-3.481829464E-1,-1.050657257E-1,-4.060607255E-1
1.019259698E1,-4.963133857E-2,-3.646758199E-1,-3.616215885E-1
1.020174922E1,3.361186981E-1,-5.790832043E-1,-3.197785318E-1
1.021090146E1,7.470661998E-1,-6.294780970E-1,-2.922904193E-1
1.022005370E1,1.130983710E0,-5.022691488E-1,-2.751866877E-1
1.022919318E1,1.471836448E0,-3.045073450E-1,-2.470877171E-1
1.023835813E1,1.754353285E0,-1.304158866E-1,-2.122694254E-1
1.024751037E1,1.945243120E0,-5.818320066E-2,-1.615691036E-1
1.025664985E1,2.078560591E0,-4.688252881E-2,-7.635590434E-2
1.026581485E1,2.181335449E0,-9.315420687E-2,5.192201585E-2
1.027496703E1,2.246848822E0,-2.586938143E-1,2.199050188E-1
1.028410651E1,2.277085781E0,-5.688515306E-1,4.140017331E-1
1.029327151E1,2.287470341E0,-8.495358229E-1,6.047387719E-1
1.030242375E1,2.314347506E0,-1.030957460E0,7.553126216E-1
1.031156323E1,2.398644447E0,-1.128082156E0,8.359444737E-1
1.032072818E1,2.533794403E0,-1.221847177E0,8.472451568E-1
1.032988042E1,2.681313992E0,-1.374711752E0,8.160919547E-1
1.033903266E1,2.807606697E0,-1.545901656E0,7.572978735E-1
1.034818490E1,2.908549309E0,-1.647913218E0,6.859814525E-1
1.035733714E1,3.001856089E0,-1.640124917E0,6.255075932E-1
1.036647662E1,3.084473133E0,-1.561172843E0,6.022953987E-1
1.037564156E1,3.132730246E0,-1.456107140E0,6.184828281E-1
1.038479381E1,3.135937214E0,-1.326454878E0,6.421532035E-1
1.039393328E1,3.079739094E0,-1.201689243E0,6.728482842E-1
1.040309828E1,2.961540222E0,-1.075243831E0,7.067502737E-1
1.041225052E1,2.808828354E0,-9.197832346E-1,7.580614686E-1
1.042140276E1,2.674136639E0,-6.968240142E-1,8.101361990E-1
1.043055495E1,2.602209330E0,-4.474456310E-1,8.344173431E-1
1.043970719E1,2.596100807E0,-2.539597452E-1,8.567132950E-1
1.044885943E1,2.616564274E0,-1.349972486E-1,8.867974877E-1
1.045801167E1,2.633820772E0,-1.010952219E-1,9.222266674E-1
1.046716391E1,2.639318228E0,-2.214321308E-2,9.301676750E-1
1.047631615E1,2.624047041E0,2.794626169E-2,9.460496902E-1
1.048546834E1,2.577470064E0,5.375456065E-2,9.614735842E-1
1.049462058E1,2.497754335E0,8.261708915E-2,9.504783154E-1
1.050376006E1,2.396506548E0,1.351499557E-1,9.057337642E-1
1.051292506E1,2.290829897E0,1.843231618E-1,8.518264890E-1
1.052207729E1,2.199661016E0,1.840177327E-1,8.121214509E-1
1.053122953E1,2.120861769E0,1.259872466E-1,7.945595980E-1
1.054038172E1,2.038397312E0,4.627167806E-2,7.841751575E-1
1.054953396E1,1.951656938E0,-3.176405653E-2,7.537854910E-1
1.055868620E1,1.875148416E0,-1.291942000E-1,6.959077120E-1
1.056783844E1,1.806122661E0,-2.405211031E-1,6.106945276E-1
1.057699068E1,1.739082098E0,-3.434488773E-1,5.051707029E-1
1.058614292E1,1.662726283E0,-4.384356141E-1,4.081986845E-1
1.059529511E1,1.568044901E0,-5.041016936E-1,3.324536085E-1
1.060444735E1,1.455190897E0,-5.465555787E-1,2.848075330E-1
1.061359959E1,1.319888234E0,-5.734328628E-1,2.582356930E-1
1.062275183E1,1.170077920E0,-5.557183027E-1,2.307475507E-1
1.063190406E1,9.990406632E-1,-4.993676245E-1,2.093679011E-1
1.064105631E1,8.163973689E-1,-3.991886973E-1,1.837123185E-1
1.065020854E1,6.336013079E-1,-2.875563502E-1,1.634016484E-1
1.065936073E1,4.621059597E-1,-1.998997629E-1,1.430909634E-1
1.066851297E1,3.054236174E-1,-1.621799469E-1,1.175880954E-1
1.067766521E1,1.533226669E-1,-1.745496094E-1,1.030804738E-1
1.068681745E1,1.496575773E-2,-2.200577259E-1,1.052184403E-1
1.069596969E1,-1.009425074E-1,-2.852656841E-1,1.154501289E-1
1.070512193E1,-2.047865391E-1,-3.232909143E-1,1.189625040E-1
1.071427412E1,-3.158080280E-1,-3.168770075E-1,1.072036922E-1
1.072342636E1,-4.382829070E-1,-3.310792148E-1,8.750387281E-2
1.073257860E1,-5.702258945E-1,-3.717005551E-1,6.642963737E-2
1.074173084E1,-7.116370797E-1,-4.010212123E-1,2.932066843E-2
1.075087032E1,-8.759549856E-1,-3.972034156E-1,-2.428117767E-2
1.076003532E1,-1.075396657E0,-3.399364948E-1,-8.612946421E-2
1.076918756E1,-1.249793530E0,-2.941229641E-1,-1.630962193E-1
1.077833979E1,-1.288429618E0,-3.393256664E-1,-2.757975459E-1
1.078749198E1,-1.127318621E0,-3.110739589E-1,-3.875826001E-1
1.079664422E1,-8.536590338E-1,-1.832541777E-3,-4.579827189E-1
1.080578370E1,-6.134433746E-1,2.974826097E-1,-4.619532526E-1
1.081494870E1,-4.014793634E-1,1.264453828E-1,-3.816268146E-1
1.082410094E1,-1.579040140E-1,-2.275405973E-1,-2.458660156E-1
1.083324042E1,-4.718795046E-2,-2.034121305E-1,-8.643488586E-2
1.084240542E1,-2.652604282E-1,9.788827598E-2,-1.420219894E-2
1.085155761E1,-6.749862432E-1,4.506525695E-1,-7.299624383E-2
1.086070985E1,-9.031376839E-1,6.494833231E-1,-1.601946950E-1
1.086986209E1,-8.681666851E-1,7.458444834E-1,-2.052446753E-1
1.087901433E1,-9.177979827E-1,9.336800575E-1,-2.148655206E-1
1.088815380E1,-1.164274931E0,1.273769259E0,-2.009687424E-1
1.089731881E1,-1.316681266E0,1.406933904E0,-1.698155403E-1
1.090647104E1,-1.281862974E0,1.294996142E0,-1.414111406E-1
1.091562328E1,-1.258956194E0,1.080436110E0,-1.496575773E-1
1.092477547E1,-1.306754947E0,7.802046537E-1,-1.637070626E-1
1.093392771E1,-1.384027123E0,5.775560737E-1,-1.458397806E-1
1.094306719E1,-1.366465330E0,3.355078697E-1,-1.314848661E-1
1.095223219E1,-1.269798756E0,1.221694518E-3,-1.531699449E-1
1.096138443E1,-1.163969398E0,-2.941229641E-1,-2.082989216E-1
1.097052391E1,-1.103801012E0,-4.679090083E-1,-2.567085624E-1
1.097968891E1,-1.088682532E0,-5.092939138E-1,-2.412846684E-1
1.098884115E1,-1.067608237E0,-4.957025647E-1,-1.472141892E-1
1.099798063E1,-1.073258638E0,-4.054498672E-1,-1.893626526E-2
1.100714558E1,-1.125638843E0,-3.242071867E-1,1.003316641E-1
1.101629782E1,-1.189472318E0,-2.444916219E-1,1.901262105E-1
1.102545006E1,-1.240936160E0,-9.972081333E-2,2.476985604E-1
1.103460229E1,-1.261552334E0,5.039490014E-2,2.809897363E-1
1.104375453E1,-1.229788303E0,7.574506104E-2,2.890834510E-1
1.105290677E1,-1.162595034E0,-4.886778072E-2,2.719797492E-1
1.106205896E1,-1.084712029E0,-1.337755471E-1,2.493783981E-1
1.107121120E1,-1.007287145E0,-2.302894145E-1,2.243336588E-1
1.108036344E1,-9.265025854E-1,-3.657447994E-1,1.872246861E-1
1.108951568E1,-8.787037730E-1,-4.442386627E-1,1.491994411E-1
1.109866792E1,-8.634325862E-1,-4.912739098E-1,1.076618284E-1
1.110782016E1,-8.493831158E-1,-5.126535892E-1,6.322269142E-2
1.111697240E1,-8.528954983E-1,-5.163186193E-1,1.252236869E-2
1.112612464E1,-8.684720993E-1,-4.947862923E-1,3.054236295E-4
1.113527688E1,-8.716790676E-1,-4.133908749E-1,-5.955760833E-3
1.114442906E1,-8.440381885E-1,-3.081724346E-1,-5.772506446E-2
1.115358131E1,-8.160919547E-1,-1.655396074E-1,-1.133121699E-1
1.116273354E1,-8.011261821E-1,-3.542914242E-2,-1.357607991E-1
1.117188578E1,-8.057075143E-1,2.596100792E-3,-1.542389393E-1
1.118103802E1,-8.753440976E-1,-1.378987730E-1,-1.258345395E-1
1.119019026E1,-9.321529269E-1,2.382304333E-2,-1.918060333E-1
1.119934250E1,-8.512156606E-1,2.646495700E-1,-2.786990702E-1
1.120849474E1,-8.142594099E-1,3.249707520E-1,-2.728960216E-1
1.121764693E1,-8.029587269E-1,4.126273096E-1,-2.082989216E-1
1.122679917E1,-8.006680608E-1,4.176668227E-1,-1.476723254E-1
1.123595141E1,-8.318212628E-1,4.375193417E-1,-1.412584335E-1
1.124510365E1,-8.603783846E-1,4.862344265E-1,-1.786728203E-1
1.125425589E1,-8.660287261E-1,5.270084739E-1,-2.246390730E-1
1.126340813E1,-8.774821162E-1,5.847335458E-1,-2.564031482E-1
1.127256037E1,-8.968765140E-1,7.514948249E-1,-2.805316150E-1
1.128171261E1,-9.032903910E-1,8.640434742E-1,-3.032856584E-1
1.129086485E1,-8.909206986E-1,8.831323981E-1,-3.403946459E-1
1.130001703E1,-8.819107413E-1,9.254335761E-1,-3.629959822E-1
1.130916927E1,-8.579349518E-1,9.892671108E-1,-3.591781855E-1
1.131832151E1,-8.142594099E-1,1.058750987E0,-3.382566571E-1
1.132747375E1,-8.292251825E-1,1.145033240E0,-3.213056624E-1
1.133662599E1,-8.748859763E-1,1.207034230E0,-3.014531136E-1
1.134577823E1,-8.739697337E-1,1.243837714E0,-2.838912606E-1
1.135493047E1,-8.699992299E-1,1.287971497E0,-2.887780368E-1
1.136408271E1,-8.948912621E-1,1.320346355E0,-3.176405728E-1
1.137323495E1,-8.929060102E-1,1.314695954E0,-3.504736125E-1
1.138238719E1,-8.553388715E-1,1.271325827E0,-3.770454824E-1
1.139153938E1,-8.554915786E-1,1.224137902E0,-4.075878263E-1
1.140069162E1,-8.461761475E-1,1.105938911E0,-4.495835900E-1
1.140984386E1,-7.826480269E-1,9.684983492E-1,-4.631749392E-1
1.141899610E1,-7.082774043E-1,9.113841057E-1,-4.509579837E-1
1.142814834E1,-6.604785919E-1,8.561024070E-1,-4.388937652E-1
1.143730058E1,-6.444438696E-1,8.012788892E-1,-4.448495209E-1
1.144645282E1,-6.386408210E-1,7.125533223E-1,-4.802786708E-1
1.145560506E1,-6.824691296E-1,6.778877378E-1,-5.286883116E-1
1.146475729E1,-7.734853625E-1,7.366818190E-1,-5.483881235E-1
1.147390948E1,-7.887565494E-1,7.867712975E-1,-5.314370990E-1
1.148306172E1,-7.145385742E-1,8.104416132E-1,-5.106683373E-1
1.149221396E1,-6.983511448E-1,8.576295376E-1,-4.892886579E-1
1.150136620E1,-7.441646457E-1,8.058602214E-1,-4.731011987E-1
1.151051844E1,-7.771504521E-1,7.021689415E-1,-4.701996744E-1
1.151967068E1,-7.689039707E-1,5.900784731E-1,-4.627167881E-1
1.152882292E1,-7.313368917E-1,4.546230733E-1,-4.520269632E-1
1.153797516E1,-6.868977547E-1,3.142809272E-1,-4.540122151E-1
1.154712740E1,-6.784985662E-1,2.009687424E-1,-4.630222321E-1
1.155627964E1,-6.809419990E-1,1.267508119E-1,-4.782933891E-1
1.156543183E1,-7.204943299E-1,8.994726092E-2,-5.010474920E-1
1.157458407E1,-8.163973689E-1,4.581354558E-3,-5.425850749E-1
1.158373630E1,-8.974873424E-1,-8.490777016E-2,-5.833591223E-1
1.159288854E1,-9.567395449E-1,-5.925218388E-2,-6.094728708E-1
1.160204078E1,-1.010341406E0,2.076880634E-2,-6.227588058E-1
1.161119302E1,-1.047297597E0,1.527118087E-1,-6.187883019E-1
1.162034526E1,-1.059514523E0,3.341334462E-1,-5.928272605E-1
1.162948474E1,-1.046381354E0,4.970769584E-1,-5.500679612E-1
1.163864974E1,-9.956810474E-1,5.896202922E-1,-4.905103445E-1
1.164780198E1,-9.177979827E-1,5.436540842E-1,-4.253024161E-1
1.165694146E1,-8.286142945E-1,3.915531039E-1,-3.549022675E-1
1.166610641E1,-7.192726731E-1,2.038702667E-1,-2.977880239E-1
1.167525865E1,-5.775560737E-1,-1.618745178E-2,-2.692309320E-1
1.168441089E1,-3.846810758E-1,-2.310529798E-1,-2.499892414E-1
1.169356313E1,-1.056765765E-1,-4.311054647E-1,-2.093679011E-1
1.170271537E1,2.418955117E-1,-6.598677635E-1,-1.444653720E-1
1.171186761E1,5.799994469E-1,-9.458969831E-1,-6.795676053E-2
1.172101985E1,8.527427912E-1,-1.235591292E0,2.199050039E-2
1.173017209E1,1.084864736E0,-1.382958174E0,1.197260618E-1
1.173931157E1,1.302631736E0,-1.302173615E0,1.974563748E-1
1.174847656E1,1.501004457E0,-1.035996914E0,2.389939874E-1
1.175762881E1,1.661504507E0,-7.085828185E-1,2.289150059E-1
1.176676828E1,1.792378545E0,-3.578037918E-1,1.733279079E-1
1.177593323E1,1.881714940E0,-1.223221645E-1,1.128540337E-1
1.178508547E1,1.933484316E0,-1.270562261E-1,1.149920002E-1
1.179423771E1,1.984031916E0,-3.761292100E-1,2.058555335E-1
1.180338995E1,2.070008755E0,-6.952968836E-1,3.802524209E-1
1.181254219E1,2.191261768E0,-9.799517393E-1,5.668662786E-1
1.182169443E1,2.329771519E0,-1.141368151E0,6.870504618E-1
1.183084667E1,2.462325335E0,-1.169925213E0,7.386670709E-1
1.183999891E1,2.577775478E0,-1.125791550E0,7.351546884E-1
1.184915115E1,2.687117100E0,-1.065470338E0,7.004891038E-1
1.185830339E1,2.781187534E0,-1.085933685E0,6.461237073E-1
1.186745563E1,2.807148695E0,-1.149919987E0,6.048914790E-1
1.187659511E1,2.750645161E0,-1.140604496E0,5.708367825E-1
1.188576011E1,2.651229858E0,-1.037829518E0,5.311316848E-1
1.189491229E1,2.536237717E0,-9.283351302E-1,5.351021886E-1
1.190405177E1,2.459576607E0,-8.698465228E-1,5.888567567E-1
1.191321677E1,2.447359562E0,-7.611156702E-1,6.594096422E-1
1.192236901E1,2.478512764E0,-5.552601814E-1,7.194253802E-1
1.193152125E1,2.516232491E0,-3.098522723E-1,7.744016051E-1
1.194067349E1,2.517301559E0,-4.856235534E-2,8.359444737E-1
1.194982573E1,2.484010458E0,6.245913357E-2,9.052756429E-1
1.195897797E1,2.439723969E0,1.618745178E-2,9.605573416E-1
1.196813021E1,2.405363798E0,-7.895200700E-2,9.830059409E-1
1.197728245E1,2.396201134E0,-1.537808031E-1,9.713998437E-1
1.198642193E1,2.403683901E0,-2.021904439E-1,9.213103652E-1
1.199558688E1,2.397422791E0,-2.295258641E-1,8.388460279E-1
1.200473917E1,2.361688137E0,-2.498365343E-1,7.519529462E-1
1.201387865E1,2.307780981E0,-2.670929730E-1,6.850652099E-1
1.202304360E1,2.243336678E0,-2.698417902E-1,6.320741773E-1
1.203219584E1,2.179961205E0,-2.591519356E-1,5.943543911E-1
1.204134808E1,2.108033895E0,-2.750339806E-1,5.780141950E-1
1.205050032E1,2.024653196E0,-3.269560039E-1,5.780141950E-1
1.205965256E1,1.942036152E0,-3.982724249E-1,5.818319917E-1
1.206880479E1,1.874079347E0,-4.508052766E-1,5.807630420E-1
1.207795703E1,1.794211149E0,-4.069769979E-1,5.722111464E-1
1.208710927E1,1.686396599E0,-3.275668323E-1,5.702258945E-1
1.209624875E1,1.556286097E0,-2.554868758E-1,5.728220344E-1
1.210541375E1,1.424801230E0,-2.244863659E-1,5.505260825E-1
1.211456599E1,1.286749721E0,-2.176143378E-1,5.154023767E-1
1.212370547E1,1.135106921E0,-1.956238300E-1,4.862344265E-1
1.213287042E1,9.804098606E-1,-1.236965731E-1,4.569137394E-1
1.214202266E1,8.367080092E-1,-2.580829710E-2,4.283566475E-1
1.215117490E1,7.010999322E-1,4.993676394E-2,4.146125913E-1
1.216032714E1,5.624375939E-1,1.021642014E-1,4.190412164E-1
1.216947938E1,4.234698713E-1,1.272089481E-1,4.417952895E-1
1.217863162E1,2.831276953E-1,8.017370105E-2,4.818057716E-1
1.218778386E1,1.658450365E-1,-4.092676565E-2,5.244123936E-1
1.219693610E1,7.146912813E-2,-1.905843467E-1,5.366293192E-1
1.220608834E1,-1.007897966E-2,-2.944283783E-1,5.025745630E-1
1.221524058E1,-9.849911928E-2,-3.049654961E-1,4.469874799E-1
1.222439282E1,-2.194468826E-1,-2.589992285E-1,4.077405334E-1
1.223354506E1,-3.643703759E-1,-2.484621257E-1,3.865135908E-1
1.224269729E1,-5.057815313E-1,-2.770192325E-1,3.629959822E-1
1.225184953E1,-6.468872428E-1,-2.742704153E-1,3.399364948E-1
1.226098901E1,-7.947123051E-1,-2.041756958E-1,3.101576865E-1
1.227015401E1,-9.029849768E-1,-1.293469071E-1,2.634278834E-1
1.227930625E1,-9.388722181E-1,-6.581879407E-2,1.826433241E-1
1.228844573E1,-9.400939345E-1,2.428117767E-2,9.758284688E-2
1.229761068E1,-8.993198872E-1,1.128540337E-1,6.123743951E-2
1.230676292E1,-8.136485219E-1,8.475505561E-2,9.422318637E-2
1.231590245E1,-6.690304875E-1,-3.833066672E-2,1.307213157E-1
1.232506740E1,-4.599680007E-1,-4.947862774E-2,1.249182671E-1
1.233421964E1,-3.141281903E-1,1.325538605E-1,9.407047927E-2
1.234335912E1,-4.265241027E-1,3.159607351E-1,4.184303805E-2
1.235252412E1,-6.927008033E-1,3.226800561E-1,-8.857285604E-3
1.236167636E1,-8.863393664E-1,7.757759839E-2,-2.229592577E-2
1.237081584E1,-9.877400398E-1,-2.437280566E-1,-2.153236605E-2
1.237998084E1,-1.037829518E0,-1.887518018E-1,5.680879578E-2
1.238913308E1,-1.210393786E0,5.308262706E-1,1.527118087E-1
1.239827256E1,-1.422205091E0,1.203063726E0,1.501157135E-1
1.240743756E1,-1.457634330E0,1.088071704E0,2.672456764E-2
1.241658979E1,-1.370741248E0,5.935907960E-1,-1.030804738E-1
1.242572927E1,-1.290414810E0,4.465293586E-1,-1.261399537E-1
1.243489427E1,-1.301868200E0,5.931326747E-1,-8.124268800E-2
1.244404651E1,-1.390288353E0,4.989095032E-1,-7.986827940E-2
1.245318599E1,-1.412431598E0,1.965401024E-1,-1.860029846E-1
1.246235094E1,-1.254069448E0,-2.183778957E-2,-3.191677034E-1
1.247150318E1,-1.074785709E0,-1.253764033E-1,-3.825430870E-1
1.248064266E1,-1.031720996E0,-1.412584335E-1,-3.156553209E-1
1.248980766E1,-1.142131686E0,-4.581354442E-4,-1.644706279E-1
1.249895990E1,-1.256971002E0,1.620272398E-1,-2.015795931E-2
1.250809938E1,-1.305838704E0,2.182251811E-1,6.933116168E-2
1.251726438E1,-1.304006219E0,1.918060333E-1,1.017060652E-1
1.252641662E1,-1.286902428E0,2.147128135E-1,8.597674966E-2
1.253556886E1,-1.201078415E0,1.043021679E-1,8.399149403E-3
1.254472110E1,-1.070204377E0,-9.101624042E-2,-9.177979827E-2
1.255387334E1,-1.003316641E0,-2.202104330E-1,-1.682884246E-1
1.256302558E1,-1.025765300E0,-3.084778786E-1,-2.122694254E-1
1.257217782E1,-1.052184463E0,-3.652866483E-1,-2.441861928E-1
1.258133006E1,-1.035996914E0,-3.249707520E-1,-2.643441558E-1
1.259048229E1,-1.023474574E0,-1.893626451E-1,-2.728960216E-1
1.259963453E1,-1.022711039E0,-5.436540768E-2,-2.845021188E-1
1.260878677E1,-1.032179117E0,4.062134400E-2,-3.109212518E-1
1.261793901E1,-1.048213840E0,1.255291104E-1,-3.495573401E-1
1.262709120E1,-1.051115394E0,2.043284029E-1,-3.814741075E-1
1.263624349E1,-1.012479305E0,2.260134816E-1,-3.958290219E-1
1.264539568E1,-9.691091776E-1,2.032594234E-1,-3.973561525E-1
1.265454792E1,-9.885035753E-1,2.199050188E-1,-3.961344361E-1
1.266370016E1,-1.021794796E0,2.428117841E-1,-4.080459774E-1
1.267285240E1,-1.026070714E0,2.397575527E-1,-4.300364852E-1
1.268200464E1,-1.018282413E0,2.029540092E-1,-4.446968138E-1
1.269115688E1,-9.998042583E-1,2.047865391E-1,-4.475983381E-1
1.270030912E1,-9.544488192E-1,2.422009408E-1,-4.442386627E-1
1.270946136E1,-9.440644383E-1,3.258870244E-1,-4.454603493E-1
1.271861360E1,-9.695672989E-1,4.185830951E-1,-4.511106908E-1
1.272776584E1,-9.938485026E-1,5.060869455E-1,-4.514161348E-1
1.273691808E1,-1.028055906E0,6.771242023E-1,-4.443913698E-1
1.274607032E1,-1.059819937E0,8.620582223E-1,-4.472928941E-1
1.275522256E1,-1.066539288E0,9.223793745E-1,-4.509579837E-1
1.276437479E1,-1.107618809E0,1.050657272E0,-4.556920528E-1
1.277352703E1,-1.139993668E0,1.165649295E0,-4.688252807E-1
1.278267927E1,-1.129762053E0,1.191457629E0,-4.914266169E-1
1.279183151E1,-1.128845692E0,1.239561796E0,-5.103628635E-1
1.280098375E1,-1.132663488E0,1.261246920E0,-5.134171247E-1
1.281013599E1,-1.116934180E0,1.281252146E0,-4.912739098E-1
1.281928823E1,-1.105786204E0,1.329050899E0,-4.588989913E-1
1.282844047E1,-1.124722481E0,1.369366884E0,-4.468347728E-1
1.283759266E1,-1.142589808E0,1.364021897E0,-4.500417113E-1
1.284674490E1,-1.151447058E0,1.397007704E0,-4.514161348E-1
1.285589714E1,-1.138313890E0,1.441752195E0,-4.469874799E-1
1.286504938E1,-1.118308663E0,1.422968745E0,-4.480564594E-1
1.287420162E1,-1.113269091E0,1.401283622E0,-4.578300118E-1
1.288335386E1,-1.122431874E0,1.333174109E0,-4.724903405E-1
1.289250610E1,-1.144422293E0,1.254222155E0,-4.787515402E-1
1.290165834E1,-1.157708287E0,1.210088372E0,-4.763081372E-1
1.291081058E1,-1.122431874E0,1.123500824E0,-4.729484916E-1
1.291996282E1,-1.067150116E0,1.087460876E0,-4.712686539E-1
1.292911506E1,-1.035233378E0,1.086239100E0,-4.789042473E-1
1.293826729E1,-1.012021184E0,1.050046444E0,-5.013529062E-1
1.294741953E1,-1.042258143E0,9.969027042E-1,-5.161659122E-1
1.295657177E1,-1.096776247E0,1.035386086E0,-5.044071078E-1
1.296572401E1,-1.102579355E0,1.102426648E0,-4.605788291E-1
1.297487625E1,-1.031415582E0,1.049130201E0,-4.130854607E-1
1.298402849E1,-9.610154629E-1,1.019809484E0,-3.807105422E-1
1.299318073E1,-9.775083065E-1,9.993461370E-1,-3.784198761E-1
1.300233297E1,-1.039356589E0,8.918370008E-1,-4.037700295E-1
1.301148521E1,-1.068830013E0,7.554653287E-1,-4.289674759E-1
1.302063745E1,-1.072036982E0,6.390989423E-1,-4.526378214E-1
1.302978969E1,-1.045465112E0,5.117372870E-1,-4.957025647E-1
1.303894193E1,-1.008814216E0,3.759764731E-1,-5.570927262E-1
1.304809417E1,-9.952229261E-1,2.559449971E-1,-6.123743653E-1
1.305724641E1,-9.567395449E-1,1.786728203E-1,-6.456655264E-1
1.306639865E1,-9.075663090E-1,1.353026628E-1,-6.587987542E-1
1.307555089E1,-8.773293495E-1,6.245913357E-2,-6.664343476E-1
1.308470313E1,-8.681666851E-1,-4.428642802E-3,-6.760551929E-1
1.309385537E1,-8.915315866E-1,-1.298050396E-2,-6.829272509E-1
1.310300761E1,-9.388722181E-1,-1.557660475E-2,-6.942279339E-1
1.311215985E1,-9.628480077E-1,-4.123218823E-3,-7.061394453E-1
1.312131203E1,-9.582666159E-1,3.741439432E-2,-7.275190949E-1
1.313046433E1,-9.240592122E-1,7.956285775E-2,-7.577560544E-1
1.313960380E1,-8.666395545E-1,1.505738497E-1,-7.965448499E-1
1.314876875E1,-7.941014171E-1,2.583884001E-1,-8.211314082E-1
1.315792099E1,-7.120952010E-1,4.043808877E-1,-8.255600929E-1
1.316706052E1,-6.415423155E-1,5.515950918E-1,-7.939487100E-1
1.317622547E1,-5.612159371E-1,5.719057322E-1,-7.157602906E-1
1.318537771E1,-3.410054743E-1,4.257605374E-1,-5.945070982E-1
1.319452995E1,7.956285775E-2,2.040229887E-1,-4.515688419E-1
1.320368219E1,6.125270724E-1,-4.947862774E-2,-3.132119179E-1
1.321283443E1,1.121973753E0,-2.681619525E-1,-2.032594234E-1
1.322197391E1,1.533990145E0,-4.793623984E-1,-1.311794519E-1
1.323113891E1,1.840024710E0,-6.810947061E-1,-7.818844914E-2
1.324029115E1,2.050308943E0,-7.806627750E-1,-3.145863488E-2
1.324943063E1,2.213099718E0,-7.470661998E-1,1.236965694E-2
1.325859563E1,2.316943645E0,-5.804576278E-1,5.757235363E-2
1.326774787E1,2.389023542E0,-3.245126009E-1,1.232384369E-1
1.327688735E1,2.442778111E0,-1.143811494E-1,2.205158621E-1
1.328605235E1,2.406738281E0,6.734590977E-2,3.434488773E-1
1.329520459E1,2.295716763E0,-3.817795310E-3,5.179984570E-1
1.330434406E1,2.210503578E0,-4.297310412E-1,7.369872332E-1
1.331350907E1,2.250361204E0,-1.001942158E0,9.495620728E-1
1.332266130E1,2.427965164E0,-1.506043911E0,1.095860004E0
1.333180078E1,2.663752079E0,-1.850103617E0,1.155722976E0
1.334096578E1,2.888085842E0,-2.110782623E0,1.140451789E0
1.335011802E1,3.057443142E0,-2.332520247E0,1.067302823E0
1.335925750E1,3.161287308E0,-2.403378487E0,9.582666159E-1
1.336842250E1,3.221913815E0,-3.397837877E-1,8.325847983E-1
1.337757474E1,3.362866879E0,2.750034332E0,9.973608851E-1
1.338671422E1,3.159912825E0,-2.423383713E0,1.215891480E0
1.339587922E1,2.770192385E0,-3.172587872E0,1.210088372E0
1.340503146E1,2.559602737E0,-3.692877054E0,1.234522343E0
1.341417094E1,2.425827265E0,-2.587243557E0,1.245670319E0
1.342333594E1,2.520508528E0,-1.415791273E0,1.338824511E0
1.343248818E1,2.765916348E0,-8.593093753E-1,1.483747959E0
1.344164042E1,2.924125910E0,-5.960342288E-1,1.540251374E0
1.345079266E1,2.854794741E0,-5.044071078E-1,1.425412059E0
1.345994490E1,2.676427364E0,-1.495048702E-1,1.323247910E0
1.346909714E1,2.569376230E0,1.262926757E-1,1.303853512E0
1.347824938E1,2.530892849E0,1.437018216E-1,1.311030984E0
1.348740162E1,2.487217426E0,-5.192201585E-3,1.317597508E0
1.349654110E1,2.416664362E0,-1.663031727E-1,1.286597013E0
1.350570610E1,2.315416574E0,-2.602209449E-1,1.207797766E0
1.351485834E1,2.200882673E0,-2.812951505E-1,1.098303318E0
1.352399782E1,2.106048584E0,-3.174878657E-1,9.877400398E-1
1.353316282E1,2.046949148E0,-4.216373265E-1,8.903098702E-1
1.354231506E1,2.005564213E0,-5.816792846E-1,8.089144826E-1
1.355145453E1,1.957918167E0,-7.345438004E-1,7.348492742E-1
1.356061953E1,1.881256819E0,-8.125795722E-1,6.591041684E-1
1.356977177E1,1.776801944E0,-8.214368224E-1,5.955760479E-1
1.357891125E1,1.648982167E0,-7.627955079E-1,5.439594984E-1
1.358807625E1,1.508181930E0,-6.413896084E-1,5.074613690E-1
1.359722849E1,1.374559045E0,-5.224271417E-1,4.923428893E-1
1.360636797E1,1.250251651E0,-3.834593594E-1,4.779879749E-1
1.361553297E1,1.118766785E0,-2.137965411E-1,4.506525695E-1
1.362468521E1,9.695672989E-1,-5.222744122E-2,4.066715539E-1
1.363383745E1,7.945595980E-1,1.046075895E-1,3.565820754E-1
1.364298969E1,6.016845703E-1,2.506000996E-1,3.110739589E-1
1.365214193E1,4.225535989E-1,3.229855001E-1,2.608317733E-1
1.366129417E1,2.728960216E-1,3.202366829E-1,2.263189107E-1
1.367044641E1,1.608055383E-1,3.139754832E-1,2.108950168E-1
1.367959865E1,8.078455180E-2,3.119902313E-1,2.035648525E-1
1.368875089E1,7.635590620E-3,2.956500649E-1,2.012741715E-1
1.369790313E1,-6.887302548E-2,2.273878902E-1,2.116585821E-1
1.370705537E1,-1.542389393E-1,1.175880954E-1,2.160872221E-1
1.371620761E1,-2.574721277E-1,2.458660305E-2,2.014268786E-1
1.372535985E1,-3.788780272E-1,-3.833066672E-2,1.658450365E-1
1.373451209E1,-5.334223509E-1,-9.727742523E-2,1.256818175E-1
1.374366433E1,-7.056813240E-1,-1.911951900E-1,7.375980914E-2
1.375281657E1,-8.371661901E-1,-3.483356535E-1,-2.137965523E-3
1.376196880E1,-8.955020905E-1,-5.253286362E-1,-9.956810623E-2
1.377110828E1,-8.893936276E-1,-5.419742465E-1,-1.898207814E-1
1.378027328E1,-7.982246280E-1,-2.967190444E-1,-2.602209449E-1
1.378942552E1,-6.311579347E-1,-2.137965523E-3,-3.196258247E-1
1.379856500E1,-4.848600030E-1,1.169772521E-1,-3.126010895E-1
1.380773000E1,-3.573456407E-1,1.444653720E-1,-2.188360244E-1
1.381688224E1,-4.092676640E-1,4.902049154E-2,-1.240019947E-1
1.382602172E1,-9.353598356E-1,-2.843494117E-1,-9.330692142E-2
1.383518672E1,-1.619356036E0,-5.138752460E-1,-8.567132801E-2
1.384433896E1,-1.837733984E0,-1.595838517E-1,-3.130592033E-2
1.385347844E1,-1.674026966E0,4.495835900E-1,4.337015375E-2
1.386264344E1,-1.548497796E0,7.534800768E-1,4.092676565E-2
1.387179568E1,-1.580109119E0,7.149966955E-1,-1.052184403E-1
1.388093516E1,-1.477334142E0,7.062921524E-1,-2.021904439E-1
1.389010016E1,-1.234064221E0,9.500201941E-1,-8.460234851E-2
1.389925240E1,-1.374559045E0,1.342184186E0,9.422318637E-2
1.390839188E1,-1.698308110E0,1.327523828E0,1.634016484E-1
1.391755688E1,-1.558576822E0,6.198572516E-1,9.834641218E-2
1.392670912E1,-1.144116879E0,-5.299099907E-2,-1.847812906E-2
1.393584860E1,-1.035691500E0,-3.796415627E-1,-6.032116711E-2
1.394501360E1,-1.249946237E0,-2.336490750E-1,4.260659590E-2
1.395416584E1,-1.450914979E0,2.809897438E-2,2.168507725E-1
1.396330532E1,-1.449998736E0,1.192679256E-1,3.706315756E-1
1.397247032E1,-1.341115117E0,1.035386100E-1,4.850127101E-1
1.398162256E1,-1.287207842E0,-3.359659761E-2,5.270084739E-1
1.399077479E1,-1.271173120E0,-2.898470163E-1,4.888305068E-1
1.399992703E1,-1.243074179E0,-5.708367825E-1,4.159869850E-1
1.400907927E1,-1.196497083E0,-7.133168578E-1,3.431434333E-1
1.401823151E1,-1.136786699E0,-8.038749695E-1,2.776300907E-1
1.402738375E1,-1.075091124E0,-8.551861644E-1,2.292204350E-1
1.403653599E1,-1.019045949E0,-8.515210748E-1,2.137965411E-1
1.404567547E1,-9.965972900E-1,-7.508839965E-1,2.205158621E-1
1.405484047E1,-1.039356589E0,-5.894675851E-1,2.183778882E-1
1.406399271E1,-1.081199646E0,-4.382829070E-1,1.904316396E-1
1.407314495E1,-1.083032131E0,-2.884726226E-1,1.517955512E-1
1.408229719E1,-1.038440347E0,-2.078407854E-1,8.918370306E-2
1.409144943E1,-1.006523609E0,-1.533226669E-1,9.315420873E-3
1.410060167E1,-1.006370902E0,-6.551336497E-2,-5.848862603E-2
1.410975391E1,-1.003774762E0,2.031067200E-2,-1.214058921E-1
1.411890615E1,-9.743013978E-1,5.207473040E-2,-1.889045089E-1
1.412805839E1,-9.385668039E-1,1.615691036E-1,-2.553341687E-1
1.413721063E1,-9.297095537E-1,3.023693860E-1,-3.135173619E-1
1.414636287E1,-9.042066336E-1,3.750602305E-1,-3.681881726E-1
1.415551511E1,-8.629744649E-1,4.129327536E-1,-4.175141156E-1
1.416466735E1,-8.437327743E-1,5.508314967E-1,-4.766135812E-1
1.417381959E1,-8.658760190E-1,7.229377031E-1,-5.245651007E-1
1.418297183E1,-9.168817401E-1,8.564078808E-1,-5.732801557E-1
1.419212407E1,-9.426900148E-1,1.023627281E0,-6.279509664E-1
1.420127630E1,-9.588775039E-1,1.195886254E0,-6.714738607E-1
1.421042854E1,-9.849911928E-1,1.368145108E0,-6.888830066E-1
1.421958078E1,-9.994988441E-1,1.539793253E0,-6.843016148E-1
1.422873302E1,-1.026223421E0,1.639208674E0,-6.673506498E-1
1.423788526E1,-1.065012217E0,1.674790502E0,-6.383354068E-1
1.424703750E1,-1.127776742E0,1.714800954E0,-5.919110179E-1
1.425618974E1,-1.202300072E0,1.758782029E0,-5.331169367E-1
1.426534198E1,-1.198024154E0,1.809635043E0,-4.824166298E-1
1.427449422E1,-1.129609346E0,1.852088928E0,-4.491254389E-1
1.428364646E1,-1.072342396E0,1.847965717E0,-4.333961308E-1
1.429278594E1,-1.082421303E0,1.800930381E0,-4.272876680E-1
1.430195094E1,-1.120904684E0,1.707470775E0,-4.269822240E-1
1.431110318E1,-1.076923728E0,1.606375575E0,-4.326325655E-1
1.432025542E1,-9.837695360E-1,1.458855987E0,-4.416425824E-1
1.432940766E1,-9.628480077E-1,1.255749226E0,-4.431696832E-1
1.433855990E1,-1.057529330E0,1.082726717E0,-4.193466306E-1
1.434771214E1,-1.108993173E0,9.513946176E-1,-3.834593594E-1
1.435686438E1,-1.038440347E0,8.443436027E-1,-3.512371778E-1
1.436601662E1,-1.003622055E0,7.311841846E-1,-3.326063454E-1
1.437516886E1,-1.056307673E0,6.739172339E-1,-3.170297146E-1
1.438432110E1,-1.090820551E0,6.781931520E-1,-3.051182032E-1
1.439347334E1,-1.045312405E0,6.293253899E-1,-3.268032968E-1
1.440262558E1,-9.730796814E-1,5.737382770E-1,-3.842229247E-1
1.441177782E1,-9.616262913E-1,5.590779781E-1,-4.530959427E-1
1.442093011E1,-9.785773158E-1,5.599942207E-1,-5.100574493E-1
1.443008235E1,-9.390249252E-1,5.653391480E-1,-5.438067913E-1
1.443923459E1,-9.148964882E-1,5.671716928E-1,-5.748072863E-1
1.444838683E1,-9.035958052E-1,6.212316751E-1,-6.151232123E-1
1.445753906E1,-9.071081877E-1,7.029324770E-1,-6.629219651E-1
1.446669131E1,-9.080244303E-1,7.510367036E-1,-7.044596076E-1
1.447584354E1,-8.823688626E-1,7.968502641E-1,-7.317950130E-1
1.448499578E1,-8.501466513E-1,7.780666947E-1,-7.479824424E-1
1.449414802E1,-8.122741580E-1,7.582141757E-1,-7.611156702E-1
1.450330026E1,-7.670714259E-1,7.424848676E-1,-7.693621516E-1
1.451243974E1,-7.085828185E-1,6.769714952E-1,-7.774558663E-1
1.452160474E1,-6.476507783E-1,5.515950918E-1,-7.910472155E-1
1.453075698E1,-5.896202922E-1,3.480302393E-1,-8.014315963E-1
1.453989646E1,-5.074613690E-1,1.853921413E-1,-7.976137996E-1
1.454906146E1,-3.669664860E-1,9.788827598E-2,-7.594358325E-1
1.455821370E1,-1.881409585E-1,6.413896382E-2,-6.939224601E-1
1.456736594E1,-1.771457121E-2,5.803048983E-2,-6.248967648E-1
1.457651818E1,1.265980899E-1,8.857285231E-2,-5.696150661E-1
1.458567042E1,2.869454920E-1,1.383569092E-1,-5.270084739E-1
1.459482266E1,5.173876286E-1,1.817270666E-1,-4.778352678E-1
1.460397490E1,8.309049606E-1,1.669140160E-1,-3.851391971E-1
1.461312714E1,1.186876178E0,-1.527118147E-4,-2.524326444E-1
1.462227938E1,1.515206575E0,-2.418955117E-1,-1.168245375E-1
1.463143162E1,1.793142080E0,-3.555130959E-1,-2.382304333E-2
1.464058386E1,2.020835400E0,-3.231382072E-1,1.618745178E-2
1.464972334E1,2.186985970E0,-3.089359999E-1,4.184303805E-2
1.465888834E1,2.286401272E0,-3.405473530E-1,8.658760041E-2
1.466804058E1,2.298618317E0,-3.614688516E-1,1.324011385E-1
1.467718006E1,2.237686157E0,-4.727957845E-1,2.053973973E-1
1.468634506E1,2.178281307E0,-7.898254991E-1,3.449759781E-1
1.469549729E1,2.164231777E0,-1.248266339E0,5.320479870E-1
1.470463683E1,2.208976507E0,-1.643637300E0,6.859814525E-1
1.471380183E1,2.292815208E0,-1.893779159E0,7.734853625E-1
1.472295407E1,2.399866104E0,-2.084516287E0,8.104416132E-1
1.473210630E1,2.522035599E0,-2.248223305E0,8.113578558E-1
1.474125854E1,2.660239697E0,-2.336032629E0,8.038749695E-1
1.475041078E1,2.787143230E0,-2.314194918E0,7.875348330E-1
1.475955026E1,2.852351189E0,-2.208212852E0,7.501204610E-1
1.476871526E1,2.839676142E0,-2.011978149E0,7.003363967E-1
1.477786750E1,2.761487722E0,-1.672194362E0,6.794148684E-1
1.478700698E1,2.633057117E0,-1.177560806E0,7.246175408E-1
1.479617198E1,2.473931313E0,-6.697940230E-1,8.623636365E-1
1.480532422E1,2.369934559E0,-2.884726226E-1,1.054322362E0
1.481447646E1,2.372072697E0,-4.672981426E-2,1.237271070E0
1.482362870E1,2.443236351E0,1.244601309E-1,1.370283127E0
1.483278094E1,2.506764412E0,3.617742956E-1,1.466949701E0
1.484192042E1,2.519592285E0,6.235223413E-1,1.529256105E0
1.485108542E1,2.498212576E0,7.403468490E-1,1.513679504E0
1.486023766E1,2.478207350E0,6.719319820E-1,1.431673288E0
1.486937714E1,2.468891859E0,4.485146105E-1,1.323706031E0
1.487854214E1,2.466295719E0,1.756185889E-1,1.207950473E0
1.488769438E1,2.468281031E0,-6.887302548E-2,1.092042208E0
1.489683386E1,2.466143131E0,-3.217637837E-1,9.579612017E-1
1.490599886E1,2.478207350E0,-5.602996349E-1,8.189934492E-1
1.491515110E1,2.488744497E0,-7.270609736E-1,6.975875497E-1
1.492429063E1,2.476069450E0,-8.582404256E-1,6.041279435E-1
1.493345558E1,2.434684515E0,-9.497147799E-1,5.257867575E-1
1.494260782E1,2.372530699E0,-9.964445829E-1,4.595098495E-1
1.495174735E1,2.282125473E0,-9.930849075E-1,4.014793634E-1
1.496091235E1,2.143463135E0,-8.984035850E-1,3.490992188E-1
1.497006459E1,1.958987117E0,-7.331694365E-1,3.129065037E-1
1.497920407E1,1.753895164E0,-5.238015056E-1,2.892361879E-1
1.498836906E1,1.543000221E0,-2.892361879E-1,2.631224692E-1
1.499752131E1,1.316070437E0,-4.749337584E-2,2.302894145E-1
1.500666078E1,1.084712029E0,1.369825006E-1,1.844758689E-1
1.501582578E1,8.554915786E-1,2.255553454E-1,1.388150454E-1
1.502497802E1,6.313106418E-1,2.709107697E-1,1.030804738E-1
1.503413026E1,4.385883212E-1,2.644968629E-1,7.116370648E-2
1.504328250E1,2.718270421E-1,2.441861928E-1,4.734066129E-2
1.505243474E1,9.575030953E-2,2.486148328E-1,1.557660475E-2
1.506158698E1,-8.765657991E-2,2.354816198E-1,-1.740914769E-2
1.507073922E1,-2.860292196E-1,2.170034945E-1,-3.405473381E-2
1.507989146E1,-4.792096615E-1,1.853921413E-1,-3.848337755E-2
1.508904370E1,-6.401679516E-1,1.279724985E-1,-4.382828996E-2
1.509819594E1,-7.754706144E-1,2.764083818E-2,-5.207473040E-2
1.510734818E1,-9.100096822E-1,-7.941014320E-2,-7.788302749E-2
1.511648771E1,-1.070815206E0,-2.118112892E-1,-1.339282542E-1
1.512565271E1,-1.222458124E0,-2.997733057E-1,-2.295258641E-1
1.513480495E1,-1.290414810E0,-2.762556672E-1,-3.759764731E-1
1.514394443E1,-1.251473308E0,-7.574506104E-2,-5.505260825E-1
1.515310943E1,-1.070815206E0,2.880144715E-1,-7.131641507E-1
1.516226167E1,-7.035433054E-1,5.347967744E-1,-7.693621516E-1
1.517140115E1,-3.100049794E-1,3.622324169E-1,-6.583406329E-1
1.518056615E1,-3.229855001E-1,-5.390727147E-2,-4.706578255E-1
1.518971839E1,-9.956810474E-1,-4.570664763E-1,-3.170297146E-1
1.519885787E1,-1.808260560E0,-3.399364948E-1,-2.299840003E-1
1.520802287E1,-2.053515673E0,4.242334068E-1,-1.229330078E-1
1.521717511E1,-1.819866657E0,1.360356808E0,1.429382563E-1
1.522631459E1,-1.901720285E0,1.685022116E0,3.144336343E-1
1.523547959E1,-2.153694630E0,1.376238823E0,1.869192570E-1
1.524463183E1,-1.804137349E0,1.091125965E0,3.145863488E-2
1.525377130E1,-1.319888234E0,5.932853818E-1,-2.336490713E-2
1.526293630E1,-1.464506269E0,1.220167428E-1,-1.388150454E-1
1.527208854E1,-1.750840902E0,1.908897609E-2,-2.805316150E-1
1.528122808E1,-1.702584028E0,1.039967462E-1,-3.376458287E-1
1.529039308E1,-1.505433083E0,3.374931216E-2,-3.393256664E-1
1.529954532E1,-1.358371615E0,4.566083103E-2,-3.034383655E-1
1.530869756E1,-1.351194143E0,5.726693198E-2,-2.484621257E-1
1.531784979E1,-1.351499557E0,1.160609815E-2,-2.270824611E-1
1.532700203E1,-1.312863469E0,2.855710872E-2,-2.090624720E-1
1.533615427E1,-1.276823521E0,1.065928489E-1,-1.533226669E-1
1.534530651E1,-1.253153205E0,6.627693027E-2,-1.317902952E-1
1.535445875E1,-1.199245930E0,-1.145338640E-2,-1.893626451E-1
1.536361099E1,-1.133732557E0,-5.573981255E-2,-2.730487287E-1
1.537276323E1,-1.130525589E0,1.145338640E-2,-3.231382072E-1
1.538191547E1,-1.121973753E0,1.090362370E-1,-3.573456407E-1
1.539106771E1,-1.129456639E0,2.012741715E-1,-3.568875194E-1
1.540021995E1,-1.160762548E0,2.145601064E-1,-3.034383655E-1
1.540937219E1,-1.195122719E0,2.742704153E-1,-3.013004065E-1
1.541852443E1,-1.182294846E0,2.851129472E-1,-3.042019308E-1
1.542767667E1,-1.161373377E0,2.971771955E-1,-3.150444627E-1
1.543682891E1,-1.128845692E0,2.476985604E-1,-3.422271907E-1
1.544598115E1,-1.094027400E0,1.603474021E-1,-3.706315756E-1
1.545513339E1,-1.086697221E0,1.090362370E-1,-3.987305462E-1
1.546428568E1,-1.079061627E0,9.513945878E-2,-4.083513916E-1
1.547343792E1,-1.058292866E0,1.693574041E-1,-3.851391971E-1
1.548259016E1,-1.030804753E0,2.495311052E-1,-3.550549746E-1
1.549174240E1,-1.042410851E0,3.038965166E-1,-3.348970115E-1
1.550089464E1,-1.093874693E0,3.364241421E-1,-3.243598938E-1
1.551004688E1,-1.135870457E0,4.225535989E-1,-3.289412558E-1
1.551919912E1,-1.173132181E0,5.152496696E-1,-3.379512429E-1
1.552835136E1,-1.233453274E0,6.548282504E-1,-3.463504016E-1
1.553750360E1,-1.267813444E0,7.818844914E-1,-3.527642787E-1
1.554665584E1,-1.249182701E0,8.379297256E-1,-3.527642787E-1
1.555580808E1,-1.254374862E0,9.315420985E-1,-3.429907262E-1
1.556496032E1,-1.305075169E0,1.001331329E0,-3.141281903E-1
1.557411256E1,-1.342947721E0,1.010035992E0,-2.710634768E-1
1.558326479E1,-1.321109891E0,1.045770526E0,-2.336490750E-1
1.559241703E1,-1.286597013E0,1.089751482E0,-2.225011140E-1
1.560156933E1,-1.268118858E0,1.107771516E0,-2.449497581E-1
1.561072156E1,-1.251320601E0,1.117850542E0,-2.863346636E-1
1.561987381E1,-1.266744494E0,1.140146375E0,-3.237490356E-1
1.562902604E1,-1.288429618E0,1.158624530E0,-3.397837877E-1
1.563817828E1,-1.267966151E0,1.208103180E0,-3.463504016E-1
1.564733052E1,-1.215891480E0,1.266591787E0,-3.662029207E-1
1.565648276E1,-1.187028885E0,1.294079900E0,-4.216373265E-1
1.566563500E1,-1.208103180E0,1.282931924E0,-4.943281412E-1
1.567478724E1,-1.250098944E0,1.243990421E0,-5.557183027E-1
1.568393948E1,-1.248113632E0,1.181836724E0,-5.893148780E-1
1.569309172E1,-1.221694469E0,1.112505555E0,-5.963396430E-1
1.570224396E1,-1.152210593E0,9.897252917E-1,-5.865660906E-1
1.571139620E1,-1.074938416E0,8.880192041E-1,-5.712949038E-1
1.572054844E1,-1.045617819E0,8.452599049E-1,-5.723638535E-1
1.572970068E1,-9.909469485E-1,8.200624585E-1,-5.975613594E-1
1.573885297E1,-9.642223716E-1,7.440119386E-1,-6.395570636E-1
1.574800521E1,-1.012632012E0,6.449019909E-1,-6.592568755E-1
1.575715745E1,-1.056307673E0,6.219952106E-1,-6.540647149E-1
1.576630969E1,-1.032026410E0,6.058077812E-1,-6.569662094E-1
1.577546193E1,-9.985825419E-1,6.068767309E-1,-6.902574301E-1
1.578461417E1,-1.013853788E0,6.114581227E-1,-7.490514517E-1
1.579376641E1,-1.030499339E0,5.841227174E-1,-8.108997345E-1
1.580291865E1,-1.019809484E0,5.719057322E-1,-8.565605879E-1
1.581207089E1,-1.007897973E0,5.598415136E-1,-8.851176500E-1
1.582122313E1,-9.985825419E-1,4.850127101E-1,-8.985562921E-1
1.583036261E1,-9.790354371E-1,3.608580232E-1,-8.951966763E-1
1.583952761E1,-9.341381788E-1,2.362451702E-1,-8.806890249E-1
1.584867985E1,-8.790091872E-1,1.334701329E-1,-8.528954983E-1
1.585781938E1,-8.186880350E-1,1.233911440E-1,-8.200624585E-1
1.586698438E1,-7.333221436E-1,2.014268786E-1,-7.913526297E-1
1.587613662E1,-5.868715048E-1,2.993151546E-1,-7.678350210E-1
1.588527610E1,-3.565820754E-1,3.817795515E-1,-7.351546884E-1
1.589444110E1,-5.848862603E-2,4.433223903E-1,-6.792621613E-1
1.590359334E1,2.696890533E-1,4.399627447E-1,-5.938962698E-1
1.591274558E1,5.981721878E-1,3.312319219E-1,-4.804313779E-1
1.592189782E1,9.123004079E-1,1.605001241E-1,-3.753656447E-1
1.593105006E1,1.210088372E0,-9.315420873E-3,-3.072561622E-1
1.594020229E1,1.496728539E0,-1.007898003E-1,-2.556395829E-1
1.594935453E1,1.762905240E0,-4.902049154E-2,-2.055501044E-1
1.595850677E1,1.954100370E0,5.803048983E-2,-1.670667231E-1
1.596764630E1,2.045727491E0,1.157555580E-1,-1.004843712E-1
1.597681131E1,2.070008755E0,1.511846948E-2,5.543438718E-2
1.598596354E1,2.040382624E0,-1.473668963E-1,2.757975459E-1
1.599510302E1,1.987849712E0,-2.567085624E-1,5.343386531E-1
1.600426802E1,2.007549524E0,-5.143333673E-1,7.734853625E-1
1.601342026E1,2.168507814E0,-1.106091619E0,9.906415343E-1
1.602255974E1,2.409792423E0,-1.853463292E0,1.185196400E0
1.603172474E1,2.632446289E0,-2.420940399E0,1.316681266E0
1.604087698E1,2.775842667E0,-2.753241301E0,1.325233102E0
1.605001646E1,2.851587772E0,-2.922140598E0,1.245823026E0
1.605918146E1,2.915268660E0,-3.097148418E0,1.156028390E0
1.606833370E1,2.956347942E0,-3.329270363E0,1.099066973E0
1.607747323E1,2.910687208E0,-3.324688911E0,1.077381849E0
1.608663823E1,2.782562017E0,-2.999259949E0,1.125791550E0
1.609579047E1,2.662988663E0,-2.491035223E0,1.223374367E0
1.610492995E1,2.592435837E0,-1.959903479E0,1.329356313E0
1.611409495E1,2.569529057E0,-1.357455373E0,1.432589531E0
1.612324719E1,2.568459988E0,-7.308787704E-1,1.540862203E0
1.613238667E1,2.549371004E0,-2.780882120E-1,1.614316583E0
1.614155167E1,2.464921474E0,1.876828223E-1,1.670209169E0
1.615070391E1,2.372836113E0,4.159869850E-1,1.692505002E0
1.615984344E1,2.314347506E0,4.098785222E-1,1.675706744E0
1.616900839E1,2.242573023E0,6.172611713E-1,1.604695797E0
1.617816063E1,2.240893126E0,4.439332485E-1,1.656770468E0
1.618730016E1,2.306406498E0,-2.312056869E-1,1.698613524E0
1.619646516E1,2.290371895E0,-5.204418898E-1,1.559493065E0
1.620561740E1,2.279987335E0,-6.476507783E-1,1.395327806E0
1.621475688E1,2.286859512E0,-7.959339619E-1,1.220167398E0
1.622392188E1,2.251430273E0,-9.713998437E-1,1.052795291E0
1.623307412E1,2.182709932E0,-1.082879424E0,9.393303990E-1
1.624222636E1,2.059929609E0,-1.097845197E0,8.420529366E-1
1.625137860E1,1.921420097E0,-1.071884274E0,7.464553714E-1
1.626053084E1,1.789782524E0,-9.833113551E-1,6.671979427E-1
1.626967032E1,1.652647257E0,-8.692356348E-1,6.148177385E-1
1.627883532E1,1.495812178E0,-7.466080785E-1,5.740436912E-1
1.628798761E1,1.314237833E0,-6.181774139E-1,5.347967744E-1
1.629712709E1,1.114338160E0,-5.012001991E-1,4.880669713E-1
1.630629209E1,9.072608948E-1,-4.136963189E-1,4.511106908E-1
1.631544433E1,7.061394453E-1,-3.892624080E-1,4.246915579E-1
1.632458380E1,5.296045542E-1,-4.097257853E-1,3.819322586E-1
1.633374881E1,3.545968235E-1,-3.987305462E-1,3.239017725E-1
1.634290104E1,1.692046970E-1,-3.035911024E-1,2.473931462E-1
1.635205328E1,-1.114796288E-2,-1.403421611E-1,1.574458778E-1
1.636120552E1,-1.769929975E-1,4.596625641E-2,7.971556485E-2
1.637035776E1,-3.182514310E-1,1.818797737E-1,6.780404598E-2
1.637949729E1,-4.062134326E-1,2.344126403E-1,1.036913246E-1
1.638866229E1,-4.677563012E-1,2.710634768E-1,1.294996142E-1
1.639781453E1,-5.613686442E-1,3.419217467E-1,1.148392856E-1
1.640695401E1,-7.177455425E-1,4.042281806E-1,8.002099395E-2
1.641611901E1,-9.211576581E-1,3.597890437E-1,4.138490185E-2
1.642527125E1,-1.110520363E0,1.881409585E-1,-1.542389300E-2
1.643442349E1,-1.253153205E0,-2.504473738E-2,-7.803573459E-2
1.644357573E1,-1.346001983E0,-9.407047927E-2,-1.414111406E-1
1.645272797E1,-1.403727055E0,-1.389677543E-2,-2.292204350E-1
1.646188026E1,-1.360051394E0,1.314848661E-1,-3.608580232E-1
1.647103250E1,-1.152363300E0,4.127800465E-1,-4.958552718E-1
1.648018474E1,-9.239065051E-1,6.684195995E-1,-5.590779781E-1
1.648932422E1,-8.884773254E-1,3.484883606E-1,-5.427377820E-1
1.649848922E1,-1.114490867E0,-3.379512429E-1,-4.662291706E-1
1.650764146E1,-1.554453611E0,-5.949652195E-1,-3.941491842E-1
1.651678094E1,-1.919434786E0,2.596100792E-3,-2.896943092E-1
1.652594594E1,-2.003884315E0,1.104717255E0,-1.084253863E-1
1.653509818E1,-2.046338320E0,1.823684454E0,9.895725548E-2
1.654423771E1,-2.031983376E0,1.834985137E0,1.918060333E-1
1.655340266E1,-1.717855215E0,1.729461312E0,1.782146841E-1
1.656255495E1,-1.388608575E0,1.607444525E0,1.238492802E-1
1.657169443E1,-1.280335903E0,7.814263701E-1,-2.061609551E-2
1.658085943E1,-1.383721709E0,-2.776300907E-1,-1.867665499E-1
1.659001167E1,-1.516428351E0,-7.884510756E-1,-2.478512824E-1
1.659915115E1,-1.413958669E0,-7.699729800E-1,-1.823379099E-1
1.660831615E1,-1.235743999E0,-6.045860648E-1,-6.948387623E-2
1.661746839E1,-1.123806238E0,-4.282039404E-1,3.252761811E-2
1.662660787E1,-1.094332814E0,-5.050179958E-1,8.414421231E-2
1.663577287E1,-1.137397647E0,-7.650861740E-1,1.679829881E-2
1.664492516E1,-1.163663983E0,-9.326110482E-1,-1.267508119E-1
1.665406464E1,-1.129456639E0,-8.939749599E-1,-2.663294077E-1
1.666322964E1,-1.077992678E0,-7.459971905E-1,-3.753656447E-1
1.667238188E1,-1.041952729E0,-5.485408306E-1,-4.277457893E-1
1.668152136E1,-1.025001645E0,-3.749074936E-1,-4.118637741E-1
1.669068636E1,-1.052337170E0,-1.745496094E-1,-3.426853120E-1
1.669983860E1,-1.098914266E0,9.147437662E-2,-2.467822880E-1
1.670899084E1,-1.122279167E0,3.953709006E-1,-1.554606259E-1
1.671814308E1,-1.101662993E0,5.656445622E-1,-1.157555580E-1
1.672729532E1,-1.078756213E0,6.323796511E-1,-1.406475753E-1
1.673644761E1,-1.062721491E0,5.990884304E-1,-2.046338320E-1
1.674559985E1,-1.052489877E0,5.155550838E-1,-2.790044844E-1
1.675475209E1,-1.036913276E0,3.810159862E-1,-3.484883606E-1
1.676390433E1,-9.823951125E-1,2.493783981E-1,-4.201101959E-1
1.677305656E1,-9.370396733E-1,2.264716178E-1,-4.660764635E-1
1.678220880E1,-9.419264793E-1,3.167243004E-1,-4.924955964E-1
1.679136104E1,-9.400939345E-1,3.996468186E-1,-5.364766121E-1
1.680051328E1,-9.142856598E-1,4.266768098E-1,-5.741963983E-1
1.680966552E1,-9.579612017E-1,5.567872524E-1,-5.818319917E-1
1.681881776E1,-1.042716265E0,7.325585485E-1,-5.691569448E-1
1.682797000E1,-1.077687263E0,9.026795626E-1,-5.303681493E-1
1.683712229E1,-1.116476059E0,1.138466597E0,-4.747810364E-1
1.684627453E1,-1.159235358E0,1.284000993E0,-4.091149569E-1
1.685542677E1,-1.170230627E0,1.384790778E0,-3.416163325E-1
1.686457901E1,-1.141215444E0,1.426633716E0,-2.820587158E-1
1.687373125E1,-1.091736794E0,1.380972981E0,-2.512109280E-1
1.688288349E1,-1.063332319E0,1.313627005E0,-2.480039895E-1
1.689203573E1,-1.063332319E0,1.246128440E0,-2.570139766E-1
1.690118802E1,-1.105938911E0,1.248419046E0,-2.719797492E-1
1.691034026E1,-1.191457629E0,1.249335408E0,-3.019112647E-1
1.691949250E1,-1.277434349E0,1.159235358E0,-3.390202224E-1
1.692864474E1,-1.278656006E0,1.107924223E0,-3.652866483E-1
1.693779698E1,-1.184280157E0,1.096623540E0,-3.756710589E-1
1.694694922E1,-1.089293361E0,1.097845197E0,-4.036173224E-1
1.695610146E1,-1.091736794E0,1.072953224E0,-4.677563012E-1
1.696525370E1,-1.104564548E0,1.006370902E0,-5.251759291E-1
1.697440594E1,-1.061499834E0,8.828269839E-1,-5.425850749E-1
1.698355818E1,-9.987352490E-1,7.611156702E-1,-5.297572613E-1
1.699271047E1,-9.558232427E-1,7.101099491E-1,-5.178457499E-1
1.700186271E1,-9.251281619E-1,6.552863717E-1,-5.199837089E-1
1.701101495E1,-9.148964882E-1,5.462501645E-1,-5.186093450E-1
1.702016719E1,-9.023740888E-1,4.480564594E-1,-5.123481154E-1
1.702931943E1,-8.643488884E-1,3.993414044E-1,-5.077667832E-1
1.703847167E1,-8.086090684E-1,3.639122546E-1,-5.074613690E-1
1.704762391E1,-7.745543122E-1,3.434488773E-1,-5.114318728E-1
1.705677615E1,-7.934905887E-1,3.336753249E-1,-5.170822144E-1
1.706592844E1,-8.377770185E-1,3.306210935E-1,-5.271611810E-1
1.707508068E1,-8.635852933E-1,3.263451457E-1,-5.444176197E-1
1.708423292E1,-8.652651310E-1,3.159607351E-1,-5.657972693E-1
1.709338516E1,-8.626690507E-1,2.525853515E-1,-5.949652195E-1
1.710253740E1,-8.396095634E-1,1.542389393E-1,-6.210789680E-1
1.711168964E1,-8.121214509E-1,4.947862774E-2,-6.287145615E-1
1.712084188E1,-7.916580439E-1,-4.138490185E-2,-6.224533319E-1
1.712999412E1,-7.797465324E-1,-5.711421743E-2,-6.137487888E-1
1.713914636E1,-7.661551833E-1,-2.137965523E-3,-5.984776020E-1
1.714828589E1,-7.348492742E-1,6.490252167E-2,-5.664080977E-1
1.715745089E1,-6.423059106E-1,9.468132257E-2,-5.150969625E-1
1.716660313E1,-4.581354558E-1,1.524063945E-1,-4.601207078E-1
1.717574261E1,-2.093679011E-1,2.260134816E-1,-4.103366435E-1
1.718490761E1,4.382828996E-2,2.061609477E-1,-3.468085229E-1
1.719405985E1,2.664821148E-1,7.681404054E-2,-2.400629669E-1
1.720321209E1,5.095993280E-1,-8.078455180E-2,-1.209477559E-1
1.721236433E1,8.128849864E-1,-1.180462316E-1,-3.817795217E-2
1.722151662E1,1.153585076E0,3.145863488E-2,4.428642802E-3
1.723066886E1,1.474279881E0,2.486148328E-1,7.543963939E-2
1.723982110E1,1.724879980E0,3.562766612E-1,2.145601064E-1
1.724897334E1,1.927986622E0,3.049654961E-1,4.016320705E-1
1.725811282E1,2.087723255E0,-3.359660041E-3,5.702258945E-1
1.726727782E1,2.240587711E0,-4.894413650E-1,7.232431769E-1
1.727643006E1,2.446290493E0,-1.010494113E0,8.348754644E-1
1.728556959E1,2.700708389E0,-1.373184681E0,9.011524320E-1
1.729473459E1,2.932219505E0,-1.508792758E0,9.510892034E-1
1.730388683E1,3.046906233E0,-1.526507258E0,9.988879561E-1
1.731302630E1,3.036827087E0,-1.530477762E0,1.047144890E0
1.732219130E1,2.971619129E0,-1.700598717E0,1.070051670E0
1.733134354E1,2.908091068E0,-2.032136202E0,1.043479800E0
1.734048302E1,2.867164373E0,-2.379097462E0,9.561286569E-1
1.734964802E1,2.848533392E0,-2.457896709E0,8.419002295E-1
1.735880032E1,2.828375578E0,-2.095358849E0,7.999044657E-1
1.736793979E1,2.819518328E0,-1.529866934E0,8.354863524E-1
1.737710479E1,2.845784664E0,-1.048213840E0,9.098569751E-1
1.738625703E1,2.880755663E0,-5.909947157E-1,1.000109673E0
1.739539651E1,2.853114843E0,-8.933641016E-2,1.083795786E0
1.740456151E1,2.720561028E0,3.228327632E-1,1.125333309E0
1.741371375E1,2.542804480E0,5.532749295E-1,1.117086887E0
1.742285328E1,2.410708666E0,5.891621709E-1,1.096012712E0
1.743201828E1,2.342751980E0,4.763081372E-1,1.090820551E0
1.744117052E1,2.312820435E0,3.008422852E-1,1.078450799E0
1.745031000E1,2.300297976E0,1.380514801E-1,1.043021679E0
1.745947500E1,2.285026789E0,6.566607859E-3,1.003316641E0
1.746862724E1,2.269908428E0,-1.467560530E-1,9.625425935E-1
1.747777948E1,2.263036489E0,-3.229855001E-1,9.014578462E-1
1.748693177E1,2.248986959E0,-5.041016936E-1,8.142594099E-1
1.749608401E1,2.235395432E0,-6.731536984E-1,7.159129977E-1
1.750522349E1,2.197523117E0,-7.924215794E-1,6.029062271E-1
1.751438849E1,2.108033895E0,-8.754968047E-1,5.192201734E-1
1.752354073E1,1.980366826E0,-9.162709117E-1,4.682144225E-1
1.753268021E1,1.834679723E0,-8.619054556E-1,4.091149569E-1
1.754184521E1,1.653258085E0,-7.375980616E-1,3.492519259E-1
1.755099750E1,1.455038190E0,-6.128324866E-1,3.104631305E-1
1.756014974E1,1.260635972E0,-5.053234100E-1,3.022166789E-1
1.756930198E1,1.077229142E0,-4.175141156E-1,3.295520842E-1
1.757845422E1,9.138274789E-1,-3.542914093E-1,3.710896969E-1
1.758760646E1,7.551599145E-1,-2.496838123E-1,3.662029207E-1
1.759675870E1,5.712949038E-1,-6.642963737E-2,3.063398898E-1
1.760591099E1,3.582619131E-1,1.414111406E-1,2.392994165E-1
1.761506323E1,1.365243644E-1,2.747285664E-1,1.997470558E-1
1.762421547E1,-6.566607952E-2,2.834331393E-1,1.951656938E-1
1.763336771E1,-2.313583940E-1,2.005106062E-1,1.892099380E-1
1.764251995E1,-3.669664860E-1,8.521319181E-2,1.615691036E-1
1.765167219E1,-5.022691488E-1,5.894676223E-2,1.325538605E-1
1.766082443E1,-6.357392669E-1,1.134648770E-1,1.125486046E-1
1.766996396E1,-7.543963790E-1,1.421747059E-1,1.214058921E-1
1.767912896E1,-8.687775135E-1,1.024696305E-1,1.585148573E-1
1.768828120E1,-1.000720501E0,1.191152167E-2,1.858502775E-1
1.769742068E1,-1.164274931E0,-2.336490713E-2,1.681357026E-1
1.770658568E1,-1.314543247E0,-6.490252167E-2,7.131642103E-2
1.771573792E1,-1.369366884E0,-1.091889441E-1,-1.293469071E-1
1.772489021E1,-1.245975733E0,9.116895497E-2,-4.352286756E-1
1.773404245E1,-9.981244206E-1,5.770979524E-1,-7.641699314E-1
1.774319469E1,-7.188144922E-1,7.162184119E-1,-8.979454637E-1
1.775233417E1,-6.914790869E-1,-8.887827396E-2,-7.565343380E-1
1.776149917E1,-1.377766013E0,-1.322026134E0,-5.645755529E-1
1.777065141E1,-1.985100865E0,-1.314543247E0,-3.917058110E-1
1.777979094E1,-1.814521790E0,2.898470163E-1,-2.128802687E-1
1.778895594E1,-1.721673012E0,1.736180663E0,-9.407047927E-2
1.779810818E1,-2.076727867E0,1.553231835E0,-1.814216375E-1
1.780724766E1,-2.032441616E0,1.154501319E0,-3.370349705E-1
1.781641266E1,-1.879271626E0,1.131136417E0,-3.652866483E-1
1.782556490E1,-2.045727491E0,7.991409302E-1,-4.107947946E-1
1.783470443E1,-2.088944912E0,3.768927455E-1,-5.231906772E-1
1.784386943E1,-1.932873487E0,3.329117596E-1,-5.935907960E-1
1.785302167E1,-1.775885701E0,2.728960216E-1,-5.856497884E-1
1.786216115E1,-1.649287581E0,8.047912270E-2,-4.917320311E-1
1.787132615E1,-1.486954927E0,-3.603998944E-2,-3.147390485E-1
1.788047839E1,-1.302173615E0,-1.139230132E-1,-1.154501289E-1
1.788961792E1,-1.244295835E0,-1.675248593E-1,2.748812549E-3
1.789878292E1,-1.227344871E0,-3.387148082E-1,-1.832541823E-2
1.790793516E1,-1.146713018E0,-5.599942207E-1,-8.475505561E-2
1.791707464E1,-1.153585076E0,-6.142069101E-1,-9.086353332E-2
1.792623964E1,-1.218793035E0,-5.189147592E-1,-4.199574888E-2
1.793539193E1,-1.217571259E0,-3.422271907E-1,1.786728203E-2
1.794453141E1,-1.215891480E0,-1.221694499E-1,5.299099907E-2
1.795369641E1,-1.284306407E0,1.447708011E-1,5.360184610E-2
1.796284865E1,-1.335006714E0,3.229855001E-1,2.443389036E-2
1.797200089E1,-1.341573238E0,4.685198367E-1,-2.764083818E-2
1.798115313E1,-1.299424887E0,5.405998230E-1,-9.330692142E-2
1.799030542E1,-1.244753957E0,5.080721974E-1,-1.343863904E-1
1.799944490E1,-1.189777732E0,4.303418994E-1,-1.554606259E-1
1.800860990E1,-1.108993173E0,2.965663373E-1,-1.718007922E-1
1.801776214E1,-1.001331329E0,4.657710344E-2,-1.904316396E-1
1.802691438E1,-9.039012194E-1,-1.521009654E-1,-2.035648525E-1
1.803606667E1,-8.473978639E-1,-1.267508119E-1,-2.160872221E-1
1.804521891E1,-8.408312798E-1,5.024218559E-2,-2.333436459E-1
1.805437115E1,-8.280034661E-1,2.153236568E-1,-2.620534599E-1
1.806352339E1,-8.785510659E-1,4.326325655E-1,-2.863346636E-1
1.807267563E1,-9.689564705E-1,7.018635273E-1,-3.145863414E-1
1.808182792E1,-1.022558331E0,9.283351302E-1,-3.426853120E-1
1.809098016E1,-9.881981611E-1,1.081352353E0,-3.578037918E-1
1.810013240E1,-9.190196991E-1,1.207339644E0,-3.451287150E-1
1.810928464E1,-8.542698622E-1,1.257581830E0,-3.263451457E-1
1.811843688E1,-8.160919547E-1,1.249946237E0,-3.078670204E-1
1.812758917E1,-7.719582319E-1,1.209630251E0,-2.933593988E-1
1.813674141E1,-6.989619732E-1,1.172521353E0,-2.819060087E-1
1.814589365E1,-6.384881139E-1,1.146102190E0,-2.557922900E-1
1.815504589E1,-6.514685750E-1,1.137244940E0,-2.278460264E-1
1.816419813E1,-7.441646457E-1,1.237118363E0,-2.247917950E-1
1.817335042E1,-8.643488884E-1,1.260330558E0,-2.538070381E-1
1.818250266E1,-9.831586480E-1,1.185807228E0,-3.046600819E-1
1.819164214E1,-1.061805248E0,1.190235853E0,-3.578037918E-1
1.820080714E1,-1.006829023E0,1.183516622E0,-3.921639323E-1
1.820995938E1,-8.448017836E-1,1.067455530E0,-4.111002088E-1
1.821911167E1,-7.201889157E-1,9.260444641E-1,-4.217900336E-1
1.822826391E1,-6.846070886E-1,7.301151752E-1,-4.317162931E-1
1.823741615E1,-7.119424939E-1,4.854708612E-1,-4.323271513E-1
1.824656839E1,-7.641699314E-1,3.083251417E-1,-4.129327536E-1
1.825572068E1,-7.774558663E-1,2.095206082E-1,-4.002576768E-1
1.826487292E1,-7.218687534E-1,1.324011385E-1,-4.089622498E-1
1.827402516E1,-6.447492838E-1,5.711421743E-2,-4.413371384E-1
1.828317740E1,-6.407787800E-1,-2.260134928E-2,-4.772244096E-1
1.829232964E1,-6.827745438E-1,-6.978929788E-2,-5.196782947E-1
1.830148193E1,-6.910209656E-1,-8.506047726E-2,-5.728220344E-1
1.831063417E1,-6.603258848E-1,-5.024218559E-2,-6.232169271E-1
1.831978641E1,-6.137487888E-1,8.704573847E-3,-6.607840061E-1
1.832893865E1,-5.720584393E-1,5.207473040E-2,-6.850652099E-1
1.833809094E1,-5.294518471E-1,4.306473210E-2,-6.957550049E-1
1.834724318E1,-4.619532526E-1,-1.985253533E-3,-6.959077120E-1
1.835639542E1,-3.593308926E-1,-3.130592033E-2,-6.902574301E-1
1.836554766E1,-2.392994165E-1,-1.664558798E-2,-6.716265678E-1
1.837469990E1,-8.582404256E-2,3.436015919E-2,-6.285618544E-1
1.838383943E1,1.029277667E-1,1.282779276E-1,-5.697677732E-1
1.839300443E1,3.011476994E-1,2.673983872E-1,-5.086830258E-1
1.840215667E1,4.853181541E-1,3.860554695E-1,-4.475983381E-1
1.841130891E1,6.332958937E-1,4.311054647E-1,-3.817795515E-1
1.842046120E1,7.456917763E-1,3.646758199E-1,-3.077143133E-1
1.842961344E1,8.171609044E-1,2.579302490E-1,-2.044811249E-1
1.843876568E1,8.487722874E-1,3.072561622E-1,-8.047912270E-2
1.844791792E1,8.672503829E-1,4.663818777E-1,3.802524135E-2
1.845707021E1,8.806890249E-1,5.697677732E-1,1.382041872E-1
1.846620969E1,9.439117312E-1,5.532749295E-1,2.425063550E-1
1.847537469E1,1.045617819E0,3.605526090E-1,3.629959822E-1
1.848452693E1,1.181531310E0,1.137702987E-1,5.210527182E-1
1.849366646E1,1.385096192E0,-3.336753249E-1,6.591041684E-1
1.850283146E1,1.687160134E0,-9.927794933E-1,7.348492742E-1
1.851198370E1,2.017628431E0,-1.717091680E0,7.798992395E-1
1.852113594E1,2.296785593E0,-2.355274200E0,8.147175312E-1
1.853028823E1,2.492256880E0,-2.710481882E0,8.131904006E-1
1.853944047E1,2.603736401E0,-2.691851139E0,7.744016051E-1
1.854857995E1,2.652604103E0,-2.480956078E0,7.281299233E-1
1.855774495E1,2.641456366E0,-2.247917891E0,6.931589246E-1
1.856689719E1,2.581898689E0,-2.049850702E0,6.736118197E-1
1.857603672E1,2.473473310E0,-1.901262045E0,6.409314871E-1
1.858520172E1,2.325342894E0,-1.659366608E0,5.920637250E-1
1.859435396E1,2.194468737E0,-1.328287363E0,5.598415136E-1
1.860349349E1,2.128191948E0,-1.026376128E0,5.853443742E-1
1.861265849E1,2.121319771E0,-7.163711190E-1,6.705575585E-1
1.862181073E1,2.156443596E0,-2.849602401E-1,7.937960029E-1
1.863096297E1,2.196148634E0,2.640387416E-1,9.316948056E-1
1.864011521E1,2.222873211E0,7.369872332E-1,1.064095974E0
1.864926750E1,2.197064877E0,1.024848938E0,1.155264854E0
1.865840698E1,2.091388226E0,1.118155956E0,1.184432864E0
1.866757198E1,1.960819721E0,1.041341901E0,1.155417562E0
1.867672422E1,1.864153147E0,8.629744649E-1,1.078603506E0
1.868586375E1,1.786270142E0,6.467345357E-1,9.799517393E-1
1.869502875E1,1.743968964E0,4.020902216E-1,8.619054556E-1
1.870418099E1,1.733737230E0,1.485885978E-1,7.429429889E-1
1.871333323E1,1.751299143E0,-1.204896197E-1,6.479562521E-1
1.872248552E1,1.787797213E0,-3.839175105E-1,5.799994469E-1
1.873163776E1,1.815285325E0,-6.059604883E-1,5.193728805E-1
1.874079000E1,1.797112584E0,-7.437065244E-1,4.552339315E-1
1.874994224E1,1.719229579E0,-8.289197087E-1,3.991886973E-1
1.875909453E1,1.599656224E0,-8.835905790E-1,3.416163325E-1
1.876824677E1,1.455801725E0,-8.901571631E-1,2.794626355E-1
1.877739901E1,1.307824016E0,-8.477032781E-1,2.166980654E-1
1.878655130E1,1.155417562E0,-7.481352091E-1,1.637070626E-1
1.879570354E1,9.875873327E-1,-6.268820167E-1,1.171299592E-1
1.880485578E1,8.055548072E-1,-5.219689608E-1,7.864658535E-2
1.881400802E1,6.087092757E-1,-4.301891923E-1,4.917320609E-2
1.882316032E1,4.069769979E-1,-3.136700690E-1,2.565558441E-2
1.883231256E1,2.144073844E-1,-1.386623234E-1,1.252236869E-2
1.884146479E1,3.924693540E-2,7.925742865E-2,2.092151903E-2
1.885061703E1,-1.342336833E-1,3.002314270E-1,4.398100078E-2
1.885976933E1,-3.109212518E-1,4.825693369E-1,6.566607952E-2
1.886892156E1,-4.695888162E-1,5.667135715E-1,7.986827940E-2
1.887806104E1,-5.967977643E-1,5.303681493E-1,9.177979827E-2
1.888722604E1,-6.907155514E-1,4.054498672E-1,9.483403713E-2
1.889637834E1,-7.565343380E-1,2.530434728E-1,9.025268257E-2
1.890553058E1,-8.191461563E-1,9.132166207E-2,8.200624585E-2
1.891468282E1,-9.184088707E-1,-3.665083647E-2,6.184828654E-2
1.892383506E1,-1.039509296E0,-1.302631795E-1,2.932066843E-2
1.893297459E1,-1.166107416E0,-2.223484069E-1,-1.191152167E-2
1.894213959E1,-1.294232607E0,-3.252761662E-1,-8.719844371E-2
1.895129183E1,-1.386012435E0,-2.722851634E-1,-2.215848416E-1
1.896043136E1,-1.304464340E0,1.327065676E-1,-3.923166394E-1
1.896959636E1,-9.352071285E-1,6.369609833E-1,-5.690042377E-1
1.897874860E1,-5.103628635E-1,5.210527182E-1,-6.606312990E-1
1.898788813E1,-4.755446017E-1,-1.722589284E-1,-6.061131954E-1
1.899705313E1,-9.886562824E-1,-6.986565590E-1,-4.810422063E-1
1.900620537E1,-1.801083088E0,-6.145123243E-1,-3.512371778E-1
1.901534485E1,-2.154305458E0,2.093679011E-1,-1.687465608E-1
1.902450990E1,-1.856517553E0,1.050504565E0,1.246128380E-1
1.903366214E1,-1.642110109E0,1.296370625E0,3.396310806E-1
1.904280162E1,-1.645469785E0,1.149156451E0,3.098522723E-1
1.905196662E1,-1.472141862E0,9.640696645E-1,2.141019702E-1
1.906111891E1,-1.225512266E0,5.251759291E-1,8.490777016E-2
1.907025839E1,-1.056918502E0,-1.073564067E-1,-1.039967462E-1
1.907942339E1,-9.816315174E-1,-4.060607255E-1,-2.325800955E-1
1.908857563E1,-9.810206890E-1,-4.737120569E-1,-2.625116110E-1
1.909771516E1,-9.781191945E-1,-5.361711979E-1,-2.386885732E-1
1.910688016E1,-9.530744553E-1,-5.861079693E-1,-2.006633282E-1
1.911603240E1,-9.559759498E-1,-5.528167486E-1,-1.750077456E-1
1.912518469E1,-9.955283403E-1,-4.686725736E-1,-1.954711229E-1
1.913433693E1,-1.013242841E0,-4.485146105E-1,-2.756448388E-1
1.914348917E1,-9.775083065E-1,-3.921639323E-1,-3.822376728E-1
1.915262870E1,-9.347490072E-1,-3.158080280E-1,-4.619532526E-1
1.916179370E1,-9.223793745E-1,-2.275405973E-1,-5.187620521E-1
1.917094594E1,-9.532271624E-1,-6.902574003E-2,-5.257867575E-1
1.918008542E1,-9.936957955E-1,1.582094431E-1,-4.743228853E-1
1.918925047E1,-1.036149621E0,4.459185004E-1,-3.796415627E-1
1.919840271E1,-1.074327588E0,7.446228266E-1,-2.866400778E-1
1.920755495E1,-1.106091619E0,9.533798695E-1,-2.003578991E-1
1.921670719E1,-1.117545009E0,1.046381354E0,-1.369825006E-1
1.922585948E1,-1.132358074E0,1.088071704E0,-1.004843712E-1
1.923499896E1,-1.120446563E0,1.055085897E0,-8.383878320E-2
1.924416396E1,-1.104106426E0,9.550597072E-1,-7.757759839E-2
1.925331620E1,-1.077992678E0,7.803573608E-1,-7.666133344E-2
1.926246849E1,-1.051115394E0,5.935907960E-1,-6.780404598E-2
1.927162073E1,-1.003316641E0,4.164451063E-1,-6.184828654E-2
1.928077297E1,-9.552124143E-1,2.767138183E-1,-5.222744122E-2
1.928992526E1,-9.402466416E-1,1.798945218E-1,-4.169032723E-2
1.929907750E1,-9.436063170E-1,1.437018216E-1,-3.374931216E-2
1.930822974E1,-9.593356252E-1,1.690519750E-1,-2.779355086E-2
1.931738198E1,-1.001331329E0,2.562504113E-1,-4.092676565E-2
1.932653427E1,-1.011257648E0,3.460449576E-1,-6.429167092E-2
1.933568651E1,-9.842276573E-1,4.440859556E-1,-9.590301663E-2
1.934483875E1,-9.391776323E-1,5.181511641E-1,-1.285833418E-1
1.935399104E1,-8.913788795E-1,5.676298141E-1,-1.539335102E-1
1.936314328E1,-8.712208867E-1,5.958815217E-1,-1.685938388E-1
1.937229552E1,-8.843541145E-1,6.971294284E-1,-1.722589284E-1
1.938144782E1,-9.068027735E-1,8.477032781E-1,-1.768402755E-1
1.939060006E1,-9.304730892E-1,9.706363082E-1,-1.985253543E-1
1.939975229E1,-9.352071285E-1,1.099983215E0,-2.402156889E-1
1.940890453E1,-9.245173335E-1,1.237729311E0,-2.817533016E-1
1.941805683E1,-9.261971712E-1,1.370283127E0,-3.135173619E-1
1.942720906E1,-9.472714067E-1,1.465880752E0,-3.339807391E-1
1.943636131E1,-9.718579650E-1,1.470614791E0,-3.487937748E-1
1.944551354E1,-1.000567794E0,1.426633716E0,-3.495573401E-1
1.945466584E1,-1.008356094E0,1.419914484E0,-3.629959822E-1
1.946381808E1,-9.675820470E-1,1.425870180E0,-4.023956358E-1
1.947297032E1,-8.958075047E-1,1.346307397E0,-4.367557764E-1
1.948212261E1,-8.348754644E-1,1.137855768E0,-4.428642690E-1
1.949127485E1,-8.083036542E-1,9.089407325E-1,-4.228590131E-1
1.950042709E1,-7.507312894E-1,7.511894107E-1,-4.187358022E-1
1.950957938E1,-6.655181050E-1,6.722373962E-1,-4.492781460E-1
1.951873162E1,-6.528429985E-1,5.816792846E-1,-4.845545888E-1
1.952788386E1,-6.974348426E-1,4.815003574E-1,-5.024218559E-1
1.953703610E1,-7.336275578E-1,3.874298632E-1,-5.039489865E-1
1.954618839E1,-7.269082665E-1,3.319954872E-1,-5.141806602E-1
1.955534063E1,-7.284353375E-1,3.626905680E-1,-5.361711979E-1
1.956449287E1,-7.481352091E-1,3.752129376E-1,-5.632011890E-1
1.957364516E1,-7.699729800E-1,3.443651497E-1,-5.890094638E-1
1.958279740E1,-7.937960029E-1,3.290939629E-1,-6.123743653E-1
1.959194964E1,-8.138012886E-1,3.127537966E-1,-6.339067221E-1
1.960110188E1,-8.110524416E-1,2.855710983E-1,-6.471926570E-1
1.961025417E1,-7.774558663E-1,2.536543310E-1,-6.511631608E-1
1.961940641E1,-7.353073955E-1,2.145601064E-1,-6.459710002E-1
1.962855865E1,-7.140804529E-1,1.834068894E-1,-6.317687631E-1
1.963771094E1,-7.043069005E-1,1.768402755E-1,-6.122216582E-1
1.964686318E1,-6.743753552E-1,2.113531530E-1,-5.961869359E-1
1.965601542E1,-6.473453641E-1,2.258607745E-1,-5.842754245E-1
1.966516771E1,-6.213843822E-1,2.096733153E-1,-5.761816502E-1
1.967431995E1,-5.813738704E-1,1.916533262E-1,-5.606050491E-1
1.968347219E1,-5.120427012E-1,1.490467340E-1,-5.332696438E-1
1.969262448E1,-4.085040987E-1,7.177454978E-2,-4.879142344E-1
1.970177672E1,-2.626643181E-1,-1.817270555E-2,-4.147652984E-1
1.971092896E1,-7.803573459E-2,-8.918370306E-2,-3.229855001E-1
1.972008120E1,1.247655526E-1,-1.397313178E-1,-2.183778882E-1
1.972923349E1,3.210002482E-1,-2.124221325E-1,-1.027750522E-1
1.973838573E1,5.018110275E-1,-3.840702176E-1,2.137965336E-2
1.974753797E1,6.794148684E-1,-6.568135023E-1,1.650814712E-1
1.975669021E1,8.519791961E-1,-9.289459586E-1,3.081724346E-1
1.976584250E1,1.028055906E0,-1.108993173E0,4.213318825E-1
1.977499474E1,1.220625520E0,-1.084253907E0,4.813476503E-1
1.978414698E1,1.386165142E0,-8.663341403E-1,5.152496696E-1
1.979329927E1,1.518718958E0,-6.068767309E-1,5.636593103E-1
1.980245151E1,1.654327035E0,-4.395045936E-1,6.145123243E-1
1.981160375E1,1.741067410E0,-3.374931216E-1,6.236750484E-1
1.982075604E1,1.785201073E0,-3.927747905E-1,6.270347238E-1
1.982990828E1,1.826433301E0,-5.903838873E-1,6.549809575E-1
1.983904776E1,1.918365836E0,-8.365553021E-1,6.905628443E-1
1.984821282E1,2.081462145E0,-1.040425539E0,7.328640223E-1
1.985736506E1,2.255706310E0,-1.188708782E0,7.878402472E-1
1.986651729E1,2.373752356E0,-1.320346355E0,8.431219459E-1
1.987566953E1,2.430561304E0,-1.422510505E0,8.816053271E-1
1.988482183E1,2.454995155E0,-1.463437319E0,8.817580342E-1
1.989396130E1,2.456675053E0,-1.412431598E0,8.316685557E-1
1.990312630E1,2.432393789E0,-1.351346850E0,7.441646457E-1
1.991227860E1,2.379097462E0,-1.342184186E0,6.447492838E-1
1.992141808E1,2.288691998E0,-1.334701300E0,5.818319917E-1
1.993058308E1,2.189429283E0,-1.248113632E0,5.633538961E-1
1.993973537E1,2.100245476E0,-1.060278177E0,5.784723759E-1
1.994888761E1,2.015643358E0,-7.902836204E-1,6.204680800E-1
1.995803985E1,1.941883445E0,-4.834856093E-1,6.746807694E-1
1.996719214E1,1.893931985E0,-1.875301152E-1,7.253811359E-1
1.997634438E1,1.876522779E0,3.985778242E-2,7.605048418E-1
1.998549662E1,1.877133608E0,1.652341783E-1,7.664605975E-1
1.999464891E1,1.889503241E0,1.826433241E-1,7.317950130E-1
2.000380115E1,1.879577041E0,2.003578991E-1,6.798729897E-1
2.001295339E1,1.833305359E0,2.356343269E-1,6.317687631E-1
2.002210563E1,1.760461807E0,2.692309320E-1,5.964923501E-1
2.003125792E1,1.670361876E0,2.912214398E-1,5.793886185E-1
2.004041016E1,1.585759521E0,2.315111160E-1,5.940489769E-1
2.004956240E1,1.522689462E0,9.712471068E-2,6.102364063E-1
2.005871469E1,1.489092946E0,-6.795676053E-2,6.155813336E-1
2.006786693E1,1.486496806E0,-2.542651594E-1,6.004628539E-1
2.007701917E1,1.505433083E0,-4.315635860E-1,5.506787896E-1
2.008617141E1,1.524216652E0,-5.584670901E-1,4.653128982E-1
2.009532370E1,1.530783176E0,-6.949914694E-1,3.703261614E-1
2.010447594E1,1.519024372E0,-8.593093753E-1,2.817533016E-1
2.011362818E1,1.486649513E0,-1.006523609E0,2.125748396E-1
2.012278047E1,1.435949206E0,-1.115254402E0,1.763821393E-1
2.013193271E1,1.360051394E0,-1.164885759E0,1.641651988E-1
2.014108495E1,1.256971002E0,-1.136786699E0,1.623326540E-1
2.015023724E1,1.141215444E0,-1.016449809E0,1.565296054E-1
2.015938948E1,1.037676811E0,-8.683193922E-1,1.409530044E-1
2.016854172E1,9.547542930E-1,-7.438592315E-1,1.114796251E-1
2.017769401E1,8.886300325E-1,-6.423059106E-1,8.597674966E-2
2.018684625E1,8.397622705E-1,-5.538857579E-1,6.734590977E-2
2.019599849E1,7.930324674E-1,-4.708105326E-1,4.672981426E-2
2.020515078E1,7.206470370E-1,-3.739912212E-1,2.535016090E-2
2.021430302E1,6.305471063E-1,-2.886253297E-1,7.635590620E-3
2.022345526E1,5.309789777E-1,-2.437280566E-1,-1.450762246E-2
2.023260750E1,4.359922409E-1,-2.168507725E-1,-3.359659761E-2
2.024175979E1,3.538332880E-1,-1.934858710E-1,-4.398100078E-2
2.025091203E1,2.751866877E-1,-1.611109674E-1,-4.566083103E-2
2.026006433E1,1.976090819E-1,-1.068982705E-1,-4.199574888E-2
2.026921656E1,1.200314835E-1,-3.649812192E-2,-3.894151375E-2
2.027836880E1,5.054761097E-2,1.374406274E-3,-3.329117596E-2
2.028752104E1,-4.581354442E-4,-1.985253580E-2,-2.870982140E-2
2.029667334E1,-3.374931216E-2,-7.406523079E-2,-2.412846684E-2
2.030582558E1,-6.551336497E-2,-1.223221645E-1,-2.733541466E-2
2.031497782E1,-1.090362370E-1,-1.363716573E-1,-3.436015919E-2
2.032413011E1,-1.725643575E-1,-1.279724985E-1,-4.520269856E-2
2.033328235E1,-2.513636351E-1,-1.294996142E-1,-6.047387794E-2
2.034243459E1,-3.293993771E-1,-1.572931707E-1,-7.009471953E-2
2.035158688E1,-4.100312293E-1,-1.611109674E-1,-8.292251825E-2
2.036073912E1,-4.811949134E-1,-1.250709742E-1,-9.437590092E-2
2.036989136E1,-5.402944088E-1,-6.077930331E-2,-1.009425074E-1
2.037904365E1,-5.914528370E-1,1.023169141E-2,-1.075091213E-1
2.038819589E1,-6.398624778E-1,4.749337584E-2,-1.096470803E-1
2.039734813E1,-6.804838181E-1,4.871506989E-2,-1.032331884E-1
2.040650042E1,-7.212579250E-1,4.260659590E-2,-8.582404256E-2
2.041565266E1,-7.664605975E-1,6.795676053E-2,-6.719319522E-2
2.042480490E1,-8.232693672E-1,1.348445266E-1,-4.688252881E-2
2.043395719E1,-8.808417320E-1,2.174616307E-1,-1.695101149E-2
2.044310943E1,-9.407047629E-1,2.747285664E-1,2.046338283E-2
2.045226167E1,-9.944593310E-1,2.759502530E-1,6.047387794E-2
2.046141396E1,-1.042258143E0,2.241809368E-1,9.804098308E-2
2.047056620E1,-1.086239100E0,1.574458778E-1,1.270562261E-1
2.047971844E1,-1.138161182E0,1.079672500E-1,1.462979168E-1
2.048887068E1,-1.207645059E0,8.551861346E-2,1.481304616E-1
2.049802297E1,-1.295148849E0,8.231166750E-2,1.298050433E-1
2.050717521E1,-1.393342614E0,5.971032009E-2,8.521319181E-2
2.051632745E1,-1.482526302E0,-5.803049076E-3,2.061609551E-2
2.052547974E1,-1.497339368E0,-1.018587798E-1,-5.207473040E-2
2.053463198E1,-1.350125194E0,-1.296523362E-1,-1.328592747E-1
2.054378427E1,-9.718579650E-1,6.704048812E-2,-2.145601064E-1
2.055292375E1,-3.987305462E-1,3.817795515E-1,-2.492256761E-1
2.056208875E1,-1.985253533E-3,3.121429384E-1,-2.067717910E-1
2.057124104E1,-3.466558084E-2,-2.148655206E-1,-1.131594554E-1
2.058038052E1,-2.328855246E-1,-6.723901033E-1,-7.085828483E-2
2.058954552E1,-4.008685052E-1,-4.454603493E-1,-2.192941606E-1
2.059869782E1,-6.172611713E-1,-3.996468186E-1,-4.555393457E-1
2.060783729E1,-7.629482150E-1,-9.480349422E-1,-5.543438792E-1
2.061700229E1,-7.968502641E-1,-1.070662498E0,-4.416425824E-1
2.062615453E1,-9.637642503E-1,-6.374191046E-1,-2.165453583E-1
2.063529406E1,-1.313474298E0,9.590301663E-2,-8.704573661E-2
2.064445907E1,-1.648065925E0,7.968502641E-1,-9.590301663E-2
2.065361131E1,-1.772984147E0,1.136939406E0,-1.368297935E-1
2.066275084E1,-1.761988878E0,1.168856263E0,-1.641651988E-1
2.067191584E1,-1.692352295E0,9.639169574E-1,-1.995943487E-1
2.068106808E1,-1.620272398E0,5.966450572E-1,-2.715215981E-1
2.069020761E1,-1.559187651E0,2.250972092E-1,-3.855973184E-1
2.069937261E1,-1.482679009E0,3.985778242E-2,-4.790569544E-1
2.070852485E1,-1.418540001E0,3.100049868E-2,-4.845545888E-1
2.071767714E1,-1.376544356E0,6.749862432E-2,-4.233171642E-1
2.072682938E1,-1.371504784E0,1.658450365E-1,-3.536805511E-1
2.073598162E1,-1.413805962E0,3.388675153E-1,-3.205420971E-1
2.074512115E1,-1.474432588E0,5.056288242E-1,-3.321481943E-1
2.075428615E1,-1.544221878E0,6.771242023E-1,-3.718532622E-1
2.076343839E1,-1.616607308E0,7.951704264E-1,-3.950654566E-1
2.077259068E1,-1.667154908E0,8.432746530E-1,-3.727695346E-1
2.078174292E1,-1.665322304E0,8.351809382E-1,-3.116848171E-1
2.079089516E1,-1.610040665E0,7.452336550E-1,-2.415900975E-1
2.080004745E1,-1.516886473E0,6.476507783E-1,-2.067717910E-1
2.080919969E1,-1.411057115E0,5.978667736E-1,-1.950129867E-1
2.081835193E1,-1.335312128E0,5.974085927E-1,-1.815743446E-1
2.082750422E1,-1.267508030E0,5.754181147E-1,-1.597365588E-1
2.083665646E1,-1.179851532E0,4.900522232E-1,-1.432436854E-1
2.084580870E1,-1.148392797E0,4.081986845E-1,-1.282779276E-1
2.085496099E1,-1.187945247E0,3.545968235E-1,-1.131594554E-1
2.086411323E1,-1.217113137E0,3.671191931E-1,-9.880454093E-2
2.087326547E1,-1.188097954E0,4.341596961E-1,-9.849911928E-2
2.088241776E1,-1.127776742E0,5.106683373E-1,-1.214058921E-1
2.089157000E1,-1.100441337E0,5.702258945E-1,-1.554606259E-1
2.090072224E1,-1.119224906E0,6.303943992E-1,-1.904316396E-1
2.090987453E1,-1.105022669E0,7.056813240E-1,-2.209739983E-1
2.091902677E1,-1.060736299E0,7.905890942E-1,-2.353289127E-1
2.092817901E1,-1.014159203E0,8.226585388E-1,-2.386885732E-1
2.093733130E1,-9.640696645E-1,8.083036542E-1,-2.347180545E-1
2.094648354E1,-9.242119193E-1,7.547017932E-1,-2.257080674E-1
2.095563578E1,-9.061918855E-1,6.691831946E-1,-2.206685692E-1
2.096478808E1,-9.003888369E-1,5.630484819E-1,-2.170034945E-1
2.097394032E1,-8.709154725E-1,4.294256270E-1,-2.105895877E-1
2.098309256E1,-8.052493930E-1,2.542651594E-1,-1.977618039E-1
2.099224485E1,-7.278245091E-1,6.704048812E-2,-1.757712960E-1
2.100139709E1,-6.804838181E-1,-8.399149776E-2,-1.464506239E-1
2.101054938E1,-6.584933400E-1,-2.020377368E-1,-1.243074164E-1
2.101970162E1,-6.351284385E-1,-2.718270421E-1,-1.075091213E-1
2.102885386E1,-5.969504714E-1,-3.397837877E-1,-1.004843712E-1
2.103800610E1,-5.694623590E-1,-3.759764731E-1,-1.052184403E-1
2.104715839E1,-5.615213513E-1,-3.729222417E-1,-1.217113137E-1
2.105631063E1,-5.573981404E-1,-3.338280320E-1,-1.449235082E-1
2.106546292E1,-5.858024955E-1,-2.580829561E-1,-1.585148573E-1
2.107461516E1,-6.314633489E-1,-1.756185889E-1,-1.583621502E-1
2.108376740E1,-6.818582416E-1,-1.291942000E-1,-1.519482583E-1
2.109291969E1,-7.427902818E-1,-1.336228400E-1,-1.462979168E-1
2.110207193E1,-7.919634581E-1,-1.559187621E-1,-1.533226669E-1
2.111122417E1,-8.118160367E-1,-1.988307834E-1,-1.681357026E-1
2.112037646E1,-8.098307252E-1,-2.826695740E-1,-1.838650256E-1
2.112952870E1,-7.832589149E-1,-3.542914093E-1,-1.855448484E-1
2.113868094E1,-7.441646457E-1,-3.933856487E-1,-1.785201132E-1
2.114783323E1,-7.122479081E-1,-3.776563108E-1,-1.794363856E-1
2.115698547E1,-6.931589246E-1,-2.982461751E-1,-1.947075576E-1
2.116613771E1,-6.962131858E-1,-2.168507725E-1,-2.205158621E-1
2.117529000E1,-7.046123147E-1,-1.579040140E-1,-2.431172132E-1
2.118444224E1,-6.948387623E-1,-7.482878864E-2,-2.486148328E-1
2.119359448E1,-6.763606071E-1,-2.443389036E-3,-2.382304370E-1
2.120274677E1,-6.534538269E-1,4.046862945E-2,-2.142546773E-1
2.121189901E1,-6.427640319E-1,6.047387794E-2,-1.843231618E-1
2.122105125E1,-6.471926570E-1,6.536065787E-2,-1.696628332E-1
2.123020354E1,-6.449019909E-1,8.948912472E-2,-1.763821393E-1
2.123935578E1,-5.971031785E-1,1.275143623E-1,-1.815743446E-1
2.124850802E1,-5.111264586E-1,1.548497826E-1,-1.522536725E-1
2.125766032E1,-4.196520746E-1,1.479777545E-1,-8.200624585E-2
2.126681256E1,-3.518480062E-1,1.128540337E-1,5.955760833E-3
2.127596479E1,-3.374931216E-1,6.139015034E-2,6.887302548E-2
2.128511709E1,-3.695625961E-1,-1.389677543E-2,9.009996802E-2
2.129426933E1,-4.107947946E-1,-1.832541823E-2,8.246438205E-2
2.130342162E1,-4.457657933E-1,5.024218559E-2,6.688777357E-2
2.131257386E1,-4.824166298E-1,1.466033459E-1,5.131116882E-2
2.132172610E1,-5.309789777E-1,2.814478874E-1,3.191677108E-2
2.133087839E1,-5.786250830E-1,4.488200247E-1,1.863084175E-2
2.134003063E1,-6.029062271E-1,6.343649030E-1,7.330167107E-3
2.134918287E1,-5.940489769E-1,8.151756525E-1,-1.038440317E-2
2.135833516E1,-5.540384650E-1,9.796462655E-1,-4.077405483E-2
2.136748740E1,-4.943281412E-1,1.070509791E0,-7.956285775E-2
2.137663964E1,-4.292729199E-1,1.052337170E0,-1.174353883E-1
2.138579193E1,-3.695625961E-1,9.373451471E-1,-1.395785958E-1
2.139494417E1,-3.164188862E-1,7.802046537E-1,-1.427855492E-1
2.140409641E1,-2.644968629E-1,6.143596172E-1,-1.337755471E-1
2.141324870E1,-2.235700935E-1,4.584408700E-1,-1.259872466E-1
2.142240094E1,-1.954711229E-1,3.248180151E-1,-1.165191159E-1
2.143155318E1,-1.858502775E-1,2.163926363E-1,-1.010952219E-1
2.144070547E1,-1.939440072E-1,1.447708011E-1,-8.826743066E-2
2.144985771E1,-2.081461996E-1,8.383878320E-2,-8.597674966E-2
2.145900995E1,-2.173089087E-1,6.719320081E-3,-9.636115283E-2
2.146816224E1,-2.232646793E-1,-7.238540053E-2,-1.207950488E-1
2.147731448E1,-2.186833173E-1,-1.501157135E-1,-1.487413049E-1
2.148646677E1,-1.971509457E-1,-2.134911120E-1,-1.716480851E-1
2.149561901E1,-1.548497826E-1,-2.515163720E-1,-1.786728203E-1
2.150477125E1,-9.681928903E-2,-2.693836391E-1,-1.678302884E-1
2.151392349E1,-4.596625641E-2,-2.583884001E-1,-1.308740228E-1
2.152307578E1,-2.229592577E-2,-2.412846684E-1,-7.650861889E-2
2.153222802E1,-3.130592033E-2,-2.229592502E-1,-2.153236605E-2
2.154138032E1,-5.512896553E-2,-2.029540092E-1,2.107422985E-2
2.155053256E1,-7.284353673E-2,-1.606528312E-1,4.642439261E-2
2.155968479E1,-6.734590977E-2,-7.803573459E-2,5.253286287E-2
2.156883709E1,-3.329117596E-2,3.878879920E-2,4.367557913E-2
2.157798933E1,2.657185495E-2,1.743968874E-1,2.687728032E-2
2.158714156E1,8.796200156E-2,2.968717813E-1,5.192201585E-3
2.159629386E1,1.290414780E-1,3.865135908E-1,-1.298050396E-2
2.160544610E1,1.391204596E-1,4.503471553E-1,-2.687728032E-2
2.161459834E1,1.227803007E-1,4.906630516E-1,-3.619270027E-2
2.162375063E1,9.804098308E-2,5.039489865E-1,-4.062134400E-2
2.163290287E1,6.291726977E-2,4.839437306E-1,-4.398100078E-2
2.164205516E1,2.214321308E-2,4.326325655E-1,-4.672981426E-2
2.165120740E1,-2.626643144E-2,3.475720882E-1,-5.054761097E-2
2.166035964E1,-6.933116168E-2,2.596100867E-1,-5.818320066E-2
2.166951188E1,-1.018587798E-1,1.835595965E-1,-5.955760926E-2
2.167866417E1,-1.204896197E-1,1.154501289E-1,-5.421269313E-2
2.168781641E1,-1.142284349E-1,4.382828996E-2,-4.917320609E-2
2.169696870E1,-8.658760041E-2,-2.550287358E-2,-4.214845970E-2
2.170612094E1,-4.718795046E-2,-8.857285231E-2,-3.329117596E-2
2.171527318E1,-4.428642802E-3,-1.372879148E-1,-1.649287529E-2
2.172442547E1,3.038965166E-2,-1.678302884E-1,2.748812549E-3
2.173357771E1,5.131116882E-2,-1.811162084E-1,2.107422985E-2
2.174272995E1,6.352811307E-2,-1.641651988E-1,3.588727489E-2
2.175188224E1,6.734590977E-2,-1.201841980E-1,4.321744293E-2
2.176103448E1,6.245913357E-2,-5.192201585E-2,4.734066129E-2
2.177018677E1,5.619794875E-2,2.809897438E-2,4.840964451E-2
2.177933901E1,4.443913698E-2,1.052184403E-1,4.535540938E-2
2.178849125E1,2.901524492E-2,1.678302884E-1,3.909422457E-2
2.179764354E1,1.404948719E-2,2.099787444E-1,2.611372061E-2
2.180679578E1,5.803049076E-3,2.394521236E-1,1.191152167E-2
2.181594802E1,7.635590620E-3,2.495311052E-1,3.054236295E-4
2.182510032E1,1.695101149E-2,2.435753495E-1,-8.093725890E-3
2.183425256E1,2.886253223E-2,2.231119573E-1,-1.053711493E-2
2.184340485E1,3.955236077E-2,1.985253543E-1,-8.551862091E-3
2.185255709E1,4.459185153E-2,1.768402755E-1,-6.719320081E-3
2.186170933E1,4.291202128E-2,1.545443535E-1,-7.330167107E-3
2.187086162E1,3.558185324E-2,1.406475753E-1,-3.665083554E-3
2.188001386E1,2.657185495E-2,1.243074164E-1,3.665083554E-3
2.188916610E1,2.000524849E-2,9.788827598E-2,9.620844387E-3
2.189831839E1,1.481304597E-2,5.864133686E-2,1.450762246E-2
2.190747063E1,1.695101149E-2,1.404948719E-2,1.588202827E-2
2.191662292E1,2.412846684E-2,-3.649812192E-2,1.832541823E-2
2.192577516E1,3.023693897E-2,-9.071081877E-2,1.908897609E-2
2.193492740E1,3.191677108E-2,-1.395785958E-1,1.420219894E-2
2.194407969E1,3.222219273E-2,-1.684411317E-1,8.093725890E-3
2.195323193E1,3.344388679E-2,-1.714953631E-1,5.039489828E-3
2.196238417E1,4.077405483E-2,-1.612636745E-1,3.970507067E-3
2.197153646E1,4.856235534E-2,-1.424801201E-1,3.970507067E-3
2.198068870E1,5.222744122E-2,-1.250709742E-1,2.137965523E-3
2.198984094E1,5.451811850E-2,-1.105633527E-1,3.359660041E-3
2.199899323E1,5.314370990E-2,-8.887827396E-2,7.024743594E-3
2.200814547E1,5.039490014E-2,-6.184828654E-2,1.130067464E-2
2.201729776E1,4.504998401E-2,-2.809897438E-2,1.908897609E-2
2.202645000E1,4.169032723E-2,8.704573847E-3,2.336490713E-2
2.203560224E1,3.588727489E-2,3.344388679E-2,2.641914412E-2
2.204475453E1,2.473931387E-2,4.367557913E-2,2.443389036E-2
2.205390677E1,1.786728203E-2,4.840964451E-2,1.893626526E-2
2.206305901E1,2.046338283E-2,4.596625641E-2,1.282779220E-2
2.207221130E1,2.855710872E-2,3.344388679E-2,8.551862091E-3
2.208136354E1,3.802524135E-2,1.298050396E-2,6.872031838E-3
2.209051584E1,4.062134400E-2,-9.926267900E-3,4.428642802E-3
2.209966808E1,3.955236077E-2,-2.870982140E-2,3.206948051E-3
2.210882032E1,3.542914242E-2,-3.955236077E-2,5.039489828E-3
2.211797261E1,3.222219273E-2,-3.115320951E-2,8.704573847E-3
2.212712485E1,3.512371704E-2,-1.298050396E-2,1.664558798E-2
2.213627709E1,3.802524135E-2,-5.192201585E-3,2.214321308E-2
2.214542938E1,4.001049697E-2,-1.710372418E-2,2.336490713E-2
2.215458162E1,3.787253052E-2,-4.367557913E-2,2.092151903E-2
2.216373391E1,3.512371704E-2,-7.269082218E-2,1.603474095E-2
2.217288615E1,3.710897267E-2,-1.009425074E-1,1.175880991E-2
2.218203839E1,4.291202128E-2,-1.238492802E-1,8.857285604E-3
2.219119068E1,4.856235534E-2,-1.340809762E-1,5.192201585E-3
2.220034292E1,4.795150831E-2,-1.371352077E-1,3.359660041E-3
2.220949516E1,3.939964995E-2,-1.377460510E-1,1.527118147E-3
2.221864745E1,2.947338112E-2,-1.371352077E-1,3.817795310E-3
2.222779969E1,2.687728032E-2,-1.354553849E-1,1.114796288E-2
2.223695193E1,2.993151546E-2,-1.340809762E-1,1.847812906E-2
2.224610422E1,3.863608837E-2,-1.340809762E-1,2.458660305E-2
2.225525646E1,4.657710344E-2,-1.346918195E-1,2.962609194E-2
2.226440875E1,5.772506446E-2,-1.437018216E-1,3.390202299E-2
2.227356099E1,7.024743408E-2,-1.617218107E-1,3.344388679E-2
2.228271323E1,7.895200700E-2,-1.756185889E-1,2.733541466E-2
2.229186552E1,8.261708915E-2,-1.676775664E-1,2.382304333E-2
2.230101776E1,8.857285231E-2,-1.514901221E-1,3.054236248E-2