"Time (s)","Gyroscope x (rad/s)","Gyroscope y (rad/s)","Gyroscope z (rad/s)"
8.271010238E0,2.596100792E-3,2.641914412E-2,1.267508045E-2
8.280162530E0,-6.719320081E-3,2.397575416E-2,1.206423342E-2
8.289314769E0,-7.177455351E-3,2.092151903E-2,1.023169141E-2
8.298467061E0,-1.068982761E-3,1.847812906E-2,1.023169141E-2
8.307619301E0,8.246437646E-3,1.664558798E-2,8.399149403E-3
8.316771540E0,1.374406368E-2,1.068982668E-2,9.162709117E-3
8.325923832E0,9.468132630E-3,3.512371797E-3,9.009997360E-3
8.335076071E0,-3.359660041E-3,2.901524538E-3,6.566607859E-3
8.344228363E0,-1.206423342E-2,3.512371797E-3,6.413896102E-3
8.353380603E0,-1.511846948E-2,5.192201585E-3,5.192201585E-3
8.362532894E0,-1.572931744E-2,8.246437646E-3,6.413896102E-3
8.371685134E0,-1.145338640E-2,8.857285604E-3,5.803049076E-3
8.380837426E0,-5.192201585E-3,4.581354558E-3,4.123218823E-3
8.389989665E0,2.137965523E-3,-1.527118147E-4,2.901524538E-3
8.399141957E0,8.399149403E-3,-1.374406274E-3,3.512371797E-3
8.408294196E0,1.206423342E-2,-6.261184346E-3,2.443389036E-3
8.417446436E0,1.221694518E-2,-9.773556143E-3,1.221694518E-3
8.426598728E0,9.162709117E-3,-1.099525020E-2,-1.527118147E-4
8.435750967E0,6.566607859E-3,-1.099525020E-2,-2.596100792E-3
8.444903259E0,1.679830020E-3,-7.482878864E-3,-1.985253533E-3
8.454055499E0,1.679830020E-3,-1.527118147E-4,-1.985253533E-3
8.463207790E0,2.137965523E-3,5.192201585E-3,-2.596100792E-3
8.472360030E0,5.803049076E-3,7.024743594E-3,4.581354442E-4
8.481512321E0,8.246437646E-3,7.024743594E-3,4.123218823E-3
8.490664561E0,6.413896102E-3,6.413896102E-3,4.734066315E-3
8.499816853E0,1.527118147E-3,4.581354558E-3,5.955760833E-3
8.508969092E0,-3.970507067E-3,3.359660041E-3,4.123218823E-3
8.518121332E0,-5.192201585E-3,3.359660041E-3,2.901524538E-3
8.527273624E0,-2.137965523E-3,6.413896102E-3,2.290677279E-3
8.536425863E0,1.527118147E-3,1.007897966E-2,2.901524538E-3
8.545578155E0,3.359660041E-3,1.603474095E-2,2.901524538E-3
8.554730394E0,1.374406274E-3,1.786728203E-2,2.290677279E-3
8.563882686E0,-1.679830020E-3,1.725643501E-2,-1.527118147E-4
8.573034926E0,-4.734066315E-3,1.786728203E-2,-1.985253533E-3
8.582187217E0,-7.177455351E-3,1.786728203E-2,-1.985253533E-3
8.591339457E0,-7.177455351E-3,1.908897609E-2,-7.635590737E-4
8.600491749E0,-5.955760833E-3,1.908897609E-2,-2.596100792E-3
8.609643988E0,-9.162708884E-4,1.664558798E-2,-4.428642802E-3
8.618796280E0,5.803049076E-3,1.298050396E-2,-3.817795310E-3
8.627948519E0,1.145338640E-2,9.468132630E-3,-1.374406274E-3
8.637100811E0,1.328592747E-2,1.007897966E-2,-0.000000000E0
8.646253051E0,1.206423342E-2,7.635590620E-3,1.679830020E-3
8.655405342E0,7.024743594E-3,5.803049076E-3,1.068982761E-3
8.664557582E0,1.527118147E-3,5.192201585E-3,-1.985253533E-3
8.673709821E0,-2.748812549E-3,5.803049076E-3,-3.817795310E-3
8.682862113E0,-3.054236295E-4,3.970507067E-3,-5.039489828E-3
8.692014353E0,3.970507067E-3,4.581354558E-3,-6.872031838E-3
8.701166644E0,9.620844387E-3,5.192201585E-3,-5.650337320E-3
8.710318884E0,1.206423342E-2,2.748812549E-3,-3.206948051E-3
8.719471176E0,1.328592747E-2,-3.817795310E-3,-0.000000000E0
8.728623415E0,1.145338640E-2,-7.482878864E-3,4.581354442E-4
8.737775707E0,6.108472589E-3,-1.649287529E-2,-2.596100792E-3
8.746927946E0,4.886778072E-3,-2.015795931E-2,-6.261184346E-3
8.756080238E0,1.038440317E-2,-2.015795931E-2,-9.315420873E-3
8.765232478E0,2.031067200E-2,-1.343864016E-2,-8.551862091E-3
8.774384769E0,2.764083818E-2,-7.482878864E-3,-4.886778072E-3
8.783537009E0,2.748812735E-2,-3.817795310E-3,1.832541777E-3
8.792689301E0,1.954711229E-2,-1.985253533E-3,6.719320081E-3
8.801841540E0,8.399149403E-3,4.581354442E-4,9.620844387E-3
8.810993832E0,-2.748812549E-3,3.512371797E-3,6.566607859E-3
8.820146071E0,-7.635590620E-3,2.290677279E-3,1.679830020E-3
8.829298363E0,-3.359660041E-3,1.679830020E-3,-3.206948051E-3
8.838450603E0,7.788302377E-3,2.748812549E-3,-6.872031838E-3
8.847602894E0,1.893626526E-2,4.581354558E-3,-7.941014133E-3
8.856755134E0,2.199050039E-2,3.359660041E-3,-7.941014133E-3
8.865907426E0,1.832541823E-2,-4.428642802E-3,-9.773556143E-3
8.875059665E0,7.941014133E-3,-6.261184346E-3,-1.053711493E-2
8.884211957E0,-4.428642802E-3,-1.527118147E-3,-9.315420873E-3
8.893364196E0,-9.468132630E-3,3.970507067E-3,-7.024743594E-3
8.902516436E0,-8.857285604E-3,7.024743594E-3,-5.192201585E-3
8.911668728E0,-2.137965523E-3,8.246437646E-3,-2.596100792E-3
8.920821019E0,7.788302377E-3,7.635590620E-3,-1.527118147E-4
8.929973259E0,1.939439960E-2,5.344913341E-3,1.221694518E-3
8.939125551E0,2.687728032E-2,5.344913341E-3,2.443389036E-3
8.948277790E0,2.733541466E-2,9.468132630E-3,6.108472589E-4
8.957430082E0,2.244863659E-2,1.007897966E-2,-2.443389036E-3
8.966582321E0,1.695101149E-2,1.007897966E-2,-3.665083554E-3
8.975734613E0,1.328592747E-2,9.468132630E-3,-3.665083554E-3
8.984886853E0,1.145338640E-2,1.007897966E-2,-4.428642802E-3
8.994039092E0,1.206423342E-2,1.068982668E-2,-6.872031838E-3
9.003191384E0,1.634016447E-2,1.068982668E-2,-9.162709117E-3
9.012343624E0,2.076880634E-2,7.635590620E-3,-1.160609815E-2
9.021495915E0,2.626643144E-2,1.527118147E-3,-1.221694518E-2
9.030648155E0,2.626643144E-2,-3.817795310E-3,-9.773556143E-3
9.039800446E0,1.954711229E-2,-4.428642802E-3,-6.719320081E-3
9.048952686E0,1.084253844E-2,-1.985253533E-3,-4.428642802E-3
9.058104978E0,-1.527118147E-4,4.581354442E-4,-3.206948051E-3
9.067257217E0,-8.246437646E-3,-7.635590737E-4,-6.261184346E-3
9.076409509E0,-8.857285604E-3,-2.596100792E-3,-8.093725890E-3
9.085561749E0,-4.428642802E-3,-7.482878864E-3,-9.315420873E-3
9.094714040E0,2.901524538E-3,-6.872031838E-3,-1.175880991E-2
9.103866280E0,1.404948719E-2,-4.428642802E-3,-1.282779220E-2
9.113018571E0,2.015795931E-2,-1.374406274E-3,-1.221694518E-2
9.122170811E0,2.382304333E-2,4.581354442E-4,-9.773556143E-3
9.131323103E0,2.504473738E-2,2.901524538E-3,-4.886778072E-3
9.140475394E0,2.137965336E-2,3.512371797E-3,-1.832541777E-3
9.149627634E0,1.511846948E-2,3.512371797E-3,-3.054236295E-3
9.158779926E0,1.145338640E-2,4.581354558E-3,-3.817795310E-3
9.167932165E0,1.084253844E-2,2.901524538E-3,-3.817795310E-3
9.177084405E0,1.817270555E-2,4.581354558E-3,-3.054236295E-3
9.186236696E0,2.504473738E-2,2.290677279E-3,-3.054236295E-3
9.195388936E0,2.565558441E-2,2.290677279E-3,-6.108472589E-3
9.204541228E0,2.504473738E-2,3.512371797E-3,-5.497625098E-3
9.213693519E0,1.939439960E-2,4.581354558E-3,-4.886778072E-3
9.222845759E0,1.328592747E-2,4.581354558E-3,-5.497625098E-3
9.231998051E0,9.009997360E-3,2.137965523E-3,-5.650337320E-3
9.241150290E0,6.566607859E-3,1.068982761E-3,-5.650337320E-3
9.250302582E0,6.566607859E-3,4.581354442E-4,-6.261184346E-3
9.259454821E0,1.084253844E-2,-7.635590737E-4,-7.482878864E-3
9.268607113E0,1.267508045E-2,4.581354442E-4,-8.093725890E-3
9.277759353E0,1.954711229E-2,3.970507067E-3,-1.099525020E-2
9.286911644E0,2.565558441E-2,8.246437646E-3,-1.466033421E-2
9.296063884E0,2.748812735E-2,1.298050396E-2,-1.649287529E-2
9.305216176E0,2.870982140E-2,1.664558798E-2,-1.588202827E-2
9.314368415E0,2.672456764E-2,2.275406010E-2,-1.404948719E-2
9.323520707E0,2.000524849E-2,2.275406010E-2,-8.551862091E-3
9.332672946E0,8.857285604E-3,2.153236605E-2,-5.039489828E-3
9.341825238E0,-5.955760833E-3,1.664558798E-2,-5.803049076E-3
9.350977478E0,-1.450762246E-2,9.315420873E-3,-8.246437646E-3
9.360129769E0,-1.374406368E-2,-3.054236295E-4,-1.191152167E-2
9.369282009E0,-5.650337320E-3,-1.298050396E-2,-1.175880991E-2
9.378434301E0,6.719320081E-3,-2.137965336E-2,-9.926267900E-3
9.387586540E0,1.481304597E-2,-2.611372061E-2,-9.162709117E-3
9.396738832E0,1.542389300E-2,-2.489202656E-2,-9.162709117E-3
9.405891071E0,9.315420873E-3,-2.015795931E-2,-1.236965694E-2
9.415043363E0,1.832541777E-3,-1.236965694E-2,-1.542389300E-2
9.424195603E0,4.123218823E-3,-5.039489828E-3,-1.969982497E-2
9.433347894E0,1.145338640E-2,2.748812549E-3,-2.092151903E-2
9.442500134E0,2.000524849E-2,1.175880991E-2,-1.893626526E-2
9.451652426E0,2.489202656E-2,2.214321308E-2,-1.343864016E-2
9.460804665E0,2.733541466E-2,3.237490356E-2,-9.162709117E-3
9.469956957E0,2.596100792E-2,3.955236077E-2,-4.886778072E-3
9.479109249E0,2.092151903E-2,4.688252881E-2,-4.275931045E-3
9.488261488E0,1.466033421E-2,5.635065958E-2,-3.817795310E-3
9.497413728E0,1.023169141E-2,7.207997888E-2,-3.206948051E-3
9.506566019E0,8.246437646E-3,8.475505561E-2,-5.039489828E-3
9.515718311E0,8.857285604E-3,9.437590092E-2,-8.093725890E-3
9.524870551E0,1.068982668E-2,9.804098308E-2,-8.093725890E-3
9.534022842E0,1.313321572E-2,9.926267713E-2,-9.315420873E-3
9.543175082E0,1.252236869E-2,9.926267713E-2,-8.704573847E-3
9.552327374E0,9.315420873E-3,9.926267713E-2,-9.315420873E-3
9.561479613E0,5.039489828E-3,9.926267713E-2,-9.315420873E-3
9.570631905E0,3.206948051E-3,9.743013978E-2,-9.315420873E-3
9.579784144E0,7.635590620E-3,9.376505762E-2,-6.261184346E-3
9.588936436E0,1.313321572E-2,9.559759498E-2,-2.596100792E-3
9.598088676E0,1.679829881E-2,9.620844573E-2,-2.596100792E-3
9.607240967E0,2.107422985E-2,1.004843712E-1,-3.817795310E-3
9.616393207E0,2.657185495E-2,1.029277667E-1,-4.275931045E-3
9.625545499E0,3.466558084E-2,1.047603041E-1,-4.886778072E-3
9.634697738E0,4.138490185E-2,1.094943732E-1,-3.054236295E-3
9.643850030E0,4.672981426E-2,1.168245375E-1,1.985253533E-3
9.653002321E0,4.978405312E-2,1.240019947E-1,6.872031838E-3
9.662154561E0,5.100574717E-2,1.307213157E-1,9.315420873E-3
9.671306853E0,5.207473040E-2,1.354553849E-1,9.926267900E-3
9.680459092E0,5.329642445E-2,1.397313178E-1,8.704573847E-3
9.689611384E0,5.573981255E-2,1.427855492E-1,5.650337320E-3
9.698763624E0,5.451811850E-2,1.475196183E-1,1.985253533E-3
9.707915915E0,5.085303262E-2,1.516428292E-1,-5.344913341E-3
9.717068155E0,4.153761268E-2,1.540862173E-1,-1.221694518E-2
9.726220446E0,2.870982140E-2,1.553079188E-1,-1.969982497E-2
9.735372686E0,1.511846948E-2,1.504211426E-1,-2.397575416E-2
9.744524978E0,1.679830020E-3,1.437018216E-1,-2.290677279E-2
9.753677217E0,-8.093725890E-3,1.353026628E-1,-2.290677279E-2
9.762829509E0,-1.481304597E-2,1.244601309E-1,-2.168507688E-2
9.771981749E0,-1.710372418E-2,1.081199646E-1,-2.351761982E-2
9.781134040E0,-1.634016447E-2,9.239064902E-2,-2.657185495E-2
9.790286332E0,-9.468132630E-3,8.276980370E-2,-2.779355086E-2
9.799438571E0,2.290677279E-3,7.498150319E-2,-3.008422814E-2
9.808590863E0,1.832541823E-2,7.330167294E-2,-3.069507517E-2
9.817743103E0,3.191677108E-2,7.620319724E-2,-2.932066843E-2
9.826895394E0,4.107947648E-2,8.108997345E-2,-2.733541466E-2
9.836047634E0,4.718795046E-2,8.719844371E-2,-2.794626169E-2
9.845199926E0,5.024218559E-2,9.559759498E-2,-3.100049868E-2
9.854352165E0,5.696150661E-2,1.039967462E-1,-3.038965166E-2
9.863504457E0,6.841489673E-2,1.166718230E-1,-2.962609194E-2
9.872656696E0,8.567132801E-2,1.305686086E-1,-3.084778599E-2
9.881808988E0,1.058292910E-1,1.426328421E-1,-2.764083818E-2
9.890961228E0,1.235438585E-1,1.546970755E-1,-2.504473738E-2
9.900113519E0,1.346918195E-1,1.632489264E-1,-2.260134928E-2
9.909265759E0,1.394258887E-1,1.710372269E-1,-2.244863659E-2
9.918418051E0,1.382041872E-1,1.728697717E-1,-2.305948362E-2
9.927570290E0,1.363716573E-1,1.716480851E-1,-2.489202656E-2
9.936722582E0,1.365243644E-1,1.656923145E-1,-2.244863659E-2
9.945874874E0,1.371352077E-1,1.530172378E-1,-2.061609551E-2
9.955027113E0,1.417165697E-1,1.330119967E-1,-1.939439960E-2
9.964179405E0,1.475196183E-1,1.072036922E-1,-2.000524849E-2
9.973331644E0,1.557660550E-1,8.002099395E-2,-2.351761982E-2
9.982483936E0,1.652341783E-1,5.238015205E-2,-2.718270384E-2
9.991636176E0,1.765348613E-1,2.519745007E-2,-2.702999115E-2
1.000078847E1,1.890572309E-1,1.832541777E-3,-2.626643144E-2
1.000994071E1,2.015796006E-1,-1.985253580E-2,-2.504473738E-2
1.001909300E1,2.141019702E-1,-4.153761268E-2,-2.305948362E-2
1.002824529E1,2.296785712E-1,-5.909947306E-2,-2.535016090E-2
1.003739753E1,2.521272004E-1,-7.650861889E-2,-2.641914412E-2
1.004654977E1,2.817533016E-1,-8.597674966E-2,-2.260134928E-2
1.005570206E1,3.229855001E-1,-8.597674966E-2,-1.313321572E-2
1.006485435E1,3.697153032E-1,-7.727217674E-2,2.443389036E-3
1.007400659E1,4.207210541E-1,-6.520794332E-2,1.740914769E-2
1.008315888E1,4.729484916E-1,-5.833591148E-2,3.313846514E-2
1.009231112E1,5.314370990E-1,-5.711421743E-2,4.932591692E-2
1.010146342E1,6.029062271E-1,-6.352811307E-2,6.276455522E-2
1.011061566E1,6.948387623E-1,-7.773031294E-2,8.108997345E-2
1.011976795E1,8.108997345E-1,-1.021642014E-1,1.099525094E-1
1.012892019E1,9.515473247E-1,-1.415638477E-1,1.519482583E-1
1.013807248E1,1.105938911E0,-2.073826492E-1,2.044811249E-1
1.014722477E1,1.279266834E0,-3.038965166E-1,2.582356930E-1
1.015637701E1,1.466796994E0,-4.274403751E-1,3.096995652E-1
1.016552930E1,1.670056462E0,-5.625903010E-1,3.533751369E-1
1.017468154E1,1.884463787E0,-7.122479081E-1,3.836120665E-1
1.018383383E1,2.099940062E0,-8.955020905E-1,4.005630910E-1
1.019297331E1,2.306711912E0,-1.066997409E0,3.965925872E-1
1.020213836E1,2.508596897E0,-1.171604991E0,3.773508966E-1
1.021129060E1,2.702388287E0,-1.260025144E0,3.489464819E-1
1.022043013E1,2.873120070E0,-1.312252641E0,3.239017725E-1
1.022959519E1,2.994831324E0,-1.250098944E0,2.997733057E-1
1.023874743E1,3.013156891E0,-1.095249176E0,2.728960216E-1
1.024788696E1,2.881519318E0,-8.267817497E-1,2.466295809E-1
1.025705196E1,2.611677408E0,-5.567872524E-1,2.141019702E-1
1.026620425E1,2.303352356E0,-4.370612204E-1,1.672194302E-1
1.027534373E1,2.035953999E0,-4.889832437E-1,9.819369763E-2
1.028450878E1,1.861251593E0,-6.340594292E-1,3.542914242E-2
1.029366102E1,1.786575556E0,-7.518002391E-1,4.428642802E-3
1.030281331E1,1.789782524E0,-7.925743461E-1,5.024218559E-2
1.031196560E1,1.847507477E0,-7.463026643E-1,1.763821393E-1
1.032111784E1,1.936080337E0,-6.569662094E-1,3.187095523E-1
1.033025737E1,2.011519909E0,-5.131117105E-1,4.094203711E-1
1.033942237E1,2.045574665E0,-3.501681983E-1,4.462239146E-1
1.034857467E1,2.039313555E0,-2.658712566E-1,4.448495209E-1
1.035772690E1,2.014574289E0,-3.153499067E-1,4.129327536E-1
1.036687920E1,1.971509576E0,-4.410317242E-1,3.553603888E-1
1.037603144E1,1.907981396E0,-5.955760479E-1,2.829749882E-1
1.038517097E1,1.819103122E0,-7.617265582E-1,2.226538211E-1
1.039433597E1,1.713121176E0,-9.054283500E-1,1.963873953E-1
1.040348826E1,1.639666796E0,-1.027903199E0,2.020377368E-1
1.041264055E1,1.617981672E0,-1.100135922E0,2.257080674E-1
1.042179279E1,1.626991630E0,-1.086086392E0,2.576248348E-1
1.043094508E1,1.623021126E0,-1.006981730E0,2.800734639E-1
1.044009732E1,1.580414534E0,-9.216157794E-1,2.846548259E-1
1.044924961E1,1.505891204E0,-8.620582223E-1,2.706053257E-1
1.045840185E1,1.417165637E0,-8.425110579E-1,2.400629669E-1
1.046755414E1,1.324469566E0,-8.674030900E-1,2.064663768E-1
1.047670638E1,1.231009960E0,-8.658760190E-1,1.630962193E-1
1.048585868E1,1.142895222E0,-8.596147895E-1,1.160609797E-1
1.049501097E1,1.050504565E0,-8.364025950E-1,7.742489129E-2
1.050416321E1,9.513946176E-1,-7.734853625E-1,4.611896724E-2
1.051331550E1,8.454126120E-1,-6.971294284E-1,1.725643501E-2
1.052246774E1,7.295043468E-1,-6.155813336E-1,-3.206948051E-3
1.053162003E1,6.074876189E-1,-5.367820263E-1,-2.367033064E-2
1.054077232E1,4.816530645E-1,-4.593571424E-1,-4.230117425E-2
1.054992456E1,3.584146202E-1,-3.897205591E-1,-4.627167806E-2
1.055907685E1,2.414373755E-1,-3.303156495E-1,-4.535540938E-2
1.056822909E1,1.305686086E-1,-2.791571915E-1,-3.756710514E-2
1.057738138E1,3.298575059E-2,-2.527380586E-1,-1.924168877E-2
1.058653362E1,-5.512896553E-2,-2.774773538E-1,1.618745178E-2
1.059568592E1,-1.586675793E-1,-3.112266660E-1,6.306997687E-2
1.060483816E1,-2.909159958E-1,-2.768665254E-1,1.023169160E-1
1.061399045E1,-4.411844313E-1,-1.788255423E-1,1.305686086E-1
1.062314274E1,-5.917583108E-1,-8.674030751E-2,1.551551968E-1
1.063229498E1,-7.359182239E-1,-3.802524135E-2,1.844758689E-1
1.064144727E1,-8.342646360E-1,-8.811471611E-2,2.052446753E-1
1.065059951E1,-7.650861740E-1,-2.429644912E-1,2.046338320E-1
1.065975180E1,-5.190674663E-1,-4.402681589E-1,1.661504507E-1
1.066890404E1,-2.554868758E-1,-5.926745534E-1,9.559759498E-2
1.067805633E1,-9.177979827E-2,-6.757497787E-1,1.130067464E-2
1.068719586E1,-2.046338283E-2,-7.453863621E-1,-7.116370648E-2
1.069636086E1,4.566083103E-2,-9.407047629E-1,-1.420219839E-1
1.070551316E1,1.333174109E-1,-1.005301833E0,-1.939440072E-1
1.071465269E1,1.892099380E-1,-5.641174316E-1,-1.939440072E-1
1.072381769E1,1.579040140E-1,-1.029277667E-1,-1.540862173E-1
1.073296998E1,1.527118147E-4,-7.406523079E-2,-7.956285775E-2
1.074210946E1,-2.137965411E-1,-2.070772201E-1,5.833591148E-2
1.075127451E1,-3.744493723E-1,-1.088835225E-1,2.451024652E-1
1.076042675E1,-4.573718905E-1,1.290414780E-1,4.239279926E-1
1.076956628E1,-5.068505406E-1,3.220692277E-1,5.034908652E-1
1.077873128E1,-5.783196688E-1,5.494571328E-1,4.251496792E-1
1.078788357E1,-6.540647149E-1,7.632536292E-1,2.669402659E-1
1.079702310E1,-6.920899153E-1,7.475243211E-1,1.330119967E-1
1.080618810E1,-6.966713071E-1,5.268557668E-1,6.291726977E-2
1.081534039E1,-6.939224601E-1,2.272351831E-1,3.436015919E-2
1.082447987E1,-6.891884208E-1,-9.407047927E-2,1.634016447E-2
1.083364493E1,-6.752916574E-1,-3.943018913E-1,-6.566607859E-3
1.084279722E1,-6.305471063E-1,-6.377245188E-1,-2.061609551E-2
1.085193670E1,-5.694623590E-1,-7.380561829E-1,-7.330167107E-3
1.086110175E1,-5.125008225E-1,-7.064448595E-1,4.489727318E-2
1.087025399E1,-4.607315361E-1,-6.001574397E-1,1.166718230E-1
1.087939352E1,-4.243861437E-1,-4.159869850E-1,1.895153672E-1
1.088855852E1,-4.370612204E-1,-1.241547018E-1,2.301367074E-1
1.089771081E1,-5.066977739E-1,2.348707765E-1,2.170034945E-1
1.090685034E1,-6.021426916E-1,5.870242119E-1,1.721062213E-1
1.091601534E1,-7.099572420E-1,8.718317747E-1,1.284306347E-1
1.092516763E1,-8.244910836E-1,1.096776247E0,9.636115283E-2
1.093430716E1,-9.126058221E-1,1.166565537E0,8.108997345E-2
1.094347217E1,-1.012326598E0,1.153585076E0,7.543963939E-2
1.095262440E1,-1.128082156E0,1.137244940E0,7.406523079E-2
1.096176394E1,-1.244143128E0,1.159388065E0,7.620319724E-2
1.097092899E1,-1.340198874E0,1.147171140E0,6.520794332E-2
1.098008123E1,-1.379140377E0,1.032942772E0,3.939964995E-2
1.098922076E1,-1.375017166E0,8.605310917E-1,1.817270555E-2
1.099838576E1,-1.358066201E0,6.815528274E-1,1.603474095E-2
1.100753805E1,-1.349361539E0,5.305208564E-1,3.451287001E-2
1.101667758E1,-1.332105160E0,3.631486893E-1,7.986827940E-2
1.102584258E1,-1.324011445E0,2.657185495E-1,1.466033459E-1
1.103499487E1,-1.327218413E0,1.780619770E-1,2.205158621E-1
1.104414711E1,-1.313321590E0,3.436015919E-2,2.915268540E-1
1.105329940E1,-1.316070437E0,-4.672981426E-2,3.556658030E-1
1.106245170E1,-1.323706031E0,-4.230117425E-2,4.112529159E-1
1.107159118E1,-1.302479029E0,-1.389677543E-2,4.460712075E-1
1.108075623E1,-1.230704546E0,2.183778957E-2,4.466820657E-1
1.108990847E1,-1.121362805E0,2.367033064E-2,4.004103839E-1
1.109906076E1,-1.011104941E0,-1.221694518E-3,3.052709103E-1
1.110821300E1,-9.303203821E-1,-8.246437646E-3,1.721062213E-1
1.111736529E1,-8.834378719E-1,4.856235534E-2,3.206948191E-2
1.112651758E1,-8.686248064E-1,1.692046970E-1,-7.421794534E-2
1.113566982E1,-8.776348233E-1,3.016058207E-1,-1.397313178E-1
1.114482211E1,-8.884773254E-1,4.388937652E-1,-1.575985998E-1
1.115397435E1,-8.967237473E-1,5.769452453E-1,-1.259872466E-1
1.116312664E1,-9.087880254E-1,7.284353375E-1,-5.482354015E-2
1.117227894E1,-9.352071285E-1,8.837432861E-1,4.016320780E-2
1.118143118E1,-9.645278454E-1,1.014770031E0,1.333174109E-1
1.119058347E1,-9.746068120E-1,1.077687263E0,2.150182426E-1
1.119973571E1,-9.668185115E-1,1.066539288E0,2.742704153E-1
1.120888800E1,-9.640696645E-1,1.029430389E0,3.171824515E-1
1.121804029E1,-9.772028923E-1,9.588775039E-1,3.469612300E-1
1.122719253E1,-9.909469485E-1,8.383878469E-1,3.622324169E-1
1.123634482E1,-9.953756332E-1,6.913263798E-1,3.678827584E-1
1.124549706E1,-9.927794933E-1,5.546492934E-1,3.709369898E-1
1.125464935E1,-1.004232883E0,4.466820657E-1,3.837648034E-1
1.126380164E1,-1.017824292E0,2.991624475E-1,4.008685052E-1
1.127295388E1,-1.001789451E0,1.629435122E-1,3.944546282E-1
1.128210618E1,-9.823951125E-1,1.466033459E-1,3.555130959E-1
1.129124571E1,-9.727742672E-1,1.969982386E-1,2.962609231E-1
1.130041071E1,-9.691091776E-1,3.063398898E-1,2.180724740E-1
1.130956300E1,-9.788827300E-1,4.753918648E-1,1.391204596E-1
1.131870248E1,-9.917105436E-1,6.360446811E-1,6.505523622E-2
1.132786753E1,-1.011563063E0,8.225058317E-1,3.054236295E-3
1.133701977E1,-1.031262875E0,1.044090629E0,-4.428642616E-2
1.134617206E1,-1.034775257E0,1.263384819E0,-7.925742865E-2
1.135532435E1,-1.066997409E0,1.489856482E0,-9.788827598E-2
1.136447659E1,-1.097997904E0,1.601794243E0,-1.146865711E-1
1.137361612E1,-1.089751482E0,1.575833201E0,-1.372879148E-1
1.138278112E1,-1.077076435E0,1.485275149E0,-1.591257155E-1
1.139193342E1,-1.092042208E0,1.364632726E0,-1.743968874E-1
1.140108571E1,-1.118155956E0,1.248877168E0,-1.750077456E-1
1.141023795E1,-1.130525589E0,1.182142138E0,-1.659977436E-1
1.141939024E1,-1.125944257E0,1.093416572E0,-1.737860441E-1
1.142854253E1,-1.097845197E0,9.277243018E-1,-2.089097649E-1
1.143769477E1,-1.046381354E0,8.400676847E-1,-2.481566966E-1
1.144684706E1,-9.940012097E-1,8.420529366E-1,-2.667875290E-1
1.145599930E1,-9.576557875E-1,8.438854814E-1,-2.628170252E-1
1.146515159E1,-9.469659925E-1,8.324320912E-1,-2.632751763E-1
1.147430388E1,-9.303203821E-1,8.222004175E-1,-2.699944973E-1
1.148345612E1,-9.138274789E-1,8.498412371E-1,-2.808370292E-1
1.149260842E1,-9.126058221E-1,9.281824231E-1,-2.991624475E-1
1.150176066E1,-8.985562921E-1,1.028208613E0,-3.187095523E-1
1.151091295E1,-8.617527485E-1,1.047450304E0,-3.336753249E-1
1.152006524E1,-8.032641411E-1,9.138274789E-1,-3.533751369E-1
1.152921748E1,-7.377507687E-1,7.021689415E-1,-3.802524209E-1
1.153836977E1,-6.971294284E-1,5.274665952E-1,-4.085040987E-1
1.154752201E1,-7.062921524E-1,4.440859556E-1,-4.286620617E-1
1.155667430E1,-7.110261917E-1,4.833329022E-1,-4.158342779E-1
1.156582659E1,-6.598677635E-1,5.354076028E-1,-3.581092060E-1
1.157497883E1,-5.523586273E-1,5.305208564E-1,-2.670929730E-1
1.158413112E1,-4.169032574E-1,4.298837483E-1,-1.713426560E-1
1.159328336E1,-3.022166789E-1,2.519744933E-1,-1.044548824E-1
1.160243566E1,-2.426590770E-1,5.573981255E-2,-8.872556686E-2
1.161158795E1,-2.339545041E-1,-6.917845458E-2,-1.207950488E-1
1.162074019E1,-2.672456801E-1,-4.703523964E-2,-1.650814712E-1
1.162989248E1,-3.200839758E-1,9.009996802E-2,-1.930277348E-1
1.163904477E1,-3.633013964E-1,2.310529798E-1,-2.020377368E-1
1.164819701E1,-3.697153032E-1,3.437542915E-1,-2.069245130E-1
1.165734930E1,-3.216110766E-1,4.081986845E-1,-2.163926363E-1
1.166650154E1,-1.872246861E-1,4.120164812E-1,-2.203631550E-1
1.167564107E1,5.283828825E-2,3.564293683E-1,-1.924168915E-1
1.168480612E1,4.081986845E-1,2.319692522E-1,-1.244601309E-1
1.169395836E1,8.573241234E-1,1.130067464E-2,-3.924693540E-2
1.170311066E1,1.340962410E0,-3.474193811E-1,3.344388679E-2
1.171226289E1,1.779398084E0,-8.167027831E-1,7.406523079E-2
1.172141519E1,2.151251316E0,-1.322178841E0,8.307522535E-2
1.173056748E1,2.482177734E0,-1.796501756E0,7.055285573E-2
1.173971972E1,2.806232214E0,-2.120250940E0,4.993676394E-2
1.174887201E1,3.102951288E0,-2.195995808E0,9.926267900E-3
1.175801154E1,3.399364948E0,-1.947991967E0,-5.589252338E-2
1.176717654E1,3.667221546E0,-1.523605824E0,-1.282779276E-1
1.177632883E1,3.847421408E0,-1.184280157E0,-1.791309565E-1
1.178548107E1,3.929275036E0,-1.038287640E0,-1.731752008E-1
1.179463336E1,3.961344481E0,-1.011410356E0,-8.628217876E-2
1.180378566E1,3.967147589E0,-1.043174386E0,8.231166750E-2
1.181292519E1,3.926678896E0,-1.032942772E0,3.013004065E-1
1.182209019E1,3.821765900E0,-9.110786915E-1,5.068505406E-1
1.183124248E1,3.665389061E0,-7.956285477E-1,6.723901033E-1
1.184038196E1,3.518174887E0,-7.893673778E-1,7.853968740E-1
1.184954701E1,3.445483923E0,-8.826742768E-1,8.374716043E-1
1.185869930E1,3.482287407E0,-1.015228152E0,8.525900841E-1
1.186783878E1,3.621713400E0,-1.148240089E0,8.261709213E-1
1.187700383E1,3.801760674E0,-1.194511771E0,7.689039707E-1
1.188615607E1,3.941644669E0,-1.093416572E0,7.014053464E-1
1.189529560E1,3.983182192E0,-8.982508779E-1,6.427640319E-1
1.190446066E1,3.899343491E0,-6.067240238E-1,6.366555691E-1
1.191361289E1,3.768011332E0,-3.483356535E-1,6.812474132E-1
1.192275243E1,3.658822298E0,-1.548497826E-1,7.371399403E-1
1.193191748E1,3.541692495E0,-2.657185495E-2,7.722636461E-1
1.194106972E1,3.392493010E0,3.481829539E-2,7.937960029E-1
1.195020925E1,3.219775915E0,4.779879749E-2,8.047912717E-1
1.195937430E1,3.048585892E0,-4.046862945E-2,8.005153537E-1
1.196852654E1,2.894041538E0,-1.956238300E-1,7.744016051E-1
1.197766607E1,2.759807825E0,-3.924693763E-1,7.340856791E-1
1.198683107E1,2.643288851E0,-5.784723759E-1,6.722373962E-1
1.199598336E1,2.518676043E0,-7.440119386E-1,6.000047326E-1
1.200512289E1,2.368865728E0,-8.976400495E-1,5.190674663E-1
1.201428789E1,2.191414595E0,-1.012784719E0,4.471401870E-1
1.202344019E1,2.017781258E0,-1.067608237E0,3.652866483E-1
1.203257972E1,1.861098886E0,-1.086849928E0,2.994678617E-1
1.204174472E1,1.700140595E0,-1.063179612E0,2.440334857E-1
1.205089701E1,1.497797489E0,-1.013090134E0,1.881409585E-1
1.206003654E1,1.265217423E0,-9.648332596E-1,1.432436854E-1
1.206920154E1,1.018129706E0,-8.930587173E-1,1.053711548E-1
1.207835383E1,7.857022882E-1,-8.012788892E-1,7.803573459E-2
1.208749331E1,5.665608048E-1,-6.739172339E-1,5.619794875E-2
1.209665836E1,3.463504016E-1,-5.184566379E-1,2.947338112E-2
1.210581066E1,1.236965731E-1,-3.483356535E-1,1.252236869E-2
1.211496289E1,-7.284353673E-2,-1.647760421E-1,1.893626526E-2
1.212411519E1,-2.347180545E-1,7.635590737E-4,5.741964281E-2
1.213326748E1,-3.758237660E-1,1.110214889E-1,1.064401343E-1
1.214241972E1,-5.094466209E-1,1.658450365E-1,1.377460510E-1
1.215157201E1,-6.390989423E-1,1.740914732E-1,1.557660550E-1
1.216072425E1,-7.777612805E-1,1.088835225E-1,1.597365588E-1
1.216987654E1,-8.997780085E-1,-3.420744836E-2,1.437018216E-1
1.217902883E1,-9.749122262E-1,-2.321219593E-1,1.029277667E-1
1.218818107E1,-1.008814216E0,-3.391729295E-1,2.947338112E-2
1.219732060E1,-1.071273327E0,-1.992889196E-1,-7.360709459E-2
1.220648566E1,-1.173895717E0,2.513636351E-1,-2.052446753E-1
1.221563789E1,-1.185196400E0,7.569924593E-1,-3.437542915E-1
1.222477743E1,-9.886562824E-1,8.721371889E-1,-4.425588250E-1
1.223394248E1,-7.828007340E-1,6.077930331E-1,-4.665345848E-1
1.224309472E1,-8.600729704E-1,1.180462316E-1,-4.008685052E-1
1.225223425E1,-1.215891480E0,-4.773771465E-1,-2.690782249E-1
1.226139925E1,-1.456870675E0,-6.403206587E-1,-6.856760383E-2
1.227055154E1,-1.351499557E0,-2.076880634E-1,1.919587553E-1
1.227969107E1,-1.174353838E0,7.773031294E-2,3.938437700E-1
1.228885607E1,-1.300951958E0,1.652341783E-1,4.479037523E-1
1.229800836E1,-1.685174823E0,2.269297540E-1,3.742966652E-1
1.230716066E1,-1.797876239E0,1.238492802E-1,2.586938143E-1
1.231631289E1,-1.613094926E0,1.504211426E-1,2.130329758E-1
1.232546519E1,-1.618592501E0,4.314108789E-1,2.286095917E-1
1.233460472E1,-1.837581277E0,6.557445526E-1,2.391466945E-1
1.234376972E1,-1.984031916E0,6.212316751E-1,2.533488870E-1
1.235292201E1,-1.934400558E0,4.871506989E-1,3.136700690E-1
1.236206154E1,-1.823226333E0,3.352024257E-1,4.086568058E-1
1.237122654E1,-1.795738220E0,2.538070381E-1,5.138752460E-1
1.238037883E1,-1.789935231E0,1.734806150E-1,6.026008129E-1
1.238953112E1,-1.704111099E0,5.757235363E-2,6.667397618E-1
1.239868336E1,-1.620883226E0,-3.924693540E-2,7.113316059E-1
1.240783566E1,-1.572320819E0,-1.681357026E-1,7.301151752E-1
1.241698795E1,-1.516886473E0,-4.271349311E-1,7.136223316E-1
1.242614019E1,-1.453358293E0,-6.971294284E-1,6.777350307E-1
1.243529248E1,-1.400978208E0,-8.231166601E-1,6.468872428E-1
1.244443201E1,-1.370741248E0,-7.991409302E-1,6.160394549E-1
1.245359701E1,-1.333021402E0,-7.256865501E-1,5.557183027E-1
1.246274930E1,-1.248877168E0,-6.519267559E-1,4.469874799E-1
1.247188883E1,-1.184432864E0,-5.456393361E-1,3.185568452E-1
1.248105383E1,-1.164733052E0,-4.092676640E-1,1.885990947E-1
1.249020612E1,-1.175117373E0,-2.344126403E-1,6.612421572E-2
1.249935842E1,-1.189472318E0,-3.176405653E-2,-3.665083647E-2
1.250851066E1,-1.205354333E0,2.119639963E-1,-1.151447073E-1
1.251766295E1,-1.202758312E0,4.233171642E-1,-1.640124917E-1
1.252681524E1,-1.180462360E0,5.618267655E-1,-1.798945218E-1
1.253596748E1,-1.157402873E0,6.583406329E-1,-1.614163816E-1
1.254511977E1,-1.141520858E0,7.266027927E-1,-1.333174109E-1
1.255427201E1,-1.121515512E0,8.344173431E-1,-1.235438585E-1
1.256342430E1,-1.108076930E0,9.188669920E-1,-1.313321590E-1
1.257257659E1,-1.089446068E0,9.863656163E-1,-1.594311297E-1
1.258172888E1,-1.066233873E0,1.041036487E0,-2.038702667E-1
1.259088112E1,-1.063026905E0,1.120904684E0,-2.564031482E-1
1.260003342E1,-1.105175376E0,1.232842445E0,-2.983988822E-1
1.260918566E1,-1.143811464E0,1.291178346E0,-3.329117596E-1
1.261833795E1,-1.152210593E0,1.349514365E0,-3.561239541E-1
1.262749024E1,-1.144880533E0,1.427244663E0,-3.646758199E-1
1.263664248E1,-1.118614078E0,1.458550572E0,-3.663556576E-1
1.264579477E1,-1.104411840E0,1.457939744E0,-3.668137789E-1
1.265494706E1,-1.123042703E0,1.476570487E0,-3.689517379E-1
1.266409930E1,-1.160609841E0,1.530783176E0,-3.666610718E-1
1.267325159E1,-1.217876673E0,1.606070161E0,-3.597890437E-1
1.268240388E1,-1.285528064E0,1.658908486E0,-3.579564989E-1
1.269155612E1,-1.348292589E0,1.641957402E0,-3.633013964E-1
1.270070842E1,-1.367839694E0,1.549719453E0,-3.742966652E-1
1.270986071E1,-1.373642802E0,1.512915969E0,-3.742966652E-1
1.271901295E1,-1.387234092E0,1.453358293E0,-3.603998721E-1
1.272816524E1,-1.442668557E0,1.364021897E0,-3.472666740E-1
1.273731753E1,-1.469851255E0,1.231468081E0,-3.338280320E-1
1.274645706E1,-1.321415305E0,1.094332814E0,-3.272614181E-1
1.275562206E1,-1.072342396E0,1.027903199E0,-3.358132839E-1
1.276477435E1,-9.819369912E-1,9.875873327E-1,-3.602471650E-1
1.277392664E1,-1.131289124E0,8.913788795E-1,-4.008685052E-1
1.278307888E1,-1.291789293E0,7.246175408E-1,-4.268295169E-1
1.279223118E1,-1.283542752E0,6.180247068E-1,-4.188885093E-1
1.280138342E1,-1.165954709E0,6.175665855E-1,-4.014793634E-1
1.281053571E1,-1.098914266E0,6.377245188E-1,-3.955236077E-1
1.281968800E1,-1.094332814E0,5.387672782E-1,-4.028537571E-1
1.282884024E1,-1.063332319E0,3.953709006E-1,-4.280512035E-1
1.283799253E1,-1.002094984E0,3.217637837E-1,-4.764608741E-1
1.284714482E1,-9.378032684E-1,3.396310806E-1,-5.396835804E-1
1.285629706E1,-8.721371889E-1,4.081986845E-1,-6.088619828E-1
1.286544935E1,-8.139539957E-1,4.025483429E-1,-6.853706241E-1
1.287460164E1,-7.792884111E-1,3.373403847E-1,-7.369872332E-1
1.288375394E1,-7.469134927E-1,3.819322586E-1,-7.476770282E-1
1.289290618E1,-6.843016148E-1,5.412106514E-1,-7.247702479E-1
1.290205847E1,-5.850389600E-1,7.301151752E-1,-6.809419990E-1
1.291119800E1,-4.494308829E-1,8.420529366E-1,-6.183301210E-1
1.292036300E1,-2.554868758E-1,8.252546191E-1,-5.448757410E-1
1.292951529E1,-3.359660041E-3,7.012526393E-1,-4.587462842E-1
1.293865482E1,2.929012477E-1,4.790569544E-1,-3.617742956E-1
1.294781982E1,6.073349118E-1,1.618745178E-1,-2.646495700E-1
1.295697211E1,9.448279738E-1,-1.994416267E-1,-1.754658818E-1
1.296611164E1,1.319582820E0,-5.346440673E-1,-8.338065445E-2
1.297527664E1,1.699987888E0,-7.278245091E-1,9.315420873E-3
1.298442894E1,2.024195194E0,-6.943806410E-1,9.407047927E-2
1.299356847E1,2.245321751E0,-5.016583204E-1,1.514901221E-1
1.300273347E1,2.403073072E0,-1.559187621E-1,1.768402755E-1
1.301188576E1,2.542804480E0,1.479777545E-1,1.940967143E-1
1.302102529E1,2.693225622E0,5.680879578E-2,2.325800955E-1
1.303019029E1,2.796306133E0,-3.739912212E-1,3.446705639E-1
1.303934258E1,2.869760513E0,-9.672766328E-1,5.599942207E-1
1.304848211E1,2.969939470E0,-1.623479247E0,8.389987350E-1
1.305764711E1,3.079433680E0,-2.202562571E0,1.091125965E0
1.306679941E1,3.135020733E0,-2.563573122E0,1.208408594E0
1.307593894E1,3.128607035E0,-2.703762770E0,1.138313890E0
1.308510394E1,3.115320921E0,-2.786532402E0,9.361234307E-1
1.309425623E1,3.138838530E0,-2.886864185E0,6.841489077E-1
1.310339576E1,3.208780766E0,-2.786379814E0,4.475983381E-1
1.311256076E1,3.324078083E0,-2.497143507E0,2.730487287E-1
1.312171305E1,3.451134205E0,-2.161330223E0,2.504473627E-1
1.313085258E1,3.524741411E0,-1.648065925E0,3.116848171E-1
1.314001758E1,3.553909302E0,-9.541434050E-1,4.078932703E-1
1.314916987E1,3.506110668E0,-2.166980654E-1,5.279247165E-1
1.315830940E1,3.354162216E0,3.944546282E-1,6.546755433E-1
1.316747440E1,3.124636412E0,8.243383765E-1,8.003626466E-1
1.317662670E1,2.892667294E0,1.080130696E0,9.426900148E-1
1.318576623E1,2.740413427E0,1.092347622E0,1.048519373E0
1.319493123E1,2.686506271E0,8.965710402E-1,1.080588818E0
1.320408352E1,2.665431976E0,6.539120078E-1,1.030041218E0
1.321322305E1,2.608775854E0,4.237752855E-1,9.106205702E-1
1.322238810E1,2.507680655E0,1.472141892E-1,7.715001106E-1
1.323154034E1,2.388260126E0,-1.542389393E-1,6.470399499E-1
1.324067987E1,2.266090631E0,-4.440859556E-1,5.376983285E-1
1.324984493E1,2.130787849E0,-7.122479081E-1,4.300364852E-1
1.325899716E1,1.989071369E0,-9.437590241E-1,3.148917556E-1
1.326814946E1,1.830251098E0,-1.131136417E0,2.150182426E-1
1.327730175E1,1.644553542E0,-1.273311138E0,1.449235082E-1
1.328645399E1,1.436101913E0,-1.376238823E0,9.391776472E-2
1.329559352E1,1.213753462E0,-1.444348335E0,5.207473040E-2
1.330475857E1,9.782719016E-1,-1.416554809E0,2.901524538E-3
1.331391081E1,7.377507687E-1,-1.306754947E0,-4.840964451E-2
1.332305034E1,5.114318728E-1,-1.158471823E0,-7.207997888E-2
1.333221539E1,3.087832928E-1,-9.636115432E-1,-7.177454978E-2
1.334136769E1,1.142284349E-1,-7.096518278E-1,-6.612421572E-2
1.335050722E1,-7.681404054E-2,-4.422534108E-1,-5.360184610E-2
1.335967222E1,-2.423536479E-1,-1.930277348E-1,-4.260659590E-2
1.336882451E1,-3.752129376E-1,6.108472496E-2,-4.566083103E-2
1.337797675E1,-5.083776116E-1,3.242071867E-1,-5.467082933E-2
1.338712904E1,-6.748335361E-1,5.468609929E-1,-3.955236077E-2
1.339628133E1,-8.779402375E-1,5.743491650E-1,-1.420219894E-2
1.340542086E1,-1.117697716E0,4.155288339E-1,-8.399149403E-3
1.341458586E1,-1.351652265E0,1.956238300E-1,-5.253286287E-2
1.342373816E1,-1.482220888E0,1.107160673E-1,-1.615691036E-1
1.343287769E1,-1.355164647E0,3.874298632E-1,-3.208475113E-1
1.344204269E1,-9.555178285E-1,1.054627776E0,-4.711159468E-1
1.345119498E1,-6.380299330E-1,1.437476277E0,-5.725166202E-1
1.346033451E1,-6.123743653E-1,6.693359017E-1,-6.554391384E-1
1.346949951E1,-9.048175216E-1,-6.612421870E-1,-7.145385742E-1
1.347865180E1,-1.603321314E0,-1.088835239E0,-6.812474132E-1
1.348779133E1,-2.110782623E0,-1.395785958E-1,-4.179722369E-1
1.349695638E1,-1.915464282E0,9.749122262E-1,4.230117425E-2
1.350610862E1,-1.680898905E0,1.245059371E0,4.278984964E-1
1.351524816E1,-1.929971933E0,4.314108789E-1,5.335750580E-1
1.352441321E1,-1.884769201E0,2.603736520E-1,5.456393361E-1
1.353356545E1,-1.561172843E0,7.921161652E-1,6.323796511E-1
1.354270498E1,-1.548497796E0,9.352071285E-1,6.733064055E-1
1.355187003E1,-1.711593986E0,5.977140665E-1,5.984776020E-1
1.356102232E1,-1.752978921E0,1.644706279E-1,4.801259339E-1
1.357016180E1,-1.706096411E0,-1.345391124E-1,3.871244490E-1
1.357932685E1,-1.709303379E0,-2.612899244E-1,3.640649617E-1
1.358847914E1,-1.720451355E0,-4.679090083E-1,3.952181637E-1
1.359763138E1,-1.631725788E0,-8.286142945E-1,4.254551232E-1
1.360678368E1,-1.512915969E0,-1.083184958E0,4.198047817E-1
1.361593597E1,-1.455190897E0,-1.108076930E0,3.787252903E-1
1.362507550E1,-1.439767003E0,-9.527690411E-1,3.329117596E-1
1.363424050E1,-1.430451512E0,-7.377507687E-1,2.956500649E-1
1.364339279E1,-1.411973476E0,-5.853443742E-1,2.632751763E-1
1.365254508E1,-1.377766013E0,-4.582881629E-1,2.371614426E-1
1.366169732E1,-1.356233597E0,-3.089359999E-1,2.127275616E-1
1.367084961E1,-1.361883998E0,-1.366770715E-1,1.893626451E-1
1.368000191E1,-1.352263093E0,3.313846514E-2,1.673721522E-1
1.368915414E1,-1.328745484E0,1.693574041E-1,1.582094431E-1
1.369830644E1,-1.303700805E0,2.556395829E-1,1.663031727E-1
1.370744597E1,-1.258650780E0,3.153499067E-1,1.708845198E-1
1.371661102E1,-1.185196400E0,3.738385141E-1,1.591257155E-1
1.372576326E1,-1.152821541E0,5.057815313E-1,1.293469071E-1
1.373491555E1,-1.128387570E0,6.082511544E-1,1.006370857E-1
1.374406784E1,-1.108229637E0,7.003363967E-1,7.391251624E-2
1.375322008E1,-1.089751482E0,8.182299137E-1,6.261184346E-3
1.376237237E1,-1.088071704E0,1.014311910E0,-9.590301663E-2
1.377152467E1,-1.079977989E0,1.188097954E0,-1.887518018E-1
1.378067696E1,-1.052795291E0,1.296370625E0,-2.681619525E-1
1.378982920E1,-1.019351363E0,1.381736517E0,-3.289412558E-1
1.379898149E1,-1.021489382E0,1.419456363E0,-3.704788685E-1
1.380813378E1,-1.014464617E0,1.412737012E0,-4.022429287E-1
1.381728602E1,-9.749122262E-1,1.410904408E0,-4.233171642E-1
1.382643831E1,-9.266552925E-1,1.468171358E0,-4.370612204E-1
1.383559060E1,-9.188669920E-1,1.561020136E0,-4.407263100E-1
1.384474289E1,-9.649859667E-1,1.537502527E0,-4.318690002E-1
1.385389513E1,-1.083490372E0,1.472294569E0,-4.065188468E-1
1.386304743E1,-1.215280652E0,1.522231340E0,-3.585673273E-1
1.387219972E1,-1.276823521E0,1.626686215E0,-3.060344756E-1
1.388135196E1,-1.297897696E0,1.694795728E0,-2.695363462E-1
1.389050425E1,-1.312863469E0,1.691894174E0,-2.585411072E-1
1.389964378E1,-1.270256877E0,1.700904250E0,-2.747285664E-1
1.390880883E1,-1.196497083E0,1.585759521E0,-3.034383655E-1
1.391796107E1,-1.191304922E0,1.301257372E0,-3.368822634E-1
1.392711336E1,-1.215738773E0,1.015533566E0,-3.515425920E-1
1.393626566E1,-1.182752967E0,8.263236284E-1,-3.461976945E-1
1.394541795E1,-1.119224906E0,6.781931520E-1,-3.402419090E-1
1.395457019E1,-1.103342891E0,4.824166298E-1,-3.448232710E-1
1.396372248E1,-1.099219680E0,3.112266660E-1,-3.574983478E-1
1.397287477E1,-1.063332319E0,2.406738251E-1,-3.718532622E-1
1.398201430E1,-1.002705812E0,2.105895877E-1,-3.952181637E-1
1.399117930E1,-9.698727131E-1,2.261662036E-1,-4.364503622E-1
1.400033159E1,-9.698727131E-1,3.090887070E-1,-4.822639227E-1
1.400947112E1,-9.541434050E-1,4.259132445E-1,-5.190674663E-1
1.401863612E1,-9.258917570E-1,5.850389600E-1,-5.402944088E-1
1.402778842E1,-9.174925685E-1,7.638645172E-1,-5.453338623E-1
1.403694071E1,-9.078717232E-1,8.651124239E-1,-5.557183027E-1
1.404609295E1,-8.704573512E-1,8.845068216E-1,-5.767925382E-1
1.405524524E1,-8.107470274E-1,8.506048322E-1,-6.099309921E-1
1.406439753E1,-7.670714259E-1,7.450809479E-1,-6.534538269E-1
1.407354982E1,-7.528692484E-1,6.068767309E-1,-6.923953891E-1
1.408270206E1,-7.446228266E-1,5.254813433E-1,-7.069029808E-1
1.409185435E1,-7.325585485E-1,5.473191738E-1,-6.873558760E-1
1.410100664E1,-6.772769094E-1,6.161921620E-1,-6.589514613E-1
1.411015894E1,-4.981459379E-1,6.227588058E-1,-6.099309921E-1
1.411929842E1,-2.203631550E-1,4.614951015E-1,-5.076140761E-1
1.412846347E1,1.108687744E-1,1.546970755E-1,-3.585673273E-1
1.413761576E1,4.686725736E-1,-1.731752008E-1,-2.002051920E-1
1.414676805E1,8.258655071E-1,-4.535540938E-1,-7.467607409E-2
1.415592029E1,1.177713513E0,-7.027797699E-1,6.719320081E-3
1.416507258E1,1.535670042E0,-9.194778204E-1,6.627693027E-2
1.417421211E1,1.901567459E0,-1.056154966E0,1.148392856E-1
1.418337711E1,2.206380367E0,-1.028361320E0,1.320957243E-1
1.419252940E1,2.427965164E0,-7.834116220E-1,1.383569092E-1
1.420166894E1,2.537154198E0,-5.234960914E-1,1.530172378E-1
1.421083399E1,2.582356691E0,-2.840439677E-1,1.849340051E-1
1.421998623E1,2.608623266E0,-2.072299272E-1,2.425063550E-1
1.422912576E1,2.668333530E0,-3.929274976E-1,3.345915973E-1
1.423829081E1,2.760418653E0,-7.675296068E-1,4.949389994E-1
1.424744310E1,2.862430334E0,-1.207645059E0,7.365291119E-1
1.425658263E1,2.945505381E0,-1.716938972E0,9.830059409E-1
1.426574763E1,2.991166353E0,-2.212336063E0,1.132052660E0
1.427489993E1,3.041866541E0,-2.528907537E0,1.187639832E0
1.428403946E1,3.115626335E0,-2.713994265E0,1.150378108E0
1.429320446E1,3.171671629E0,-2.766832590E0,1.007287145E0
1.430235675E1,3.180528879E0,-2.707885981E0,8.290724158E-1
1.431149628E1,3.182667017E0,-2.590450525E0,6.592568755E-1
1.432066133E1,3.198396206E0,-2.219055414E0,5.247178078E-1
1.432981357E1,3.236268759E0,-1.593089700E0,4.787515402E-1
1.433895310E1,3.246653080E0,-8.987090588E-1,5.149442554E-1
1.434811816E1,3.199617863E0,-3.066453338E-1,6.247440577E-1
1.435727039E1,3.063704491E0,1.264453828E-1,7.974610925E-1
1.436642269E1,2.862582922E0,4.088095427E-1,9.723161459E-1
1.437557498E1,2.673983812E0,5.578562617E-1,1.100899458E0
1.438472727E1,2.541888237E0,5.548020005E-1,1.144575000E0
1.439386680E1,2.436669827E0,4.184303582E-1,1.120141149E0
1.440303180E1,2.345042706E0,2.058555335E-1,1.053100705E0
1.441218409E1,2.270672083E0,-3.924693540E-2,9.481876493E-1
1.442132362E1,2.190803766E0,-2.983988822E-1,8.360971808E-1
1.443048862E1,2.099176645E0,-5.395308137E-1,7.160657048E-1
1.443964092E1,2.006175041E0,-7.737907767E-1,5.928272605E-1
1.444879321E1,1.922947168E0,-9.883508682E-1,4.842491746E-1
1.445794550E1,1.822615504E0,-1.111742020E0,3.848337829E-1
1.446709774E1,1.698002696E0,-1.187639832E0,2.922904193E-1
1.447623727E1,1.536891699E0,-1.265370131E0,2.144073844E-1
1.448540232E1,1.330730796E0,-1.347834468E0,1.572931707E-1
1.449455461E1,1.102121115E0,-1.400214672E0,1.172826737E-1
1.450369409E1,8.790091872E-1,-1.382652760E0,7.666133344E-2
1.451285914E1,6.760551929E-1,-1.271631241E0,4.337015375E-2
1.452201144E1,4.824166298E-1,-1.067150116E0,1.863084175E-2
1.453115097E1,2.884726226E-1,-7.956285477E-1,1.588202827E-2
1.454031597E1,8.521319181E-2,-4.856235683E-1,3.558185324E-2
1.454946826E1,-1.264453828E-1,-1.791309565E-1,6.749862432E-2
1.455862055E1,-3.287885487E-1,8.887827396E-2,1.116323397E-1
1.456777284E1,-4.934118688E-1,2.893888950E-1,1.517955512E-1
1.457692508E1,-6.221479177E-1,4.115583301E-1,1.667613089E-1
1.458606461E1,-7.207997441E-1,4.204156399E-1,1.659977436E-1
1.459522967E1,-8.108997345E-1,2.896943092E-1,1.722589284E-1
1.460438196E1,-9.327637553E-1,5.573981255E-2,1.849340051E-1
1.461352149E1,-1.111436605E0,-2.247917950E-1,1.795890927E-1
1.462268649E1,-1.354095697E0,-3.898732662E-1,1.426328421E-1
1.463183878E1,-1.583926916E0,-2.742704153E-1,5.238015205E-2
1.464099107E1,-1.708539724E0,2.199050039E-2,-8.674030751E-2
1.465014331E1,-1.624701023E0,4.390464723E-1,-2.648022771E-1
1.465929560E1,-1.279266834E0,9.808679819E-1,-4.324798584E-1
1.466843513E1,-8.869501948E-1,1.054627776E0,-5.147915483E-1
1.467760019E1,-7.478297353E-1,1.682884246E-1,-5.137225389E-1
1.468675248E1,-9.633061290E-1,-8.061656952E-1,-4.369085133E-1
1.469589196E1,-1.369366884E0,-4.741701782E-1,-2.929012477E-1
1.470505701E1,-1.622715712E0,7.973083854E-1,-2.076880634E-2
1.471420930E1,-1.646844268E0,1.502378821E0,2.924431264E-1
1.472334883E1,-1.745496035E0,1.326149344E0,3.932329118E-1
1.473251383E1,-1.923863411E0,7.553126216E-1,3.177932799E-1
1.474166612E1,-1.677386522E0,5.586197972E-1,2.867927849E-1
1.475080566E1,-1.328745484E0,8.305995464E-1,3.691044450E-1
1.475997071E1,-1.433963895E0,9.906415343E-1,4.553866386E-1
1.476912295E1,-1.742289066E0,7.122479081E-1,4.572191834E-1
1.477826248E1,-1.836206913E0,3.413109183E-1,4.140017331E-1
1.478742753E1,-1.696017385E0,-8.399149776E-2,3.848337829E-1
1.479657982E1,-1.559493065E0,-4.593571424E-1,3.512371778E-1
1.480571930E1,-1.506807446E0,-6.244385839E-1,3.199312389E-1
1.481488435E1,-1.457481503E0,-7.921161652E-1,2.568612695E-1
1.482403664E1,-1.318055630E0,-9.743013978E-1,1.579040140E-1
1.483317618E1,-1.179393291E0,-9.431481957E-1,8.078455180E-2
1.484234118E1,-1.129151106E0,-7.406523228E-1,5.161659420E-2
1.485149347E1,-1.165496588E0,-4.869979918E-1,6.093201414E-2
1.486063300E1,-1.216196895E0,-1.826433241E-1,7.986827940E-2
1.486979805E1,-1.278197885E0,1.884463727E-1,8.643488586E-2
1.487895029E1,-1.358218908E0,6.082511544E-1,7.773031294E-2
1.488810258E1,-1.387692213E0,9.588775039E-1,5.161659420E-2
1.489725487E1,-1.370130420E0,1.212531805E0,2.107422985E-2
1.490640717E1,-1.347681761E0,1.346765518E0,-1.740914769E-2
1.491554670E1,-1.299883008E0,1.335159421E0,-6.948387623E-2
1.492471170E1,-1.256360054E0,1.180767775E0,-1.333174109E-1
1.493386399E1,-1.265828252E0,1.023321867E0,-1.966928244E-1
1.494300352E1,-1.273769259E0,8.953493834E-1,-2.467822880E-1
1.495216857E1,-1.257734537E0,7.698202729E-1,-2.686200738E-1
1.496132081E1,-1.237882018E0,6.933116317E-1,-2.780882120E-1
1.497047310E1,-1.227650285E0,7.053758502E-1,-2.713688910E-1
1.497962539E1,-1.226123214E0,7.511894107E-1,-2.548760176E-1
1.498877769E1,-1.211768270E0,7.748597264E-1,-2.443388999E-1
1.499792998E1,-1.202758312E0,8.211314082E-1,-2.486148328E-1
1.500708222E1,-1.192373872E0,8.965710402E-1,-2.675510943E-1
1.501623451E1,-1.165343881E0,9.898779988E-1,-2.967190444E-1
1.502538680E1,-1.153737783E0,1.087460876E0,-3.272614181E-1
1.503453909E1,-1.168856263E0,1.212684512E0,-3.520007432E-1
1.504369133E1,-1.170230627E0,1.374100924E0,-3.593308926E-1
1.505284362E1,-1.141826272E0,1.498255610E0,-3.530697227E-1
1.506199592E1,-1.138161182E0,1.577207565E0,-3.458922505E-1
1.507114821E1,-1.149614573E0,1.688687205E0,-3.539859951E-1
1.508030045E1,-1.190083146E0,1.807191610E0,-3.811686933E-1
1.508945274E1,-1.250404358E0,1.816659689E0,-4.115583301E-1
1.509860503E1,-1.304158926E0,1.712204814E0,-4.338542521E-1
1.510774456E1,-1.283390045E0,1.524827480E0,-4.494308829E-1
1.511690961E1,-1.154654026E0,1.332105160E0,-4.819584787E-1
1.512606185E1,-1.031415582E0,1.167023659E0,-5.457920432E-1
1.513521414E1,-1.017671585E0,1.047297597E0,-6.187883019E-1
1.514436644E1,-1.082115889E0,1.036302328E0,-6.626165509E-1
1.515351873E1,-1.121973753E0,1.080130696E0,-6.612421870E-1
1.516265826E1,-1.056918502E0,1.028514028E0,-6.258130074E-1
1.517182326E1,-9.184088707E-1,8.078454733E-1,-5.764871240E-1
1.518097555E1,-8.298360109E-1,5.297572613E-1,-5.256340504E-1
1.519012784E1,-8.481613994E-1,2.863346636E-1,-4.912739098E-1
1.519928013E1,-9.220739603E-1,1.934858710E-1,-4.764608741E-1
1.520843237E1,-9.510892034E-1,2.024958730E-1,-4.766135812E-1
1.521757191E1,-9.388722181E-1,2.211267054E-1,-4.894413650E-1
1.522673696E1,-9.313893318E-1,2.348707765E-1,-5.230379701E-1
1.523588925E1,-9.338327646E-1,3.093941510E-1,-5.737382770E-1
1.524504154E1,-9.306257963E-1,3.994941115E-1,-6.317687631E-1
1.525419378E1,-9.391776323E-1,4.903576374E-1,-6.807892919E-1
1.526334607E1,-9.440644383E-1,5.709894896E-1,-7.194253802E-1
1.527249836E1,-9.009997249E-1,5.914528370E-1,-7.508839965E-1
1.528165066E1,-8.408312798E-1,4.830274582E-1,-7.557707429E-1
1.529080289E1,-7.977665067E-1,3.338280320E-1,-7.266027927E-1
1.529994243E1,-7.617265582E-1,2.773246467E-1,-6.824691296E-1
1.530910748E1,-6.910209656E-1,2.884726226E-1,-6.343649030E-1
1.531825977E1,-5.343386531E-1,2.322746664E-1,-5.702258945E-1
1.532739930E1,-2.641914487E-1,9.697200358E-2,-4.766135812E-1
1.533656430E1,7.971556485E-2,-1.954711229E-2,-3.605526090E-1
1.534571659E1,4.404208660E-1,-8.536590636E-2,-2.302894145E-1
1.535486888E1,7.815790772E-1,-1.873773932E-1,-9.590301663E-2
1.536402118E1,1.092042208E0,-3.544441164E-1,3.283303976E-2
1.537317347E1,1.406170368E0,-5.228852630E-1,1.444653720E-1
1.538231295E1,1.745801449E0,-6.479562521E-1,2.299840003E-1
1.539147800E1,2.077644348E0,-6.093201637E-1,2.719797492E-1
1.540063029E1,2.316485405E0,-3.707842827E-1,2.802261710E-1
1.540976982E1,2.461103678E0,-1.206423342E-2,2.828222811E-1
1.541893482E1,2.506458998E0,1.597365588E-1,2.915268540E-1
1.542808711E1,2.471793413E0,-3.054236295E-4,3.573456407E-1
1.543722664E1,2.410250664E0,-4.390464723E-1,5.386145711E-1
1.544639170E1,2.475611210E0,-1.206575990E0,8.376243114E-1
1.545554399E1,2.694294453E0,-2.128802776E0,1.180004239E0
1.546469623E1,2.961998463E0,-2.758891582E0,1.446180940E0
1.547384852E1,3.151208401E0,-3.002314329E0,1.516581059E0
1.548300081E1,3.223135471E0,-3.113030434E0,1.365090966E0
1.549214034E1,3.223593712E0,-3.314151764E0,1.085628271E0
1.550130539E1,3.198090792E0,-3.497253180E0,8.168554902E-1
1.551045763E1,3.150902987E0,-3.356605768E0,5.868715048E-1
1.551959716E1,3.155331612E0,-2.952377558E0,4.242334068E-1
1.552876222E1,3.212292910E0,-2.522799253E0,3.429907262E-1
1.553791451E1,3.289565086E0,-2.047865391E0,3.451287150E-1
1.554705404E1,3.346068621E0,-1.416707516E0,3.785725832E-1
1.555621904E1,3.336600542E0,-6.536065936E-1,4.329380095E-1
1.556537133E1,3.230007648E0,5.405998230E-2,5.445703268E-1
1.557451086E1,3.031329632E0,5.635066032E-1,6.986565590E-1
1.558367592E1,2.794015408E0,8.504521251E-1,8.316685557E-1
1.559282816E1,2.585563660E0,8.819107413E-1,9.162709117E-1
1.560196769E1,2.451482773E0,7.130114436E-1,9.403993487E-1
1.561113274E1,2.397728205E0,4.584408700E-1,8.964183331E-1
1.562028503E1,2.382151604E0,1.635543555E-1,8.335011005E-1
1.562942456E1,2.358786583E0,-8.261708915E-2,7.656970620E-1
1.563858956E1,2.300145388E0,-2.560977042E-1,6.818582416E-1
1.564774185E1,2.214932203E0,-3.891097009E-1,5.806103349E-1
1.565688138E1,2.106353998E0,-5.577035546E-1,5.018110275E-1
1.566604644E1,1.989071369E0,-7.160657048E-1,4.216373265E-1
1.567519873E1,1.845827699E0,-8.467870355E-1,3.266505599E-1
1.568433826E1,1.676622987E0,-9.668185115E-1,2.186833173E-1
1.569350326E1,1.487565756E0,-1.074785709E0,1.276670843E-1
1.570265555E1,1.284459114E0,-1.157402873E0,6.337540597E-2
1.571179508E1,1.074785709E0,-1.189166903E0,1.740914769E-2
1.572096013E1,8.582404256E-1,-1.159540772E0,-2.443389036E-2
1.573011237E1,6.410841942E-1,-1.099830508E0,-6.322269142E-2
1.573926466E1,4.227063060E-1,-1.007439852E0,-9.422318637E-2
1.574841696E1,2.170034945E-1,-8.782456517E-1,-1.201841980E-1
1.575756925E1,2.596100792E-2,-6.755970716E-1,-1.314848661E-1
1.576672154E1,-1.556133330E-1,-4.172086716E-1,-1.120904684E-1
1.577587378E1,-3.046600819E-1,-1.907370538E-1,-6.810946763E-2
1.578502607E1,-3.897205591E-1,3.970507067E-3,-5.955760833E-3
1.579416560E1,-4.437805414E-1,2.199050188E-1,7.101099193E-2
1.580333066E1,-5.323534012E-1,4.327852726E-1,1.459924877E-1
1.581248295E1,-6.827745438E-1,5.725166202E-1,1.869192570E-1
1.582162248E1,-8.915315866E-1,6.876612902E-1,1.585148573E-1
1.583078748E1,-1.166107416E0,7.879929543E-1,2.641914412E-2
1.583993977E1,-1.380667567E0,7.472189069E-1,-1.563768983E-1
1.584907930E1,-1.375627995E0,8.805363178E-1,-3.090887070E-1
1.585824435E1,-1.232995152E0,1.504058719E0,-3.837648034E-1
1.586739664E1,-1.166870952E0,2.027402163E0,-3.384093940E-1
1.587653618E1,-1.289956689E0,1.256971002E0,-2.257080674E-1
1.588570118E1,-1.441752195E0,-2.254026383E-1,-1.566823274E-1
1.589485347E1,-1.528950691E0,-4.081986845E-1,-8.246437646E-3
1.590399300E1,-1.542389274E0,1.301410079E0,4.990622103E-1
1.591315805E1,-1.830251098E0,3.071187258E0,1.041647315E0
1.592231029E1,-2.203173399E0,2.338017941E0,9.407047629E-1
1.593144982E1,-1.811009407E0,-2.386885732E-1,3.174878657E-1
1.594061487E1,-1.085322857E0,-1.319582820E0,-2.225011140E-1
1.594976716E1,-1.123348117E0,-8.095253110E-1,-3.300102353E-1
1.595890670E1,-1.696933627E0,-8.536590636E-2,-1.378987730E-1
1.596807170E1,-1.970135093E0,6.536065787E-2,1.592784226E-1
1.597722399E1,-1.705790997E0,-3.901786804E-1,3.917058110E-1
1.598636352E1,-1.390288353E0,-8.441908956E-1,4.888305068E-1
1.599552857E1,-1.378224134E0,-1.011715770E0,4.694361091E-1
1.600468086E1,-1.516733766E0,-9.202414155E-1,3.744493723E-1
1.601383310E1,-1.526659966E0,-7.617265582E-1,2.112004459E-1
1.602298539E1,-1.441599488E0,-5.260922313E-1,1.130067464E-2
1.603213769E1,-1.400978208E0,-1.562241912E-1,-1.650814712E-1
1.604127722E1,-1.442210436E0,3.067980409E-1,-2.689255178E-1
1.605044227E1,-1.504364133E0,7.957812548E-1,-2.910687327E-1
1.605959451E1,-1.545596242E0,1.174506545E0,-2.562504113E-1
1.606874680E1,-1.549566746E0,1.380820274E0,-1.867665499E-1
1.607789909E1,-1.531241417E0,1.448013425E0,-1.091889441E-1
1.608705138E1,-1.500088215E0,1.381431103E0,-3.985778242E-2
1.609619092E1,-1.441446781E0,1.201536536E0,3.359660041E-3
1.610535597E1,-1.411515355E0,1.024390817E0,9.773556143E-3
1.611450821E1,-1.405712247E0,7.928797603E-1,-2.718270384E-2
1.612366050E1,-1.396549582E0,5.485408306E-1,-8.689302206E-2
1.613281279E1,-1.368603230E0,3.526115716E-1,-1.401894391E-1
1.614196508E1,-1.342642307E0,2.886253297E-1,-1.820324808E-1
1.615111737E1,-1.342336893E0,2.589992285E-1,-2.028012872E-1
1.616026966E1,-1.377918720E0,2.498365343E-1,-2.043284029E-1
1.616942190E1,-1.380056620E0,2.776300907E-1,-2.061609477E-1
1.617857420E1,-1.362952948E0,3.703261614E-1,-2.163926363E-1
1.618772649E1,-1.374406338E0,4.918847680E-1,-2.472404242E-1
1.619687878E1,-1.403574347E0,6.803311110E-1,-2.884726226E-1
1.620603107E1,-1.423426867E0,8.530482054E-1,-3.266505599E-1
1.621518331E1,-1.446639061E0,9.862129092E-1,-3.567348123E-1
1.622433560E1,-1.471378326E0,1.147629261E0,-3.753656447E-1
1.623348789E1,-1.526201844E0,1.346918225E0,-3.764346242E-1
1.624264019E1,-1.553537250E0,1.513832211E0,-3.938437700E-1
1.625179248E1,-1.537197113E0,1.649287581E0,-4.335488379E-1
1.626094477E1,-1.503295064E0,1.799861431E0,-4.724903405E-1
1.627009706E1,-1.463895440E0,1.891946673E0,-5.108210444E-1
1.627924930E1,-1.424037695E0,1.932720780E0,-5.422796607E-1
1.628840159E1,-1.361425877E0,1.964179397E0,-5.749599934E-1
1.629755388E1,-1.276823521E0,1.983421087E0,-6.232169271E-1
1.630670618E1,-1.191304922E0,1.949519038E0,-6.775823236E-1
1.631585847E1,-1.130525589E0,1.866291046E0,-7.221741676E-1
1.632501071E1,-1.131747246E0,1.796959877E0,-7.380561829E-1
1.633416300E1,-1.160609841E0,1.786728263E0,-7.290462255E-1
1.634331529E1,-1.156486630E0,1.856059432E0,-7.047650218E-1
1.635246758E1,-1.124111652E0,1.874995708E0,-6.659762263E-1
1.636161987E1,-1.045006990E0,1.695711970E0,-6.134433746E-1
1.637077216E1,-9.251281619E-1,1.280335903E0,-5.573981404E-1
1.637992440E1,-8.199097514E-1,7.966975570E-1,-5.213581324E-1
1.638907670E1,-7.650861740E-1,4.495835900E-1,-5.341859460E-1
1.639822899E1,-7.860077024E-1,2.655658424E-1,-5.830537081E-1
1.640738128E1,-8.532009125E-1,1.412584335E-1,-6.163448691E-1
1.641653357E1,-9.126058221E-1,2.611372061E-2,-6.015318632E-1
1.642567310E1,-9.203941226E-1,-3.924693540E-2,-5.398362875E-1
1.643483816E1,-8.803836107E-1,-1.287360638E-1,-4.734066129E-1
1.644399039E1,-8.399149776E-1,-2.600682080E-1,-4.462239146E-1
1.645314269E1,-7.999044657E-1,-3.159607351E-1,-4.685198367E-1
1.646229498E1,-7.049177289E-1,-3.016058207E-1,-5.088357925E-1
1.647144727E1,-5.216635466E-1,-3.032856584E-1,-5.373928547E-1
1.648059956E1,-2.860292196E-1,-3.077143133E-1,-5.619794726E-1
1.648975185E1,-6.368082762E-2,-2.822114229E-1,-5.830537081E-1
1.649890409E1,1.530172378E-1,-2.354816198E-1,-6.041279435E-1
1.650804362E1,3.909422457E-1,-1.779092699E-1,-6.026008129E-1
1.651720868E1,6.520794630E-1,-1.114796251E-1,-5.292991400E-1
1.652636097E1,9.234483242E-1,-6.719320081E-3,-3.594835997E-1
1.653551326E1,1.189625025E0,1.174353883E-1,-1.420219839E-1
1.654466555E1,1.460077643E0,1.956238300E-1,3.313846514E-2
1.655381784E1,1.762447000E0,1.772984117E-1,1.336228400E-1
1.656297008E1,2.001593828E0,8.689302206E-2,1.829487532E-1
1.657212237E1,2.087570429E0,9.071081877E-2,2.171562016E-1
1.658127467E1,2.067107201E0,7.467607409E-2,2.933593988E-1
1.659041420E1,2.056722641E0,-2.055501044E-1,4.327852726E-1
1.659957925E1,2.155832767E0,-7.759287357E-1,6.169557571E-1
1.660873154E1,2.378639221E0,-1.544832706E0,8.683193922E-1
1.661787107E1,2.651993275E0,-2.352525473E0,1.158471823E0
1.662703607E1,2.900760889E0,-2.835858345E0,1.357149839E0
1.663618836E1,3.080655336E0,-2.974673510E0,1.386012435E0
1.664532789E1,3.152430058E0,-3.090123653E0,1.256512761E0
1.665449295E1,3.152277231E0,-3.384399176E0,1.049130201E0
1.666364524E1,3.124025583E0,-3.728153467E0,8.422056437E-1
1.667278477E1,3.052098274E0,-3.785725832E0,6.297835112E-1
1.668194982E1,2.955584526E0,-3.441360712E0,4.384356141E-1
1.669110206E1,2.914046764E0,-2.742093325E0,3.405473530E-1
1.670024159E1,2.944131136E0,-1.810551286E0,3.278722763E-1
1.670940664E1,2.972535372E0,-9.394831061E-1,3.732276857E-1
1.671855894E1,2.937106371E0,-2.443388999E-1,4.639385045E-1
1.672771123E1,2.852656603E0,3.266505599E-1,5.955760479E-1
1.673686352E1,2.755226612E0,6.783458591E-1,7.496622801E-1
1.674601576E1,2.654436827E0,8.414421082E-1,8.935168386E-1
1.675515534E1,2.552272558E0,8.718317747E-1,9.709417224E-1
1.676432034E1,2.460798264E0,7.576032877E-1,9.643751383E-1
1.677347263E1,2.396353722E0,5.511369109E-1,8.907679915E-1
1.678261216E1,2.347333193E0,3.452814221E-1,7.995990515E-1
1.679177722E1,2.301214218E0,1.707318127E-1,7.194253802E-1
1.680092951E1,2.255858898E0,-2.550287358E-2,6.441384554E-1
1.681006904E1,2.202104330E0,-2.698417902E-1,5.711421967E-1
1.681923404E1,2.132162333E0,-5.263976455E-1,4.830274582E-1
1.682838633E1,2.025111437E0,-7.759287357E-1,3.669664860E-1
1.683753862E1,1.901109338E0,-1.053864241E0,2.386885732E-1
1.684669092E1,1.776038408E0,-1.279877663E0,9.452861547E-2
1.685584321E1,1.632947445E0,-1.419303656E0,-3.833066672E-2
1.686499550E1,1.454274654E0,-1.454274654E0,-1.360662282E-1
1.687414779E1,1.239409089E0,-1.369825006E0,-2.029540092E-1
1.688330003E1,9.970554113E-1,-1.200467587E0,-2.408265322E-1
1.689243956E1,7.473716140E-1,-9.859074950E-1,-2.591519356E-1
1.690160461E1,5.115845799E-1,-7.928797603E-1,-2.835858464E-1
1.691075690E1,2.889307439E-1,-6.306998134E-1,-3.084778786E-1
1.691989644E1,6.948387623E-2,-4.840964675E-1,-3.358132839E-1
1.692906149E1,-1.481304616E-1,-3.892624080E-1,-3.515425920E-1
1.693821378E1,-3.362714052E-1,-3.177932799E-1,-3.332171738E-1
1.694735331E1,-5.013529062E-1,-2.075353563E-1,-2.790044844E-1
1.695651831E1,-6.963658929E-1,5.329642445E-2,-2.005106062E-1
1.696567060E1,-9.677347541E-1,3.810159862E-1,-1.183516532E-1
1.697481013E1,-1.290720224E0,6.429167390E-1,-5.986303091E-2
1.698397519E1,-1.581178188E0,7.105680704E-1,-4.611896724E-2
1.699312748E1,-1.712204814E0,5.045598149E-1,-1.281252056E-1
1.700226701E1,-1.594922185E0,2.825168669E-1,-2.632751763E-1
1.701143206E1,-1.235438585E0,6.682668924E-1,-3.623851240E-1
1.702058435E1,-9.167290330E-1,1.441904902E0,-3.888042867E-1
1.702972388E1,-8.874083757E-1,9.570449591E-1,-3.570402265E-1
1.703888888E1,-1.107924223E0,-7.120952010E-1,-3.933856487E-1
1.704804118E1,-1.700140595E0,-1.375322580E0,-3.617742956E-1
1.705718071E1,-2.029081821E0,1.481304616E-1,7.696675509E-2
1.706634576E1,-1.845216870E0,2.328091621E0,8.906152844E-1
1.707549805E1,-2.070466757E0,3.552229404E0,1.477334142E0
1.708463758E1,-2.350845575E0,2.204242229E0,1.306754947E0
1.709380263E1,-1.544069171E0,-2.754921019E-1,6.919372082E-1
1.710295487E1,-7.603521347E-1,-9.941539168E-1,2.394521236E-1
1.711209446E1,-1.087613583E0,-4.666872919E-1,1.450762302E-1
1.712125946E1,-1.722283840E0,-2.677038014E-1,2.541124523E-1
1.713041175E1,-1.650356531E0,-5.100574493E-1,3.713951409E-1
1.713955128E1,-1.189472318E0,-7.110261917E-1,3.930802047E-1
1.714871633E1,-1.070509791E0,-7.652388811E-1,3.597890437E-1
1.715786862E1,-1.249182701E0,-7.579087615E-1,2.980934680E-1
1.716702092E1,-1.314390540E0,-7.879929543E-1,1.882936656E-1
1.717617321E1,-1.222152710E0,-7.469134927E-1,3.359660041E-3
1.718532545E1,-1.173590302E0,-5.590779781E-1,-2.113531530E-1
1.719446498E1,-1.212837219E0,-2.898470163E-1,-3.852919042E-1
1.720363003E1,-1.222916245E0,5.680879578E-2,-4.747810364E-1
1.721278232E1,-1.181531310E0,3.341334462E-1,-4.790569544E-1
1.722192185E1,-1.162900448E0,5.598415136E-1,-3.910949528E-1
1.723108690E1,-1.205201626E0,8.038749695E-1,-2.137965411E-1
1.724023920E1,-1.231162667E0,9.271134138E-1,-1.084253844E-2
1.724939149E1,-1.199704051E0,9.772028923E-1,1.524063945E-1
1.725854373E1,-1.134037971E0,9.666658044E-1,2.292204350E-1
1.726769602E1,-1.103342891E0,9.208522439E-1,2.319692522E-1
1.727684831E1,-1.097692490E0,7.821899056E-1,1.905843467E-1
1.728600060E1,-1.087766290E0,6.693359017E-1,1.382041872E-1
1.729515289E1,-1.089293361E0,6.491779089E-1,9.239064902E-2
1.730430519E1,-1.110367656E0,6.229115129E-1,1.649287529E-2
1.731345748E1,-1.123653531E0,5.827482939E-1,-1.062874198E-1
1.732260977E1,-1.118614078E0,5.497625470E-1,-1.995943487E-1
1.733176201E1,-1.106397152E0,5.183038712E-1,-2.501419485E-1
1.734091430E1,-1.097081661E0,5.099047422E-1,-2.605263591E-1
1.735006659E1,-1.113879919E0,5.297572613E-1,-2.386885732E-1
1.735921888E1,-1.153737783E0,6.125270724E-1,-1.907370538E-1
1.736837118E1,-1.213448048E0,7.072083950E-1,-1.215586066E-1
1.737752347E1,-1.285222650E0,7.773031592E-1,-4.825693369E-2
1.738667576E1,-1.336533785E0,8.962656260E-1,1.099525020E-2
1.739582805E1,-1.347834468E0,9.790354371E-1,6.536065787E-2
1.740498034E1,-1.324011445E0,9.700254202E-1,1.050657257E-1
1.741413258E1,-1.306296825E0,9.249754548E-1,1.065928489E-1
1.742328487E1,-1.281710267E0,8.826742768E-1,5.726693198E-2
1.743243716E1,-1.244448543E0,8.183826208E-1,-3.100049868E-2
1.744158946E1,-1.256818295E0,7.432484031E-1,-1.250709742E-1
1.745074175E1,-1.312252641E0,6.977402568E-1,-2.017323077E-1
1.745989404E1,-1.335159421E0,6.726955175E-1,-2.701472044E-1
1.746904633E1,-1.340656996E0,6.893411279E-1,-3.387148082E-1
1.747819862E1,-1.352873921E0,7.004891038E-1,-3.881934285E-1
1.748735092E1,-1.360662222E0,6.759024858E-1,-3.889569938E-1
1.749650316E1,-1.258956194E0,6.737645268E-1,-3.539859951E-1
1.750565545E1,-1.108687758E0,7.331694365E-1,-3.260397315E-1
1.751480774E1,-1.041036487E0,7.519529462E-1,-3.268032968E-1
1.752396003E1,-1.060278177E0,7.241594195E-1,-3.501681983E-1
1.753311232E1,-1.063332319E0,6.468872428E-1,-3.782671690E-1
1.754226461E1,-9.915578365E-1,5.558710098E-1,-3.972034156E-1
1.755141690E1,-8.802309036E-1,5.204418898E-1,-4.037700295E-1
1.756056920E1,-7.925743461E-1,5.778614879E-1,-4.025483429E-1
1.756972149E1,-7.769976854E-1,5.651864409E-1,-4.048390090E-1
1.757887378E1,-8.203678727E-1,5.187620521E-1,-4.136963189E-1
1.758802602E1,-8.533536196E-1,5.583143830E-1,-4.346178174E-1
1.759717831E1,-8.160919547E-1,6.262711287E-1,-4.796678126E-1
1.760633060E1,-7.362236381E-1,6.183301210E-1,-5.561764240E-1
1.761548289E1,-6.893411279E-1,5.150969625E-1,-6.369609833E-1
1.762463519E1,-6.707102656E-1,4.347705245E-1,-6.751389503E-1
1.763377472E1,-6.058077812E-1,4.066715539E-1,-6.471926570E-1
1.764293977E1,-4.604261220E-1,3.794888556E-1,-5.534276366E-1
1.765209206E1,-2.371614426E-1,3.642176688E-1,-4.143071473E-1
1.766123159E1,4.016320780E-2,3.628432751E-1,-2.487675399E-1
1.767039664E1,3.341334462E-1,3.633013964E-1,-8.292251825E-2
1.767954888E1,5.984776020E-1,3.069507480E-1,4.413371533E-2
1.768870118E1,8.083036542E-1,1.721062213E-1,1.110214889E-1
1.769785347E1,9.804098606E-1,1.985253580E-2,1.246128380E-1
1.770700576E1,1.158013701E0,-1.256818175E-1,1.233911440E-1
1.771615805E1,1.366770744E0,-2.512109280E-1,1.476723254E-1
1.772531034E1,1.611720443E0,-3.692571819E-1,1.934858710E-1
1.773446263E1,1.877744436E0,-4.326325655E-1,2.197522968E-1
1.774360217E1,2.087570429E0,-3.776563108E-1,1.937913001E-1
1.775276722E1,2.237686157E0,-1.273616552E-1,1.615691036E-1
1.776191946E1,2.301519871E0,4.214845970E-2,1.856975704E-1
1.777107175E1,2.312820435E0,-4.123219103E-2,2.921377122E-1
1.778022404E1,2.286706686E0,-2.990097404E-1,4.570664763E-1
1.778937633E1,2.315569162E0,-6.465818286E-1,6.491779089E-1
1.779851586E1,2.471029758E0,-1.125791550E0,8.783983588E-1
1.780768092E1,2.721171856E0,-1.654021621E0,1.130372882E0
1.781683321E1,2.939855099E0,-1.991820216E0,1.304922462E0
1.782598550E1,3.041103125E0,-2.165148020E0,1.307518601E0
1.783513779E1,3.018807173E0,-2.367491245E0,1.194053650E0
1.784429008E1,2.945658207E0,-2.590603113E0,1.033706307E0
1.785342961E1,2.885489702E0,-2.813104391E0,8.478559852E-1
1.786259461E1,2.832651377E0,-3.021861315E0,6.510104537E-1
1.787174691E1,2.799818516E0,-3.111961365E0,4.364503622E-1
1.788088644E1,2.787601471E0,-2.907785654E0,2.573194206E-1
1.789005149E1,2.821045399E0,-2.389176369E0,1.728697717E-1
1.789920378E1,2.882588148E0,-1.764737725E0,1.918060333E-1
1.790834331E1,2.908701897E0,-1.140604496E0,2.941229641E-1
1.791750836E1,2.876937866E0,-4.932591617E-1,4.686725736E-1
1.792666066E1,2.773246527E0,8.017370105E-2,6.494833231E-1
1.793581295E1,2.608470440E0,4.630222321E-1,7.646280527E-1
1.794496524E1,2.440181971E0,6.665870547E-1,7.988355160E-1
1.795411753E1,2.320150614E0,7.188144922E-1,7.679877281E-1
1.796325706E1,2.253262758E0,6.381826997E-1,7.113316059E-1
1.797242206E1,2.206838369E0,4.975350797E-1,6.458182931E-1
1.798157435E1,2.137660027E0,3.289412558E-1,5.734328628E-1
1.799071388E1,2.046032906E0,1.308740228E-1,4.825693369E-1
1.799987894E1,1.955016613E0,-1.072036922E-1,3.697153032E-1
1.800903123E1,1.864611268E0,-3.451287150E-1,2.586938143E-1
1.801818352E1,1.783368587E0,-6.071822047E-1,1.653869003E-1
1.802733581E1,1.696780920E0,-8.017370105E-1,5.390727147E-2
1.803648810E1,1.579040170E0,-9.457442760E-1,-6.658235192E-2
1.804564039E1,1.418998241E0,-1.066997409E0,-1.634016484E-1
1.805479263E1,1.226428628E0,-1.147018433E0,-2.228065431E-1
1.806394493E1,1.014006495E0,-1.154806733E0,-2.603736520E-1
1.807308446E1,7.957812548E-1,-1.075091124E0,-2.777827978E-1
1.808224951E1,5.806103349E-1,-9.266552925E-1,-2.825168669E-1
1.809140180E1,3.677300513E-1,-6.997255087E-1,-2.718270421E-1
1.810055409E1,1.414111406E-1,-3.648285270E-1,-2.394521236E-1
1.810970638E1,-9.330692142E-2,3.206948191E-2,-1.968455315E-1
1.811885868E1,-3.347443044E-1,4.036173224E-1,-1.450762302E-1
1.812801097E1,-5.598415136E-1,6.661289334E-1,-9.376505762E-2
1.813716326E1,-7.722636461E-1,7.629482150E-1,-4.902049154E-2
1.814631555E1,-9.723161459E-1,7.169819474E-1,-1.313321572E-2
1.815545508E1,-1.198787689E0,5.877877474E-1,5.497625098E-3
1.816462013E1,-1.481915474E0,4.204156399E-1,-6.108472589E-3
1.817377237E1,-1.785506487E0,2.779355049E-1,-8.444963396E-2
1.818291196E1,-2.029387236E0,2.702999115E-1,-2.467822880E-1
1.819207696E1,-2.003578901E0,5.215108395E-1,-4.654656053E-1
1.820122925E1,-1.517191887E0,1.242005229E0,-7.001836896E-1
1.821036878E1,-7.979192138E-1,1.821088433E0,-8.871029615E-1
1.821953383E1,-4.457657933E-1,6.604785919E-1,-9.924740791E-1
1.822868612E1,-8.564078808E-1,-1.452442050E0,-1.045159698E0
1.823782566E1,-1.826738715E0,-1.541625738E0,-8.101361990E-1
1.824699071E1,-2.535016060E0,1.094027400E0,-5.436540768E-2
1.825614300E1,-2.697043419E0,2.750950575E0,7.072083950E-1
1.826528253E1,-2.563573122E0,1.932873487E0,8.779402375E-1
1.827444758E1,-2.118265629E0,1.464506239E-1,6.381826997E-1
1.828359982E1,-1.471072912E0,-4.260659516E-1,5.045598149E-1
1.829273941E1,-1.325843930E0,3.880407214E-1,6.178719997E-1
1.830190441E1,-1.633710980E0,9.668185115E-1,7.740961909E-1
1.831105670E1,-1.820172071E0,7.247702479E-1,7.777612805E-1
1.832019623E1,-1.742441773E0,-4.581354558E-2,6.079457402E-1
1.832936128E1,-1.570793748E0,-6.587987542E-1,3.713951409E-1
1.833851357E1,-1.484664321E0,-8.142594099E-1,1.473668963E-1
1.834766586E1,-1.462215662E0,-9.452861547E-1,-6.902574003E-2
1.835681816E1,-1.366159916E0,-1.114643574E0,-2.770192325E-1
1.836597045E1,-1.236812949E0,-1.154959440E0,-4.636330605E-1
1.837510998E1,-1.161831498E0,-9.975135922E-1,-6.117635369E-1
1.838427503E1,-1.160457134E0,-6.235223413E-1,-6.833853722E-1
1.839342727E1,-1.189625025E0,-1.269035190E-1,-6.510104537E-1
1.840256680E1,-1.205965161E0,4.037700295E-1,-5.366293192E-1
1.841173185E1,-1.210088372E0,9.425373077E-1,-3.843756318E-1
1.842088414E1,-1.230093718E0,1.377613306E0,-2.137965411E-1
1.843003644E1,-1.247502804E0,1.609582543E0,-6.704048812E-2
1.843918873E1,-1.229330063E0,1.740609288E0,2.718270384E-2
1.844834102E1,-1.215127945E0,1.793753028E0,5.894676223E-2
1.845748055E1,-1.209324837E0,1.772678733E0,4.428642616E-2
1.846664560E1,-1.156944752E0,1.637070656E0,1.603474095E-2
1.847579789E1,-1.074022174E0,1.410446286E0,-2.351761982E-2
1.848493743E1,-1.014159203E0,1.218182087E0,-7.360709459E-2
1.849410248E1,-9.961391687E-1,1.097539783E0,-1.307213157E-1
1.850325477E1,-1.038440347E0,1.025459886E0,-1.945548505E-1
1.851240701E1,-1.080741525E0,8.961129189E-1,-2.649549842E-1
1.852155930E1,-1.107160687E0,7.800519466E-1,-3.377985358E-1
1.853071159E1,-1.166412830E0,7.351546884E-1,-3.930802047E-1
1.853986388E1,-1.237118363E0,6.752916574E-1,-4.222481549E-1
1.854901618E1,-1.316528559E0,5.806103349E-1,-4.184303582E-1
1.855816847E1,-1.395938754E0,4.871506989E-1,-3.914003670E-1
1.856732076E1,-1.403421521E0,4.973823726E-1,-3.720059693E-1
1.857647305E1,-1.259567022E0,7.513421178E-1,-3.802524209E-1
1.858562534E1,-1.076618314E0,1.048672080E0,-4.188885093E-1
1.859477763E1,-1.031720996E0,1.241852522E0,-4.743228853E-1
1.860392993E1,-1.088071704E0,1.345849276E0,-5.150969625E-1
1.861308222E1,-1.120446563E0,1.332563281E0,-5.349494815E-1
1.862223451E1,-1.087766290E0,1.324774981E0,-5.438067913E-1
1.863138680E1,-1.029277682E0,1.410446286E0,-5.508314967E-1
1.864053904E1,-9.564340711E-1,1.468324065E0,-5.485408306E-1
1.864969133E1,-8.929060102E-1,1.387692213E0,-5.399889946E-1
1.865884362E1,-9.029849768E-1,1.208103180E0,-5.320479870E-1
1.866799592E1,-9.642223716E-1,1.091278672E0,-5.238015056E-1
1.867714821E1,-9.923213720E-1,1.121362805E0,-5.167768002E-1
1.868630050E1,-9.568922520E-1,1.156944752E0,-4.987567961E-1
1.869545279E1,-9.170344472E-1,1.089598775E0,-4.850127101E-1
1.870460508E1,-9.118422270E-1,9.179506898E-1,-4.854708612E-1
1.871375737E1,-9.098569751E-1,7.159129977E-1,-5.024218559E-1
1.872290966E1,-9.078717232E-1,5.729747415E-1,-5.231906772E-1
1.873206196E1,-9.352071285E-1,5.306735635E-1,-5.378510356E-1
1.874121425E1,-9.738432169E-1,5.824428797E-1,-5.436540842E-1
1.875036654E1,-9.807152748E-1,6.613948941E-1,-5.425850749E-1
1.875951883E1,-9.691091776E-1,6.685723066E-1,-5.456393361E-1
1.876867107E1,-9.495620728E-1,6.174138784E-1,-5.496098399E-1
1.877782336E1,-9.268079996E-1,5.650337338E-1,-5.500679612E-1
1.878697566E1,-9.045121074E-1,4.801259339E-1,-5.511369109E-1
1.879612795E1,-8.730534315E-1,4.060607255E-1,-5.483881235E-1
1.880528024E1,-8.275453448E-1,4.133908749E-1,-5.370874405E-1
1.881443253E1,-7.850914598E-1,4.845545888E-1,-5.147915483E-1
1.882358482E1,-7.463026643E-1,5.460974574E-1,-5.109737515E-1
1.883273711E1,-6.745280623E-1,5.202891231E-1,-5.256340504E-1
1.884187664E1,-5.416688323E-1,4.175141156E-1,-5.357130170E-1
1.885104170E1,-3.437542915E-1,2.725905776E-1,-5.219689608E-1
1.886019399E1,-9.895725548E-2,8.582404256E-2,-4.534013867E-1
1.886933352E1,1.759240031E-1,-1.301104724E-1,-3.023693860E-1
1.887849857E1,4.868452549E-1,-3.161134422E-1,-8.933641016E-2
1.888765086E1,8.457180262E-1,-4.327852726E-1,1.207950488E-1
1.889679039E1,1.270562291E0,-5.154023767E-1,2.673983872E-1
1.890595545E1,1.724574566E0,-5.693096519E-1,3.072561622E-1
1.891510769E1,2.125748396E0,-5.514423847E-1,2.619007528E-1
1.892424727E1,2.388260126E0,-5.668662786E-1,1.885990947E-1
1.893341227E1,2.545706034E0,-8.025006056E-1,1.502684206E-1
1.894256456E1,2.669708014E0,-1.253458619E0,1.954711229E-1
1.895170409E1,2.801345587E0,-1.714648247E0,3.805578351E-1
1.896086914E1,2.943520308E0,-1.987544298E0,6.876612902E-1
1.897002144E1,3.099133492E0,-2.031830788E0,1.003163934E0
1.897917373E1,3.216721773E0,-1.889808655E0,1.233453274E0
1.898832602E1,3.239017487E0,-1.611415029E0,1.327523828E0
1.899747831E1,3.131202936E0,-1.475501537E0,1.306602240E0
1.900661784E1,2.956653357E0,-1.708081603E0,1.232231617E0
1.901578289E1,2.838607311E0,-2.167896986E0,1.127929449E0
1.902493519E1,2.818296432E0,-2.679939747E0,1.012173891E0
1.903407472E1,2.873120070E0,-2.912367105E0,9.058864713E-1
1.904323977E1,2.991166353E0,-2.829902649E0,8.240329623E-1
1.905239206E1,3.134868145E0,-2.465990305E0,7.504258752E-1
1.906153159E1,3.226342440E0,-1.782605052E0,7.206470370E-1
1.907069659E1,3.241002798E0,-1.071884274E0,7.635591030E-1
1.907984888E1,3.160218239E0,-4.979932308E-1,8.583931327E-1
1.908898847E1,3.020334244E0,-1.351499557E-1,9.524635673E-1
1.909815347E1,2.901829958E0,-3.665083554E-3,1.019351363E0
1.910730576E1,2.824710369E0,-1.572931744E-2,1.047450304E0
1.911644529E1,2.764694691E0,-4.367557913E-2,1.027445078E0
1.912561034E1,2.697043419E0,-4.153761268E-2,9.837695360E-1
1.913476263E1,2.599766016E0,-2.260134928E-2,9.341381788E-1
1.914390216E1,2.493478537E0,-3.985778242E-2,8.869501948E-1
1.915306722E1,2.408265352E0,-1.342336833E-1,8.284615874E-1
1.916221951E1,2.347791433E0,-3.026748300E-1,7.572978735E-1
1.917135904E1,2.273420811E0,-4.978405237E-1,6.659762263E-1
1.918052409E1,2.159039736E0,-6.876612902E-1,5.485408306E-1
1.918967638E1,2.013047218E0,-8.504521251E-1,4.182776511E-1
1.919882868E1,1.847202063E0,-9.982771277E-1,2.993151546E-1
1.920798097E1,1.672652483E0,-1.133885264E0,2.053973973E-1
1.921713326E1,1.483900666E0,-1.156792045E0,1.203369126E-1
1.922628555E1,1.283848286E0,-1.071273327E0,4.260659590E-2
1.923543784E1,1.084864736E0,-9.162709117E-1,-1.511846948E-2
1.924459013E1,8.907679915E-1,-7.113316059E-1,-4.718795046E-2
1.925374243E1,6.954495907E-1,-4.989095032E-1,-7.253811508E-2
1.926289466E1,4.940227270E-1,-2.944283783E-1,-7.589777559E-2
1.927204696E1,2.866400778E-1,-7.177454978E-2,-6.108472496E-2
1.928118654E1,6.276455522E-2,1.467560530E-1,-3.894151375E-2
1.929035154E1,-1.834068894E-1,2.994678617E-1,-1.267508045E-2
1.929950383E1,-4.317162931E-1,3.451287150E-1,2.458660305E-2
1.930864336E1,-6.465818286E-1,3.098522723E-1,4.077405483E-2
1.931780842E1,-7.994463444E-1,2.330382317E-1,3.680354729E-2
1.932696071E1,-8.959602118E-1,1.455343664E-1,4.474456236E-2
1.933610024E1,-9.883508682E-1,1.117850468E-1,7.024743408E-2
1.934526529E1,-1.127776742E0,1.140757278E-1,9.071081877E-2
1.935441758E1,-1.309198380E0,1.527118087E-1,6.734590977E-2
1.936355711E1,-1.517650008E0,1.931804419E-1,-7.482878864E-3
1.937272217E1,-1.667918444E0,2.496838123E-1,-1.354553849E-1
1.938187446E1,-1.572931647E0,4.672981501E-1,-3.078670204E-1
1.939101399E1,-1.187792540E0,1.178324342E0,-4.857762754E-1
1.940017904E1,-8.553388715E-1,1.581483603E0,-6.394043565E-1
1.940933133E1,-9.413156509E-1,5.015056133E-1,-7.840224504E-1
1.941847086E1,-1.604695797E0,-7.684458494E-1,-8.658760190E-1
1.942763592E1,-2.551203489E0,-4.155288339E-1,-6.865923405E-1
1.943678821E1,-2.700555801E0,1.275296330E0,-1.966928244E-1
1.944592774E1,-2.194926977E0,2.641456366E0,4.111002088E-1
1.945509279E1,-2.177212238E0,2.966121674E0,8.273926377E-1
1.946424508E1,-2.264410734E0,1.941578031E0,8.086090684E-1
1.947338461E1,-1.750993609E0,1.008050680E0,5.697677732E-1
1.948254966E1,-1.178171635E0,3.600944579E-1,3.008422852E-1
1.949170196E1,-1.183211088E0,-1.447708011E-1,3.298575059E-2
1.950084149E1,-1.424190402E0,-3.403946459E-1,-1.168245375E-1
1.951000649E1,-1.471378326E0,-3.182514310E-1,-1.130067408E-1
1.951915878E1,-1.366770744E0,-3.135173619E-1,-5.360184610E-2
1.952829831E1,-1.269035220E0,-3.735330999E-1,-2.168507688E-2
1.953746336E1,-1.252694964E0,-5.338805318E-1,-3.359659761E-2
1.954661566E1,-1.274990916E0,-7.065975666E-1,-1.137702987E-1
1.955576795E1,-1.247197390E0,-7.866185308E-1,-2.606790662E-1
1.956492024E1,-1.212684512E0,-6.962131858E-1,-4.289674759E-1
1.957407253E1,-1.209172130E0,-5.424323678E-1,-5.602996349E-1
1.958321206E1,-1.209630251E0,-3.920112252E-1,-6.123743653E-1
1.959237711E1,-1.222152710E0,-1.881409585E-1,-5.748072863E-1
1.960152940E1,-1.267660737E0,9.193251282E-2,-4.421007037E-1
1.961066894E1,-1.305075169E0,4.500417113E-1,-2.130329758E-1
1.961983399E1,-1.337297320E0,7.559235096E-1,5.757235363E-2
1.962898628E1,-1.347834468E0,9.255862832E-1,2.997733057E-1
1.963812581E1,-1.351041436E0,1.004080176E0,4.676035643E-1
1.964729086E1,-1.340504289E0,9.029849768E-1,5.270084739E-1
1.965644316E1,-1.298813939E0,6.655181050E-1,4.848600030E-1
1.966559545E1,-1.265828252E0,4.727957845E-1,3.831539452E-1
1.967474774E1,-1.274074674E0,3.446705639E-1,2.641914487E-1
1.968390003E1,-1.294996142E0,2.550287247E-1,1.443126649E-1
1.969305232E1,-1.293621778E0,1.647760421E-1,2.473931387E-2
1.970220461E1,-1.290109396E0,9.193251282E-2,-9.055810422E-2
1.971135691E1,-1.289651275E0,9.101624042E-2,-1.882936656E-1
1.972050920E1,-1.277739763E0,1.003316641E-1,-2.724378705E-1
1.972966144E1,-1.246128440E0,1.067455560E-1,-3.303156495E-1
1.973881373E1,-1.183058381E0,1.736333370E-1,-3.555130959E-1
1.974796602E1,-1.148240089E0,2.816005945E-1,-3.474193811E-1
1.975711831E1,-1.146713018E0,3.739912212E-1,-3.254288733E-1
1.976627060E1,-1.164733052E0,5.041016936E-1,-3.025220931E-1
1.977542289E1,-1.186723471E0,7.006418109E-1,-2.832804024E-1
1.978457519E1,-1.190999389E0,9.513946176E-1,-2.620534599E-1
1.979372748E1,-1.164122105E0,1.181684017E0,-2.443388999E-1
1.980287977E1,-1.128540277E0,1.347529054E0,-2.460187376E-1
1.981203206E1,-1.130678296E0,1.458855987E0,-2.693836391E-1
1.982118435E1,-1.149461865E0,1.571404576E0,-3.025220931E-1
1.983033664E1,-1.116476059E0,1.692505002E0,-3.365768492E-1
1.983948894E1,-1.003927469E0,1.731141090E0,-3.700207174E-1
1.984864550E1,-8.501466513E-1,1.653410792E0,-4.085040987E-1
1.985779352E1,-7.397360206E-1,1.527576327E0,-4.559974670E-1
1.986694581E1,-7.472189069E-1,1.417012930E0,-5.054761171E-1
1.987609810E1,-7.962393761E-1,1.328745484E0,-5.392253995E-1
1.988525039E1,-7.931851745E-1,1.271631241E0,-5.483881235E-1
1.989440269E1,-7.230904698E-1,1.206575990E0,-5.331169367E-1
1.990355498E1,-6.358919740E-1,1.100899458E0,-5.099047422E-1
1.991270727E1,-6.022953987E-1,9.243646264E-1,-4.935645759E-1
1.992185956E1,-6.346703172E-1,7.960866690E-1,-4.796678126E-1
1.993101185E1,-7.191199064E-1,7.223268747E-1,-4.601207078E-1
1.994016414E1,-7.817317843E-1,6.186355352E-1,-4.359922409E-1
1.994931644E1,-7.821899056E-1,5.150969625E-1,-4.140017331E-1
1.995846873E1,-7.285880446E-1,3.759764731E-1,-4.080459774E-1
1.996762102E1,-6.774296165E-1,2.489202619E-1,-4.314108789E-1
1.997677331E1,-6.691831946E-1,1.644706279E-1,-4.734066129E-1
1.998592560E1,-6.884248853E-1,1.287360638E-1,-5.102101564E-1
1.999507789E1,-7.026270628E-1,1.521009654E-1,-5.224271417E-1
2.000423019E1,-6.832326651E-1,1.895153672E-1,-5.328115225E-1
2.001338248E1,-6.172611713E-1,2.003578991E-1,-5.670189857E-1
2.002253477E1,-5.270084739E-1,1.792836636E-1,-5.981721878E-1
2.003168706E1,-4.587462842E-1,1.377460510E-1,-5.946598053E-1
2.004083935E1,-4.054498672E-1,8.185353130E-2,-5.606050491E-1
2.004999164E1,-3.559712470E-1,5.268557742E-2,-5.175403357E-1
2.005914394E1,-3.086305857E-1,1.072036922E-1,-4.787515402E-1
2.006829623E1,-2.389939874E-1,2.386885732E-1,-4.465293586E-1
2.007743576E1,-1.058292910E-1,3.494046330E-1,-4.005630910E-1
2.008660081E1,1.012479365E-1,3.903313875E-1,-3.246653080E-1
2.009575310E1,3.579564989E-1,3.640649617E-1,-2.177670449E-1
2.010490539E1,6.065713167E-1,2.985515893E-1,-1.030804738E-1
2.011405763E1,7.994463444E-1,2.600682080E-1,-8.857285604E-3
2.012320998E1,9.358180165E-1,2.189887464E-1,4.474456236E-2
2.013236222E1,1.065470338E0,1.156028435E-1,6.337540597E-2
2.014151451E1,1.227955699E0,-5.405998230E-2,6.230641901E-2
2.015066680E1,1.379598498E0,-2.057028115E-1,4.199574888E-2
2.015981909E1,1.467102408E0,-3.177932799E-1,2.443389036E-2
2.016897138E1,1.559645772E0,-5.645755529E-1,4.963133857E-2
2.017812368E1,1.721673012E0,-1.011715770E0,1.330119967E-1
2.018727597E1,1.939440012E0,-1.459619522E0,3.040492237E-1
2.019642826E1,2.142241240E0,-1.705485582E0,5.218162537E-1
2.020558055E1,2.332673073E0,-1.777565479E0,6.934643388E-1
2.021473284E1,2.528907537E0,-1.767181158E0,7.644753456E-1
2.022388513E1,2.725142241E0,-1.719382286E0,7.548545003E-1
2.023303743E1,2.904273272E0,-1.604237556E0,6.998782754E-1
2.024218972E1,3.021555901E0,-1.431978703E0,6.224533319E-1
2.025134201E1,3.043851852E0,-1.297134161E0,5.778614879E-1
2.026049430E1,2.970702887E0,-1.244906664E0,5.627430081E-1
2.026963383E1,2.830513477E0,-1.276976228E0,5.580089688E-1
2.027879888E1,2.678259850E0,-1.339435339E0,5.538857579E-1
2.028795118E1,2.546622276E0,-1.361273170E0,5.523586273E-1
2.029709071E1,2.449344873E0,-1.318666577E0,5.529694557E-1
2.030625576E1,2.385358572E0,-1.180156946E0,5.407525301E-1
2.031540805E1,2.366116762E0,-1.012173891E0,5.332696438E-1
2.032456034E1,2.388260126E0,-8.125795722E-1,5.399889946E-1
2.033371263E1,2.431172132E0,-5.178457499E-1,5.644228458E-1
2.034286493E1,2.474847555E0,-2.559449971E-1,6.134433746E-1
2.035201722E1,2.518217802E0,-9.422318637E-2,6.636855602E-1
2.036116951E1,2.566169262E0,-2.473931387E-2,7.061394453E-1
2.037032180E1,2.590755939E0,3.451287001E-2,7.545490861E-1
2.037946133E1,2.556243181E0,1.342336833E-1,8.182299137E-1
2.038862638E1,2.468739271E0,2.325800955E-1,9.005415440E-1
2.039777868E1,2.363215446E0,2.785463631E-1,9.756757617E-1
2.040691821E1,2.289913654E0,1.965401024E-1,1.014159203E0
2.041608326E1,2.253262758E0,-4.153761268E-2,1.009272337E0
2.042523555E1,2.222109556E0,-3.526115716E-1,9.683456421E-1
2.043437508E1,2.169118643E0,-6.610894203E-1,8.906152844E-1
2.044354013E1,2.093831778E0,-9.374978542E-1,7.852441669E-1
2.045269243E1,2.026638508E0,-1.237576604E0,6.629219651E-1
2.046184472E1,1.955780268E0,-1.449693203E0,5.184566379E-1
2.047099701E1,1.857739210E0,-1.582399845E0,3.773508966E-1
2.048014930E1,1.742136359E0,-1.642720938E0,2.721324563E-1
2.048928883E1,1.617676258E0,-1.614774704E0,2.119639963E-1
2.049845388E1,1.480082870E0,-1.523453116E0,1.915006191E-1
2.050760618E1,1.317292094E0,-1.376086116E0,1.951656938E-1
2.051674571E1,1.129456639E0,-1.188861489E0,2.150182426E-1
2.052591076E1,9.280297160E-1,-1.009577751E0,2.318165302E-1
2.053506305E1,7.276718020E-1,-8.593093753E-1,2.333436459E-1
2.054421534E1,5.331169367E-1,-7.414158583E-1,2.293731421E-1
2.055336763E1,3.590254784E-1,-6.400152445E-1,2.134911120E-1
2.056251993E1,2.015796006E-1,-5.265503526E-1,1.805053651E-1
2.057167222E1,4.657710344E-2,-4.069769979E-1,1.421747059E-1
2.058082451E1,-1.058292910E-1,-3.103103936E-1,1.207950488E-1
2.058997680E1,-2.406738251E-1,-1.731752008E-1,1.111742035E-1
2.059912909E1,-3.512371778E-1,5.619794875E-2,9.559759498E-2
2.060828138E1,-4.500417113E-1,3.741439581E-1,7.269082218E-2
2.061743368E1,-5.670189857E-1,7.168292403E-1,5.818320066E-2
2.062658597E1,-7.191199064E-1,9.649859667E-1,7.284353673E-2
2.063573826E1,-8.933641315E-1,1.077381849E0,1.007898003E-1
2.064489055E1,-1.057529330E0,1.010952234E0,1.307213157E-1
2.065403008E1,-1.188861489E0,7.227849960E-1,1.655396074E-1
2.066319513E1,-1.267813444E0,2.811424434E-1,2.086043358E-1
2.067234743E1,-1.291025639E0,-1.718007922E-1,2.551814318E-1
2.068148696E1,-1.307213187E0,-4.555393457E-1,3.029802442E-1
2.069065201E1,-1.348903418E0,-5.656445622E-1,3.387148082E-1
2.069980430E1,-1.432284117E0,-5.496098399E-1,3.381039500E-1
2.070894383E1,-1.574916959E0,-4.216373265E-1,2.790044844E-1
2.071810888E1,-1.636154413E0,-1.837123185E-1,1.385096163E-1
2.072726118E1,-1.289498568E0,8.842013776E-2,-8.200624585E-2
2.073640071E1,-4.169032574E-1,4.173613787E-1,-2.983988822E-1
2.074556576E1,1.945548505E-1,6.849125028E-1,-4.127800465E-1
2.075471805E1,9.315420873E-3,6.273401380E-1,-3.883461356E-1
2.076385758E1,-8.406785131E-1,6.751389503E-1,-3.284831047E-1
2.077302263E1,-2.078560591E0,7.098045349E-1,-1.881409585E-1
2.078217493E1,-2.481566906E0,7.705838084E-1,9.407047927E-2
2.079131446E1,-1.759698272E0,8.061656952E-1,4.385883212E-1
2.080047951E1,-1.253305912E0,1.134648800E0,6.875085831E-1
2.080963180E1,-1.487413049E0,1.540404081E0,7.197307944E-1
2.081877138E1,-1.802610278E0,1.719382286E0,6.678087711E-1
2.082793638E1,-1.789324284E0,1.624548316E0,6.296308041E-1
2.083708868E1,-1.664711475E0,9.521581531E-1,5.711421967E-1
2.084622821E1,-1.559798479E0,-1.119377613E-1,4.303418994E-1
2.085539326E1,-1.541167617E0,-1.080588818E0,2.058555335E-1
2.086454555E1,-1.523605824E0,-1.752215385E0,-5.726693198E-2
2.087368513E1,-1.435796499E0,-1.898207903E0,-2.531961799E-1
2.088285013E1,-1.313016176E0,-1.801235914E0,-3.342861533E-1
2.089200243E1,-1.211462855E0,-1.648982167E0,-3.135173619E-1
2.090114201E1,-1.182142138E0,-1.381736517E0,-2.359397560E-1
2.091030701E1,-1.202911019E0,-9.596410394E-1,-1.557660550E-1
2.091945930E1,-1.273616552E0,-4.335488379E-1,-1.139230132E-1
2.092861159E1,-1.341573238E0,8.322793990E-2,-1.330119967E-1
2.093776388E1,-1.333632231E0,5.320479870E-1,-1.889045089E-1
2.094691618E1,-1.305533290E0,8.597674966E-1,-2.408265322E-1
2.095606847E1,-1.288582325E0,1.113421798E0,-2.586938143E-1
2.096522076E1,-1.294843435E0,1.326760292E0,-2.362451702E-1
2.097437305E1,-1.292094707E0,1.485427856E0,-1.960819662E-1
2.098351263E1,-1.238034725E0,1.489245653E0,-1.565296054E-1
2.099267769E1,-1.180462360E0,1.382194638E0,-1.273616552E-1
2.100182998E1,-1.157860994E0,1.245059371E0,-9.834641218E-2
2.101096951E1,-1.176339149E0,1.081810474E0,-6.062658876E-2
2.102013456E1,-1.193595529E0,9.295567870E-1,-2.336490713E-2
2.102928685E1,-1.183974743E0,7.904363275E-1,1.160609815E-2
2.103843914E1,-1.168092728E0,6.638382673E-1,2.825168520E-2
2.104759144E1,-1.170688748E0,5.409052372E-1,2.229592577E-2
2.105674373E1,-1.173743010E0,4.083513916E-1,3.359660041E-3
2.106589602E1,-1.158929944E0,2.744231224E-1,-1.832541823E-2
2.107504831E1,-1.146254897E0,1.719534993E-1,-3.955236077E-2
2.108420060E1,-1.145491362E0,1.693574041E-1,-6.093201414E-2
2.109335289E1,-1.154501319E0,2.976353168E-1,-7.941014320E-2
2.110250519E1,-1.170536041E0,4.590517282E-1,-1.015533581E-1
2.111165748E1,-1.178629756E0,5.331169367E-1,-1.304158866E-1
2.112080977E1,-1.186570764E0,6.106945276E-1,-1.537808031E-1
2.112996206E1,-1.180920482E0,6.667397618E-1,-1.629435122E-1
2.113911435E1,-1.185196400E0,6.661289334E-1,-1.543916464E-1
2.114826664E1,-1.184585571E0,6.554391384E-1,-1.324011385E-1
2.115741894E1,-1.182447553E0,6.103891134E-1,-1.061347127E-1
2.116657123E1,-1.178018928E0,5.140279531E-1,-8.887827396E-2
2.117572352E1,-1.156028390E0,4.676035643E-1,-8.506047726E-2
2.118487581E1,-1.122584581E0,4.495835900E-1,-9.636115283E-2
2.119402810E1,-1.074174881E0,4.283566475E-1,-1.198787764E-1
2.120318039E1,-1.021336675E0,4.019374847E-1,-1.469087601E-1
2.121233269E1,-9.863656163E-1,3.614688516E-1,-1.832541823E-1
2.122148498E1,-9.448279738E-1,2.884726226E-1,-2.263189107E-1
2.123063727E1,-8.936695457E-1,2.353289127E-1,-2.661767006E-1
2.123978956E1,-8.538117409E-1,2.625116110E-1,-2.922904193E-1
2.124894185E1,-8.370134830E-1,3.257342875E-1,-3.013004065E-1
2.125809414E1,-8.493831158E-1,4.057552814E-1,-2.929012477E-1
2.126724644E1,-8.932114244E-1,4.672981501E-1,-2.706053257E-1
2.127639873E1,-9.433009028E-1,5.288410187E-1,-2.380777150E-1
2.128555102E1,-9.500201941E-1,5.897729993E-1,-2.021904439E-1
2.129470331E1,-9.249754548E-1,5.972558856E-1,-1.831014603E-1
2.130385560E1,-8.958075047E-1,5.068505406E-1,-1.742441803E-1
2.131300789E1,-8.712208867E-1,3.587200642E-1,-1.641651988E-1
2.132216019E1,-8.524373770E-1,2.544178963E-1,-1.676775664E-1
2.133131248E1,-8.487722874E-1,2.163926363E-1,-1.895153672E-1
2.134046477E1,-8.374716043E-1,2.102841735E-1,-2.273878902E-1
2.134961711E1,-8.017370105E-1,2.174616307E-1,-2.582356930E-1
2.135876940E1,-7.574505806E-1,2.354816198E-1,-2.768665254E-1
2.136792170E1,-7.046123147E-1,2.663294077E-1,-2.832804024E-1
2.137707399E1,-6.369609833E-1,3.507790267E-1,-2.754921019E-1
2.138622628E1,-5.777087808E-1,4.605788291E-1,-2.648022771E-1
2.139537857E1,-5.402944088E-1,5.528167486E-1,-2.589992285E-1
2.140453086E1,-5.008947253E-1,6.223006248E-1,-2.631224692E-1
2.141368316E1,-4.413371384E-1,6.668924689E-1,-2.596100867E-1
2.142282269E1,-3.713951409E-1,6.774296165E-1,-2.151709497E-1
2.143198774E1,-2.858765125E-1,6.496360302E-1,-1.339282542E-1
2.144114003E1,-2.113531530E-1,5.476245880E-1,-4.978405312E-2
2.145029232E1,-1.774511337E-1,3.888042867E-1,1.985253533E-3
2.145944461E1,-1.971509457E-1,2.363978922E-1,2.015795931E-2
2.146859691E1,-2.579302490E-1,1.362189353E-1,2.473931387E-2
2.147774920E1,-3.446705639E-1,1.217113137E-1,2.229592577E-2
2.148690149E1,-4.204156399E-1,1.776038408E-1,1.191152167E-2
2.149605378E1,-4.715740979E-1,2.611372173E-1,-1.985253533E-3
2.150520607E1,-5.085303187E-1,3.339807391E-1,-2.061609551E-2
2.151435836E1,-5.502206683E-1,3.820849657E-1,-3.924693540E-2
2.152351066E1,-5.989357233E-1,3.968980014E-1,-6.398624927E-2
2.153266295E1,-6.474980712E-1,4.063661397E-1,-9.239064902E-2
2.154181524E1,-6.960604787E-1,4.133908749E-1,-1.232384369E-1
2.155096753E1,-7.459971905E-1,4.191939235E-1,-1.646233350E-1
2.156011982E1,-7.832589149E-1,4.755446017E-1,-2.136438340E-1
2.156927211E1,-7.759287357E-1,5.790832043E-1,-2.638860047E-1
2.157842440E1,-7.052231431E-1,6.206207871E-1,-3.029802442E-1
2.158757675E1,-5.850389600E-1,5.561764240E-1,-3.234436214E-1
2.159672899E1,-4.526378214E-1,4.233171642E-1,-3.164188862E-1
2.160588133E1,-3.492519259E-1,2.904578745E-1,-2.874036431E-1
2.161503362E1,-2.892361879E-1,1.911951900E-1,-2.527380586E-1
2.162418592E1,-2.686200738E-1,1.328592747E-1,-2.159345001E-1
2.163333821E1,-2.790044844E-1,9.513945878E-2,-1.731752008E-1
2.164249050E1,-3.046600819E-1,6.276455522E-2,-1.282779276E-1
2.165164279E1,-3.377985358E-1,2.244863659E-2,-8.628217876E-2
2.166079508E1,-3.660502136E-1,-1.664558798E-2,-5.161659420E-2
2.166994737E1,-3.749074936E-1,-6.306997687E-2,-3.512371704E-2
2.167909967E1,-3.665083647E-1,-1.136175916E-1,-3.329117596E-2
2.168825196E1,-3.408527672E-1,-1.430909634E-1,-3.680354729E-2
2.169740425E1,-3.008422852E-1,-1.388150454E-1,-3.833066672E-2
2.170655654E1,-2.605263591E-1,-1.026223376E-1,-4.169032723E-2
2.171570883E1,-2.220429778E-1,-6.093201414E-2,-4.749337584E-2
2.172486112E1,-1.921114624E-1,-2.855710872E-2,-5.528167635E-2
2.173401342E1,-1.743968874E-1,-7.330167107E-3,-6.368082762E-2
2.174316571E1,-1.615691036E-1,6.566607859E-3,-6.673506647E-2
2.175231800E1,-1.498102844E-1,1.435491070E-2,-6.536065787E-2
2.176147029E1,-1.301104724E-1,1.267508045E-2,-5.604523420E-2
2.177062258E1,-1.111742035E-1,9.162709117E-3,-3.695625812E-2
2.177977487E1,-9.468132257E-2,2.061609551E-2,-1.679829881E-2
2.178892716E1,-7.956285775E-2,5.879404768E-2,-1.527118147E-4
2.179807951E1,-6.597150117E-2,1.201841980E-1,6.566607859E-3
2.180723175E1,-4.688252881E-2,1.876828223E-1,8.551862091E-3
2.181638409E1,-3.008422814E-2,2.449497581E-1,1.038440317E-2
2.182553638E1,-2.336490713E-2,3.028275371E-1,1.099525020E-2
2.183468868E1,-2.748812735E-2,3.584146202E-1,1.404948719E-2
2.184384097E1,-2.367033064E-2,4.101839364E-1,2.137965336E-2
2.185299326E1,-7.482878864E-3,4.512633979E-1,3.420744836E-2
2.186214555E1,1.756185852E-2,4.747810364E-1,4.169032723E-2
2.187129784E1,4.092676565E-2,4.845545888E-1,4.306473210E-2
2.188045013E1,5.085303262E-2,4.857762754E-1,3.344388679E-2
2.188960243E1,4.840964451E-2,4.784461260E-1,1.634016447E-2
2.189875472E1,3.771981969E-2,4.547757804E-1,-5.192201585E-3
2.190790701E1,2.275406010E-2,4.107947946E-1,-1.801999472E-2
2.191705930E1,1.343864016E-2,3.545968235E-1,-1.924168877E-2
2.192621159E1,7.788302377E-3,2.848075330E-1,-1.374406368E-2
2.193536388E1,-3.817795310E-3,1.998997629E-1,-5.803049076E-3
2.194451618E1,-2.275406010E-2,1.076618284E-1,1.527118147E-4
2.195366847E1,-4.230117425E-2,1.664558798E-2,4.428642802E-3
2.196282081E1,-5.512896553E-2,-6.841489673E-2,1.053711493E-2
2.197197310E1,-5.940489471E-2,-1.496575773E-1,1.053711493E-2
2.198112539E1,-5.909947306E-2,-2.376195788E-1,2.596100792E-3
2.199027769E1,-6.047387794E-2,-3.009949923E-1,-1.679830020E-3
2.199942998E1,-5.757235363E-2,-2.889307439E-1,1.557660475E-2
2.200858227E1,-4.902049154E-2,-2.218902707E-1,4.184303805E-2
2.201773456E1,-3.848337755E-2,-1.603474021E-1,5.039490014E-2
2.202688685E1,-2.855710872E-2,-1.580567211E-1,3.451287001E-2
2.203603914E1,-1.588202827E-2,-1.954711229E-1,9.620844387E-3
2.204519144E1,-6.261184346E-3,-2.159345001E-1,-7.941014133E-3
2.205434373E1,-8.399149403E-3,-1.858502775E-1,-3.817795310E-3
2.206349602E1,-3.374931216E-2,-1.122431830E-1,1.298050396E-2
2.207264831E1,-7.482878864E-2,-1.466033421E-2,2.733541466E-2
2.208180060E1,-1.131594554E-1,7.864658535E-2,2.397575416E-2
2.209095289E1,-1.359135211E-1,1.430909634E-1,4.275931045E-3
2.210010519E1,-1.385096163E-1,1.687465608E-1,-2.015795931E-2
2.210925748E1,-1.272089481E-1,1.669140160E-1,-4.031591862E-2
2.211840982E1,-1.146865711E-1,1.524063945E-1,-5.665608495E-2
2.212756211E1,-1.017060652E-1,1.421747059E-1,-6.398624927E-2
2.213671441E1,-8.429691941E-2,1.368297935E-1,-5.894676223E-2
2.214586670E1,-6.093201414E-2,1.241547018E-1,-4.718795046E-2
2.215501899E1,-3.619270027E-2,1.116323397E-1,-3.298575059E-2
2.216417128E1,-1.206423342E-2,8.765657991E-2,-1.924168877E-2
2.217332357E1,7.941014133E-3,5.467082933E-2,-9.315420873E-3
2.218247586E1,1.572931744E-2,1.786728203E-2,-1.374406274E-3
2.219162816E1,7.941014133E-3,-1.282779220E-2,3.512371797E-3
2.220078045E1,2.596100792E-3,-4.230117425E-2,7.177455351E-3
2.220993274E1,6.566607859E-3,-7.788302749E-2,1.389677543E-2
2.221908503E1,1.924168877E-2,-1.110214889E-1,1.893626526E-2
2.222823732E1,3.542914242E-2,-1.284306347E-1,1.969982497E-2
2.223738961E1,4.825693369E-2,-1.223221645E-1,2.046338283E-2
2.224654190E1,6.276455522E-2,-1.000262350E-1,2.107422985E-2
2.225569425E1,6.933116168E-2,-7.666133344E-2,2.046338283E-2
2.226484654E1,6.978929788E-2,-5.665608495E-2,1.740914769E-2
2.227399883E1,6.551336497E-2,-4.642439261E-2,1.191152167E-2
2.228315112E1,5.192201585E-2,-5.008947477E-2,3.206948051E-3
2.229230342E1,3.726168349E-2,-5.070032179E-2,-4.581354442E-4
2.230145571E1,3.100049868E-2,-4.657710344E-2,6.108472589E-3
2.231060800E1,3.145863488E-2,-3.924693540E-2,1.466033421E-2
2.231976029E1,3.756710514E-2,-3.680354729E-2,1.786728203E-2
2.232891258E1,4.749337584E-2,-4.169032723E-2,1.664558798E-2
2.233806487E1,5.008947477E-2,-5.008947477E-2,1.420219894E-2
2.234721716E1,4.703523964E-2,-6.154286116E-2,8.704573847E-3
2.235636946E1,4.153761268E-2,-6.215370819E-2,5.039489828E-3
2.236552175E1,3.420744836E-2,-5.619794875E-2,4.428642802E-3
2.237467404E1,2.733541466E-2,-4.779879749E-2,7.330167107E-3
2.238382633E1,2.107422985E-2,-4.046862945E-2,1.221694518E-2
2.239297868E1,2.153236605E-2,-3.512371704E-2,1.343864016E-2
2.240213097E1,2.596100792E-2,-3.145863488E-2,7.330167107E-3
2.241128326E1,3.206948191E-2,-3.145863488E-2,1.832541777E-3
2.242043555E1,3.329117596E-2,-3.512371704E-2,-2.290677279E-3
2.242958784E1,3.466558084E-2,-3.924693540E-2,-3.512371797E-3
2.243874013E1,3.649812192E-2,-3.863608837E-2,1.527118147E-4
2.244789243E1,3.833066672E-2,-3.512371704E-2,6.261184346E-3
2.245704472E1,3.756710514E-2,-2.718270384E-2,1.114796288E-2
2.246619701E1,2.947338112E-2,-2.367033064E-2,1.038440317E-2
2.247534930E1,1.542389300E-2,-2.779355086E-2,4.275931045E-3
2.248450159E1,-1.832541777E-3,-2.855710872E-2,-1.374406274E-3
2.249365388E1,-1.114796288E-2,-2.855710872E-2,-4.428642802E-3
2.250280618E1,-6.719320081E-3,-2.916795574E-2,-5.039489828E-3
2.251195847E1,1.007897966E-2,-3.512371704E-2,-6.872031838E-3
2.252111081E1,3.481829539E-2,-4.413371533E-2,-7.330167107E-3
2.253026310E1,4.886778072E-2,-4.963133857E-2,-5.955760833E-3
2.253941539E1,5.070032179E-2,-4.230117425E-2,-1.679830020E-3
2.254856769E1,4.077405483E-2,-4.046862945E-2,2.596100792E-3
2.255771998E1,2.779355086E-2,-3.573456407E-2,3.665083554E-3
2.256687227E1,2.168507688E-2,-3.512371704E-2,-6.108472589E-4
2.257602456E1,2.229592577E-2,-4.123219103E-2,-6.719320081E-3
2.258517685E1,2.993151546E-2,-5.573981255E-2,-1.221694518E-2
2.259432914E1,4.230117425E-2,-7.070557028E-2,-1.084253844E-2
2.260348144E1,5.589252338E-2,-7.605048269E-2,-5.803049076E-3
2.261263373E1,6.581879407E-2,-7.666133344E-2,5.192201585E-3
2.262178602E1,6.933116168E-2,-7.360709459E-2,1.435491070E-2
2.263093836E1,6.322269142E-2,-7.406523079E-2,1.985253580E-2
2.264009066E1,5.711421743E-2,-8.261708915E-2,1.985253580E-2
2.264924295E1,5.283828825E-2,-8.567132801E-2,1.496575773E-2
2.265839524E1,5.543438718E-2,-8.857285231E-2,7.635590620E-3
2.266754753E1,6.459710002E-2,-8.444963396E-2,3.054236295E-4
2.267669982E1,7.375980914E-2,-7.299624383E-2,-3.206948051E-3
2.268585211E1,8.032641560E-2,-5.008947477E-2,-3.206948051E-3
2.269500441E1,8.261708915E-2,-2.489202656E-2,-1.374406274E-3
2.270415670E1,7.803573459E-2,-3.054236295E-3,1.527118147E-3
2.271330899E1,6.810946763E-2,8.399149403E-3,6.413896102E-3
2.272246128E1,5.390727147E-2,9.620844387E-3,1.175880991E-2
2.273161357E1,3.542914242E-2,-3.206948051E-3,1.282779220E-2
2.274076586E1,1.908897609E-2,-2.305948362E-2,1.038440317E-2
2.274991816E1,8.246437646E-3,-4.963133857E-2,5.344913341E-3
2.275907050E1,1.038440317E-2,-7.192726433E-2,-3.054236295E-3
2.276822279E1,2.580829710E-2,-8.765657991E-2,-6.108472589E-3
2.277737508E1,4.138490185E-2,-9.651386738E-2,-4.734066315E-3
2.278652737E1,4.504998401E-2,-1.032331884E-1,-1.679830020E-3
2.279567966E1,3.894151375E-2,-1.116323397E-1,1.374406274E-3
2.280483196E1,2.916795574E-2,-1.175880954E-1,6.261184346E-3