"Time (s)","Gyroscope x (rad/s)","Gyroscope y (rad/s)","Gyroscope z (rad/s)"
7.257545734E0,2.834331393E-1,-3.266505599E-1,1.183516532E-1
7.266698286E0,1.801999360E-1,-1.479777545E-1,1.064401343E-1
7.275850838E0,9.208522737E-2,1.084253844E-2,8.674030751E-2
7.285003390E0,4.474456236E-2,1.330119967E-1,6.322269142E-2
7.294143182E0,4.581354558E-2,1.727170646E-1,4.367557913E-2
7.303308494E0,7.253811508E-2,1.504211426E-1,2.305948362E-2
7.312461046E0,1.177408099E-1,6.230641901E-2,-2.137965523E-3
7.321600838E0,1.675248593E-1,-3.649812192E-2,-2.748812735E-2
7.330766098E0,1.931804419E-1,-1.467560530E-1,-4.245388508E-2
7.339918650E0,1.904316396E-1,-2.480039895E-1,-4.245388508E-2
7.349071202E0,1.663031727E-1,-3.087832928E-1,-3.268032894E-2
7.358223755E0,1.409530044E-1,-3.196258247E-1,-2.305948362E-2
7.367376307E0,1.209477559E-1,-2.829749882E-1,-1.969982497E-2
7.376528859E0,1.091889441E-1,-2.136438340E-1,-1.191152167E-2
7.385681411E0,9.804098308E-2,-1.400367320E-1,-6.413896102E-3
7.394833963E0,8.032641560E-2,-9.193251282E-2,-2.290677279E-3
7.403986463E0,5.848862603E-2,-6.184828654E-2,-3.206948051E-3
7.413139015E0,4.657710344E-2,-4.077405483E-2,-4.428642802E-3
7.422291567E0,5.512896553E-2,-3.405473381E-2,-7.635590737E-4
7.431444119E0,7.437065244E-2,-5.039490014E-2,3.665083554E-3
7.440596671E0,8.444963396E-2,-7.620319724E-2,9.162709117E-3
7.449749223E0,8.276980370E-2,-9.849911928E-2,1.343864016E-2
7.458901775E0,7.864658535E-2,-1.201841980E-1,1.404948719E-2
7.468054327E0,7.513421029E-2,-1.285833418E-1,9.773556143E-3
7.477206880E0,6.505523622E-2,-9.972081333E-2,4.275931045E-3
7.486359432E0,5.207473040E-2,-3.833066672E-2,-1.527118147E-4
7.495511932E0,4.703523964E-2,4.596625641E-2,-3.970507067E-3
7.504664484E0,5.436540768E-2,1.357607991E-1,-8.246437646E-3
7.513817036E0,7.085828483E-2,2.063136548E-1,-8.093725890E-3
7.522969588E0,8.597674966E-2,2.443388999E-1,-5.650337320E-3
7.532122140E0,1.007898003E-1,2.510582209E-1,6.108472589E-4
7.541274692E0,1.143811494E-1,2.354816198E-1,1.343864016E-2
7.550427244E0,1.177408099E-1,1.980672181E-1,2.458660305E-2
7.559579796E0,1.096470803E-1,1.391204596E-1,2.947338112E-2
7.568732348E0,9.407047927E-2,7.574506104E-2,3.298575059E-2
7.577884900E0,7.421794534E-2,3.054236248E-2,3.420744836E-2
7.587037400E0,6.642963737E-2,8.857285604E-3,3.038965166E-2
7.596189952E0,7.085828483E-2,-6.872031838E-3,2.809897438E-2
7.605342505E0,7.589777559E-2,-1.954711229E-2,2.199050039E-2
7.614495057E0,8.032641560E-2,-3.038965166E-2,1.771457121E-2
7.623647609E0,7.742489129E-2,-4.184303805E-2,1.404948719E-2
7.632800161E0,7.391251624E-2,-6.108472496E-2,1.404948719E-2
7.641952713E0,6.963659078E-2,-7.620319724E-2,1.221694518E-2
7.651105265E0,6.673506647E-2,-8.887827396E-2,1.404948719E-2
7.660257817E0,5.818320066E-2,-9.788827598E-2,1.145338640E-2
7.669410369E0,4.535540938E-2,-1.070509851E-1,9.620844387E-3
7.678562921E0,3.176405653E-2,-1.027750522E-1,7.024743594E-3
7.687715473E0,2.611372061E-2,-9.315420687E-2,4.581354558E-3
7.696867973E0,2.596100792E-2,-7.681404054E-2,2.748812549E-3
7.706020525E0,3.313846514E-2,-5.451811850E-2,-9.162708884E-4
7.715173077E0,4.337015375E-2,-2.809897438E-2,-3.359660041E-3
7.724325630E0,5.115845799E-2,-9.162708884E-4,-1.374406274E-3
7.733478182E0,4.779879749E-2,2.260134928E-2,-9.162708884E-4
7.742630734E0,3.100049868E-2,4.306473210E-2,-2.137965523E-3
7.751783286E0,1.053711493E-2,5.619794875E-2,-5.344913341E-3
7.760935838E0,-4.123218823E-3,5.909947306E-2,-9.162709117E-3
7.770088390E0,-9.009997360E-3,5.375456065E-2,-1.282779220E-2
7.779240942E0,-1.145338640E-2,4.581354558E-2,-1.542389300E-2
7.788393494E0,-1.007897966E-2,3.741439432E-2,-1.954711229E-2
7.797546046E0,-4.428642802E-3,3.023693897E-2,-2.443389036E-2
7.806698546E0,4.886778072E-3,2.351761982E-2,-2.687728032E-2
7.815851098E0,1.298050396E-2,1.817270555E-2,-2.733541466E-2
7.825003650E0,1.236965694E-2,1.695101149E-2,-2.611372061E-2
7.834156202E0,4.123218823E-3,3.084778599E-2,-2.687728032E-2
7.843308755E0,9.162708884E-4,4.474456236E-2,-2.748812735E-2
7.852461307E0,5.803049076E-3,6.093201414E-2,-2.687728032E-2
7.861613859E0,1.420219894E-2,7.727217674E-2,-2.489202656E-2
7.870766411E0,1.908897609E-2,8.750387281E-2,-2.244863659E-2
7.879918963E0,1.282779220E-2,8.628217876E-2,-1.893626526E-2
7.889071515E0,3.817795310E-3,7.727217674E-2,-1.649287529E-2
7.898224067E0,3.206948051E-3,6.642963737E-2,-1.710372418E-2
7.907376619E0,1.313321572E-2,6.337540597E-2,-1.878355257E-2
7.916529171E0,2.183778957E-2,5.848862603E-2,-2.122694254E-2
7.925681723E0,2.550287358E-2,5.909947306E-2,-2.061609551E-2
7.934834223E0,1.847812906E-2,7.009471953E-2,-1.634016447E-2
7.943986775E0,6.872031838E-3,7.299624383E-2,-1.893626526E-2
7.953139327E0,7.635590737E-4,6.337540597E-2,-2.260134928E-2
7.962291880E0,7.635590620E-3,5.543438718E-2,-2.321219631E-2
7.971444432E0,1.252236869E-2,5.726693198E-2,-2.000524849E-2
7.980596984E0,4.581354558E-3,5.909947306E-2,-1.588202827E-2
7.989749536E0,-4.123218823E-3,5.008947477E-2,-1.343864016E-2
7.998902088E0,-6.413896102E-3,3.023693897E-2,-1.282779220E-2
8.008054640E0,0.000000000E0,6.108472589E-3,-1.343864016E-2
8.017207192E0,7.635590620E-3,-1.496575773E-2,-1.450762246E-2
8.026359744E0,1.450762246E-2,-3.054236248E-2,-1.695101149E-2
8.035512296E0,2.260134928E-2,-4.321744293E-2,-1.557660475E-2
8.044664848E0,3.252761811E-2,-5.161659420E-2,-1.313321572E-2
8.053817400E0,4.062134400E-2,-5.222744122E-2,-1.007897966E-2
8.062969952E0,3.802524135E-2,-4.917320609E-2,-1.068982668E-2
8.072122505E0,2.458660305E-2,-4.627167806E-2,-1.496575773E-2
8.081275005E0,9.009997360E-3,-4.321744293E-2,-1.634016447E-2
8.090427557E0,-2.137965523E-3,-3.542914242E-2,-1.893626526E-2
8.099580109E0,-8.399149403E-3,-2.046338283E-2,-2.076880634E-2
8.108732661E0,-1.588202827E-2,-5.344913341E-3,-2.076880634E-2
8.117885213E0,-1.832541823E-2,6.108472589E-4,-2.519745007E-2
8.127037765E0,-1.771457121E-2,-5.955760833E-3,-2.886253223E-2
8.136190317E0,-1.084253844E-2,-1.801999472E-2,-3.054236248E-2
8.145342869E0,-3.206948051E-3,-3.191677108E-2,-3.115320951E-2
8.154495421E0,4.581354442E-4,-3.848337755E-2,-2.809897438E-2
8.163647973E0,-2.596100792E-3,-3.787253052E-2,-2.687728032E-2
8.172800525E0,-6.261184346E-3,-3.741439432E-2,-2.565558441E-2
8.181953077E0,-7.024743594E-3,-3.130592033E-2,-2.565558441E-2
8.191105630E0,-2.137965523E-3,-2.519745007E-2,-2.382304333E-2
8.200258182E0,2.137965523E-3,-1.679829881E-2,-2.137965336E-2
8.209410734E0,-4.581354442E-4,-1.252236869E-2,-1.954711229E-2
8.218563286E0,-7.177455351E-3,-1.313321572E-2,-1.832541823E-2
8.227715838E0,-1.084253844E-2,-1.496575773E-2,-1.649287529E-2
8.236868390E0,-1.267508045E-2,-1.679829881E-2,-1.343864016E-2
8.246020890E0,-1.267508045E-2,-2.336490713E-2,-1.160609815E-2
8.255173494E0,-1.252236869E-2,-3.481829539E-2,-1.099525020E-2
8.264325994E0,-8.857285604E-3,-4.337015375E-2,-1.343864016E-2
8.273478546E0,-2.596100792E-3,-4.993676394E-2,-1.466033421E-2
8.282631098E0,3.512371797E-3,-4.688252881E-2,-1.145338640E-2
8.291783650E0,9.009997360E-3,-3.542914242E-2,-1.084253844E-2
8.300936202E0,1.130067464E-2,-2.031067200E-2,-1.023169141E-2
8.310088755E0,6.872031838E-3,-7.024743594E-3,-9.009997360E-3
8.319241307E0,-0.000000000E0,7.330167107E-3,-7.941014133E-3
8.328393859E0,-1.068982668E-2,2.305948362E-2,-6.719320081E-3
8.337546411E0,-1.740914769E-2,3.206948191E-2,-7.482878864E-3
8.346698963E0,-1.634016447E-2,3.619270027E-2,-7.482878864E-3
8.355851515E0,-1.557660475E-2,3.436015919E-2,-8.093725890E-3
8.365004067E0,-1.557660475E-2,2.550287358E-2,-8.093725890E-3
8.374156619E0,-1.359135192E-2,1.756185852E-2,-7.482878864E-3
8.383309171E0,-1.114796288E-2,1.634016447E-2,-7.941014133E-3
8.392461723E0,-8.093725890E-3,1.206423342E-2,-9.162709117E-3
8.401614275E0,-6.261184346E-3,1.267508045E-2,-1.038440317E-2
8.410766827E0,-8.704573847E-3,2.122694254E-2,-9.773556143E-3
8.419919380E0,-8.246437646E-3,3.206948191E-2,-9.773556143E-3
8.429071932E0,-7.177455351E-3,4.474456236E-2,-7.330167107E-3
8.438224432E0,-4.123218823E-3,5.680879578E-2,-6.108472589E-3
8.447377036E0,-3.665083554E-3,7.116370648E-2,-4.886778072E-3
8.456529588E0,-0.000000000E0,7.849387079E-2,-5.497625098E-3
8.465682088E0,3.054236295E-3,7.421794534E-2,-3.054236295E-3
8.474834640E0,3.817795310E-3,6.230641901E-2,-6.108472589E-4
8.483987192E0,3.970507067E-3,4.902049154E-2,0.000000000E0
8.493139744E0,2.748812549E-3,3.634541109E-2,0.000000000E0
8.502292296E0,1.068982761E-3,2.779355086E-2,-3.665083554E-3
8.511444848E0,1.068982761E-3,2.489202656E-2,-5.497625098E-3
8.520597400E0,1.679830020E-3,2.718270384E-2,-5.497625098E-3
8.529749952E0,3.054236295E-4,3.390202299E-2,-5.497625098E-3
8.538902505E0,2.901524538E-3,3.390202299E-2,-3.665083554E-3
8.548055057E0,1.068982761E-3,2.611372061E-2,-3.665083554E-3
8.557207609E0,2.443389036E-3,1.343864016E-2,-4.886778072E-3
8.566360161E0,7.941014133E-3,3.206948051E-3,-4.123218823E-3
8.575512713E0,1.114796288E-2,2.596100792E-3,-2.290677279E-3
8.584665265E0,1.160609815E-2,9.162709117E-3,-2.290677279E-3
8.593817817E0,1.282779220E-2,2.183778957E-2,-2.290677279E-3
8.602970369E0,1.389677543E-2,3.390202299E-2,-2.901524538E-3
8.612122921E0,1.191152167E-2,4.718795046E-2,-1.068982761E-3
8.621275473E0,8.246437646E-3,5.375456065E-2,-1.221694518E-3
8.630428025E0,6.261184346E-3,5.741964281E-2,-2.443389036E-3
8.639580577E0,1.374406274E-3,5.314370990E-2,-3.054236295E-3
8.648733130E0,-3.970507067E-3,4.230117425E-2,-5.497625098E-3
8.657885682E0,-7.024743594E-3,3.145863488E-2,-5.497625098E-3
8.667038234E0,-1.985253533E-3,2.779355086E-2,-3.665083554E-3
8.676190786E0,4.734066315E-3,3.145863488E-2,-2.443389036E-3
8.685343338E0,9.620844387E-3,3.695625812E-2,-2.443389036E-3
8.694495890E0,1.374406368E-2,4.535540938E-2,1.527118147E-4
8.703648442E0,1.939439960E-2,4.902049154E-2,1.374406274E-3
8.712800994E0,1.801999472E-2,5.024218559E-2,3.817795310E-3
8.721953546E0,2.061609551E-2,4.657710344E-2,4.428642802E-3
8.731106098E0,2.061609551E-2,3.817795217E-2,5.650337320E-3
8.740258650E0,1.450762246E-2,2.855710872E-2,5.039489828E-3
8.749411202E0,1.099525020E-2,2.061609551E-2,4.428642802E-3
8.758563702E0,7.941014133E-3,1.099525020E-2,4.275931045E-3
8.767716255E0,1.038440317E-2,4.428642802E-3,5.039489828E-3
8.776868807E0,1.603474095E-2,-5.803049076E-3,6.261184346E-3
8.786021359E0,2.351761982E-2,-5.803049076E-3,6.261184346E-3
8.795173911E0,2.840439789E-2,-1.527118147E-3,5.039489828E-3
8.804326463E0,3.023693897E-2,7.635590737E-4,7.024743594E-3
8.813479015E0,2.718270384E-2,1.374406274E-3,5.650337320E-3
8.822631567E0,2.519745007E-2,6.872031838E-3,3.206948051E-3
8.831784119E0,2.336490713E-2,1.404948719E-2,1.374406274E-3
8.840936671E0,2.015795931E-2,1.710372418E-2,1.374406274E-3
8.850089223E0,1.832541823E-2,2.000524849E-2,1.527118147E-4
8.859241775E0,2.199050039E-2,1.939439960E-2,7.635590737E-4
8.868394327E0,2.275406010E-2,1.466033421E-2,1.527118147E-4
8.877546880E0,2.153236605E-2,9.162709117E-3,-4.581354442E-4
8.886699432E0,2.031067200E-2,7.635590737E-4,-1.679830020E-3
8.895851984E0,1.801999472E-2,-8.857285604E-3,-3.512371797E-3
8.905004536E0,1.557660475E-2,-1.557660475E-2,-4.123218823E-3
8.914157088E0,1.572931744E-2,-2.275406010E-2,-5.955760833E-3
8.923309640E0,1.756185852E-2,-2.580829710E-2,-4.123218823E-3
8.932462192E0,2.122694254E-2,-2.809897438E-2,-2.901524538E-3
8.941614744E0,2.244863659E-2,-2.641914412E-2,-2.901524538E-3
8.950767296E0,2.244863659E-2,-2.397575416E-2,-2.901524538E-3
8.959919848E0,1.985253580E-2,-1.786728203E-2,-1.679830020E-3
8.969072400E0,1.618745178E-2,-1.725643501E-2,-1.068982761E-3
8.978224952E0,1.252236869E-2,-1.557660475E-2,-1.068982761E-3
8.987377505E0,8.704573847E-3,-1.007897966E-2,-2.290677279E-3
8.996530057E0,1.832541777E-3,-4.581354442E-4,-3.054236295E-3
9.005682609E0,-5.039489828E-3,1.038440317E-2,-6.108472589E-3
9.014835161E0,-7.482878864E-3,2.061609551E-2,-7.941014133E-3
9.023987713E0,-6.872031838E-3,2.305948362E-2,-7.330167107E-3
9.033140265E0,2.290677279E-3,1.939439960E-2,-6.108472589E-3
9.042292817E0,1.343864016E-2,1.343864016E-2,-4.734066315E-3
9.051445369E0,2.336490713E-2,7.330167107E-3,-4.123218823E-3
9.060597921E0,2.596100792E-2,4.428642802E-3,-2.901524538E-3
9.069750473E0,2.336490713E-2,3.206948051E-3,-4.581354442E-4
9.078903025E0,2.031067200E-2,7.482878864E-3,1.374406274E-3
9.088055577E0,1.725643501E-2,1.099525020E-2,3.206948051E-3
9.097208130E0,1.282779220E-2,1.038440317E-2,5.650337320E-3
9.106360682E0,7.330167107E-3,7.941014133E-3,4.886778072E-3
9.115513234E0,5.497625098E-3,5.650337320E-3,3.665083554E-3
9.124665786E0,7.482878864E-3,-3.359660041E-3,3.054236295E-3
9.133818338E0,9.926267900E-3,-1.191152167E-2,1.374406274E-3
9.142970890E0,1.191152167E-2,-1.786728203E-2,-4.581354442E-4
9.152123442E0,1.557660475E-2,-1.786728203E-2,-1.679830020E-3
9.161275994E0,1.679829881E-2,-1.374406368E-2,-4.581354442E-4
9.170428546E0,1.863084175E-2,-6.413896102E-3,1.374406274E-3
9.179581098E0,1.725643501E-2,2.596100792E-3,3.206948051E-3
9.188733650E0,1.404948719E-2,9.162709117E-3,5.039489828E-3
9.197886202E0,1.099525020E-2,1.649287529E-2,4.428642802E-3
9.207038755E0,9.620844387E-3,2.305948362E-2,4.886778072E-3
9.216191307E0,1.084253844E-2,3.329117596E-2,3.665083554E-3
9.225343859E0,1.206423342E-2,3.817795217E-2,1.832541777E-3
9.234496411E0,5.955760833E-3,3.512371704E-2,-1.832541777E-3
9.243648963E0,-1.985253533E-3,2.779355086E-2,-4.886778072E-3
9.252801515E0,-8.704573847E-3,2.305948362E-2,-4.886778072E-3
9.261954067E0,-9.468132630E-3,2.122694254E-2,-3.054236295E-3
9.271106619E0,-7.482878864E-3,1.466033421E-2,-1.221694518E-3
9.280259171E0,-7.635590737E-4,1.099525020E-2,2.443389036E-3
9.289411723E0,4.275931045E-3,6.719320081E-3,4.886778072E-3
9.298564275E0,9.162709117E-3,6.872031838E-3,6.261184346E-3
9.307716827E0,1.221694518E-2,1.221694518E-2,8.093725890E-3
9.316869380E0,1.466033421E-2,1.588202827E-2,8.704573847E-3
9.326021932E0,1.404948719E-2,2.061609551E-2,7.482878864E-3
9.335174484E0,1.084253844E-2,2.244863659E-2,5.039489828E-3
9.344327036E0,9.009997360E-3,2.244863659E-2,6.108472589E-4
9.353479588E0,6.108472589E-3,2.122694254E-2,-4.886778072E-3
9.362632140E0,3.665083554E-3,1.939439960E-2,-1.038440317E-2
9.371784692E0,3.054236295E-3,1.404948719E-2,-1.404948719E-2
9.380937244E0,4.428642802E-3,-2.290677279E-3,-1.527118124E-2
9.390089796E0,6.413896102E-3,-1.557660475E-2,-1.695101149E-2
9.399242348E0,1.267508045E-2,-2.825168520E-2,-1.634016447E-2
9.408394900E0,1.954711229E-2,-3.237490356E-2,-1.511846948E-2
9.417547505E0,3.115320951E-2,-3.359659761E-2,-1.068982668E-2
9.426700057E0,3.985778242E-2,-3.054236248E-2,-7.635590620E-3
9.435852609E0,4.520269856E-2,-2.458660305E-2,-7.024743594E-3
9.445005161E0,4.092676565E-2,-1.969982497E-2,-1.618745178E-2
9.454157713E0,3.344388679E-2,-8.246437646E-3,-3.145863488E-2
9.463310265E0,2.840439789E-2,7.330167107E-3,-3.939964995E-2
9.472462817E0,3.573456407E-2,2.657185495E-2,-3.756710514E-2
9.481615369E0,4.856235534E-2,3.390202299E-2,-3.268032894E-2
9.490767921E0,5.421269313E-2,1.817270555E-2,-3.374931216E-2
9.499920473E0,5.329642445E-2,-1.496575773E-2,-3.619270027E-2
9.509073025E0,4.749337584E-2,-5.054761097E-2,-3.558185324E-2
9.518225577E0,3.894151375E-2,-6.673506647E-2,-3.023693897E-2
9.527378130E0,2.535016090E-2,-6.856760383E-2,-2.779355086E-2
9.536530682E0,8.704573847E-3,-6.077930331E-2,-2.794626169E-2
9.545683234E0,-8.093725890E-3,-5.238015205E-2,-2.993151546E-2
9.554835786E0,-1.863084175E-2,-3.726168349E-2,-3.115320951E-2
9.563988338E0,-2.061609551E-2,-2.168507688E-2,-3.374931216E-2
9.573140890E0,-1.450762246E-2,-6.566607859E-3,-3.665083647E-2
9.582293442E0,-1.068982761E-3,6.719320081E-3,-4.092676565E-2
9.591445994E0,1.420219894E-2,2.229592577E-2,-4.382828996E-2
9.600598546E0,2.275406010E-2,3.558185324E-2,-4.810422286E-2
9.609751098E0,2.825168520E-2,4.337015375E-2,-5.238015205E-2
9.618903650E0,2.580829710E-2,4.214845970E-2,-5.299099907E-2
9.628056202E0,2.580829710E-2,3.909422457E-2,-5.299099907E-2
9.637208755E0,2.580829710E-2,3.665083647E-2,-5.299099907E-2
9.646361307E0,2.947338112E-2,3.313846514E-2,-5.360184610E-2
9.655513859E0,3.573456407E-2,3.191677108E-2,-4.978405312E-2
9.664666411E0,4.550812021E-2,3.252761811E-2,-4.672981426E-2
9.673818963E0,5.176930502E-2,3.191677108E-2,-4.001049697E-2
9.682971515E0,5.222744122E-2,3.145863488E-2,-3.390202299E-2
9.692124067E0,4.917320609E-2,2.550287358E-2,-2.962609194E-2
9.701276619E0,4.627167806E-2,1.221694518E-2,-2.535016090E-2
9.710429171E0,4.764608666E-2,7.635590737E-4,-2.290677279E-2
9.719581723E0,4.825693369E-2,-8.857285604E-3,-2.351761982E-2
9.728734275E0,5.131116882E-2,-1.130067464E-2,-2.580829710E-2
9.737886827E0,5.573981255E-2,-1.435491070E-2,-2.702999115E-2
9.747039432E0,6.551336497E-2,-4.581354558E-3,-2.947338112E-2
9.756191984E0,7.589777559E-2,1.588202827E-2,-3.176405653E-2
9.765344536E0,8.246438205E-2,3.329117596E-2,-3.481829539E-2
9.774497088E0,8.918370306E-2,3.985778242E-2,-3.420744836E-2
9.783649640E0,8.918370306E-2,4.291202128E-2,-3.237490356E-2
9.792802192E0,8.170082420E-2,4.840964451E-2,-2.932066843E-2
9.801954744E0,7.116370648E-2,4.886778072E-2,-2.886253223E-2
9.811107296E0,6.261184067E-2,5.070032179E-2,-2.886253223E-2
9.820259848E0,6.062658876E-2,5.986303091E-2,-3.069507517E-2
9.829412400E0,6.658235192E-2,7.727217674E-2,-3.069507517E-2
9.838564952E0,8.002099395E-2,8.933641016E-2,-2.626643144E-2
9.847717505E0,1.047603041E-1,8.643488586E-2,-1.756185852E-2
9.856870057E0,1.269035190E-1,7.574506104E-2,-8.857285604E-3
9.866022609E0,1.382041872E-1,6.245913357E-2,-1.527118147E-3
9.875175161E0,1.432436854E-1,5.344913527E-2,2.290677279E-3
9.884327713E0,1.388150454E-1,5.711421743E-2,3.970507067E-3
9.893480265E0,1.380514801E-1,7.330167294E-2,7.635590620E-3
9.902632817E0,1.452289373E-1,9.208522737E-2,1.756185852E-2
9.911785369E0,1.684411317E-1,9.941539168E-2,2.932066843E-2
9.920937921E0,2.049392611E-1,8.200624585E-2,4.734066129E-2
9.930090525E0,2.489202619E-1,4.840964451E-2,6.658235192E-2
9.939243025E0,2.961082160E-1,5.803049076E-3,8.765657991E-2
9.948395577E0,3.400892019E-1,-3.023693897E-2,1.093416587E-1
9.957548182E0,3.814741075E-1,-5.467082933E-2,1.328592747E-1
9.966700734E0,4.288147688E-1,-5.940489471E-2,1.624853760E-1
9.975853286E0,4.847072959E-1,-5.253286287E-2,1.995943487E-1
9.985005838E0,5.580089688E-1,-5.589252338E-2,2.397575527E-1
9.994158390E0,6.522321701E-1,-7.895200700E-2,2.916795611E-1
1.000331094E1,7.682931423E-1,-1.177408099E-1,3.512371778E-1
1.001246349E1,8.903098702E-1,-1.630962193E-1,4.193466306E-1
1.002161605E1,1.019198656E0,-2.096733153E-1,5.051707029E-1
1.003076860E1,1.154195905E0,-2.512109280E-1,6.056550741E-1
1.003992115E1,1.302631736E0,-2.997733057E-1,7.287407517E-1
1.004907370E1,1.468934894E0,-3.665083647E-1,8.822161555E-1
1.005822626E1,1.640583038E0,-4.566083252E-1,1.023932695E0
1.006736610E1,1.801083088E0,-5.259394646E-1,1.135565042E0
1.007653136E1,1.936538577E0,-5.523586273E-1,1.218334913E0
1.008568391E1,2.048781633E0,-5.164713860E-1,1.272853017E0
1.009483646E1,2.163162947E0,-4.210264683E-1,1.297439575E0
1.010398902E1,2.287622929E0,-3.388675153E-1,1.284153700E0
1.011314157E1,2.395437479E0,-3.817795515E-1,1.223985195E0
1.012228141E1,2.469502687E0,-5.514423847E-1,1.129303813E0
1.013144672E1,2.512109280E0,-7.354601026E-1,1.031415582E0
1.014059928E1,2.533183575E0,-7.898254991E-1,9.700254202E-1
1.014973907E1,2.510429621E0,-7.093463540E-1,9.300149679E-1
1.015890438E1,2.423689127E0,-6.348230243E-1,9.006943107E-1
1.016805693E1,2.277544022E0,-6.893411279E-1,8.947384953E-1
1.017720948E1,2.098107576E0,-8.335011005E-1,9.199360013E-1
1.018636204E1,1.930430055E0,-1.004232883E0,9.610154629E-1
1.019551459E1,1.812231064E0,-1.159082651E0,9.962918758E-1
1.020466714E1,1.767181158E0,-1.262621284E0,1.038134933E0
1.021381969E1,1.792683959E0,-1.301715493E0,1.076160192E0
1.022297224E1,1.869192600E0,-1.239409089E0,1.083490372E0
1.023211204E1,1.935164094E0,-1.095401883E0,1.072189689E0
1.024127735E1,1.958987117E0,-8.646543026E-1,1.059972763E0
1.025042990E1,1.933484316E0,-6.875085831E-1,1.048672080E0
1.025958245E1,1.873010397E0,-5.894675851E-1,1.017671585E0
1.026873506E1,1.797265291E0,-5.036435723E-1,9.822424054E-1
1.027788761E1,1.712357521E0,-3.778090179E-1,9.541434050E-1
1.028704016E1,1.612789512E0,-2.822114229E-1,9.466605186E-1
1.029619271E1,1.532157660E0,-2.837385535E-1,9.283351302E-1
1.030534527E1,1.493368864E0,-3.471139669E-1,8.964183331E-1
1.031449782E1,1.471072912E0,-3.875826001E-1,8.645015955E-1
1.032365037E1,1.450151443E0,-4.515688419E-1,8.545753360E-1
1.033280292E1,1.427091956E0,-5.552601814E-1,8.374716043E-1
1.034195547E1,1.406017661E0,-6.621584296E-1,8.098307252E-1
1.035110802E1,1.378224134E0,-7.273663878E-1,7.815790772E-1
1.036026058E1,1.344932914E0,-7.583668828E-1,7.435538173E-1
1.036941313E1,1.295148849E0,-7.507312894E-1,6.881194115E-1
1.037856568E1,1.227955699E0,-7.340856791E-1,6.418477297E-1
1.038771823E1,1.146865726E0,-7.554653287E-1,5.960342288E-1
1.039687079E1,1.056307673E0,-8.064711094E-1,5.583143830E-1
1.040602339E1,9.773555994E-1,-8.501466513E-1,5.228852630E-1
1.041517594E1,9.072608948E-1,-8.570187092E-1,4.912739098E-1
1.042432849E1,8.441908956E-1,-8.246437907E-1,4.602734149E-1
1.043348105E1,7.864658237E-1,-7.615737915E-1,4.237752855E-1
1.044263360E1,7.285880446E-1,-6.768187881E-1,3.897205591E-1
1.045178615E1,6.644490957E-1,-5.848862529E-1,3.581092060E-1
1.046093870E1,5.931326747E-1,-5.267030597E-1,3.330644667E-1
1.047009126E1,5.187620521E-1,-4.618005157E-1,3.026748300E-1
1.047924381E1,4.445441067E-1,-3.649812341E-1,2.794626355E-1
1.048839636E1,3.611634374E-1,-2.531961799E-1,2.585411072E-1
1.049754891E1,2.745758295E-1,-1.467560530E-1,2.371614426E-1
1.050670146E1,1.834068894E-1,-7.162184268E-2,2.182251811E-1
1.051585402E1,9.529217333E-2,-5.375456065E-2,1.966928244E-1
1.052500662E1,9.773556143E-3,-7.207997888E-2,1.760767251E-1
1.053415912E1,-6.795676053E-2,-1.217113137E-1,1.601946950E-1
1.054331172E1,-1.388150454E-1,-1.977618039E-1,1.525591016E-1
1.055246428E1,-2.078407854E-1,-2.664821148E-1,1.447708011E-1
1.056161683E1,-2.736595869E-1,-2.751866877E-1,1.278197914E-1
1.057076938E1,-3.373403847E-1,-2.336490750E-1,1.108687744E-1
1.057992193E1,-4.013266563E-1,-1.718007922E-1,9.376505762E-2
1.058907448E1,-4.640912116E-1,-1.050657257E-1,7.253811508E-2
1.059822704E1,-4.859289825E-1,-7.574506104E-2,4.734066129E-2
1.060737959E1,-4.083513916E-1,-4.489727318E-2,2.473931387E-2
1.061651943E1,-2.597627938E-1,-4.184303805E-2,1.893626526E-2
1.062568469E1,-7.238540053E-2,-6.062658876E-2,4.596625641E-2
1.063483730E1,2.168507688E-2,-1.427855492E-1,1.218640283E-1
1.064398985E1,-2.015795931E-2,-2.564031482E-1,2.113531530E-1
1.065314240E1,-1.224748790E-1,-2.122694254E-1,2.655658424E-1
1.066229495E1,-2.564031482E-1,-5.879404768E-2,2.681619525E-1
1.067143474E1,-3.833066523E-1,9.086353332E-2,2.171562016E-1
1.068060006E1,-4.434750974E-1,1.808107942E-1,1.482831687E-1
1.068975261E1,-4.434750974E-1,2.029540092E-1,9.513945878E-2
1.069890516E1,-4.469874799E-1,1.918060333E-1,5.909947306E-2
1.070805771E1,-4.813476503E-1,1.965401024E-1,3.069507517E-2
1.071721026E1,-5.726693273E-1,3.463504016E-1,1.404948719E-2
1.072636282E1,-7.443174124E-1,6.786513329E-1,-3.313846514E-2
1.073551542E1,-9.013051391E-1,9.984298348E-1,-1.591257155E-1
1.074466797E1,-1.001025915E0,1.041036487E0,-3.093941510E-1
1.075382052E1,-1.116323352E0,9.622371197E-1,-4.158342779E-1
1.076297308E1,-1.267355323E0,1.109604001E0,-4.366030693E-1
1.077212563E1,-1.332257867E0,1.257734537E0,-4.095730782E-1
1.078126542E1,-1.285069942E0,1.360814929E0,-4.228590131E-1
1.079043073E1,-1.225359559E0,1.347987175E0,-5.073086619E-1
1.079958329E1,-1.205201626E0,9.998042583E-1,-6.131379604E-1
1.080872308E1,-1.258498073E0,4.934118688E-1,-6.528429985E-1
1.081788839E1,-1.389677525E0,1.782146841E-1,-6.210789680E-1
1.082704094E1,-1.484511495E0,9.254335612E-2,-6.033644080E-1
1.083618079E1,-1.487260342E0,6.169557199E-2,-6.229115129E-1
1.084534610E1,-1.463131905E0,1.262926757E-1,-5.966450572E-1
1.085449865E1,-1.516122937E0,2.845021188E-1,-5.079194903E-1
1.086365120E1,-1.581941724E0,3.582619131E-1,-3.941491842E-1
1.087280376E1,-1.601030707E0,3.669664860E-1,-2.918322682E-1
1.088195631E1,-1.557965875E0,3.516952991E-1,-2.316638231E-1
1.089110886E1,-1.443279386E0,2.646495700E-1,-2.057028115E-1
1.090026141E1,-1.349972486E0,2.310529798E-1,-2.008160353E-1
1.090941396E1,-1.319430113E0,2.104368806E-1,-2.261662036E-1
1.091856652E1,-1.273769259E0,9.223793447E-2,-2.861819267E-1
1.092771907E1,-1.174659252E0,5.344913341E-3,-3.599417508E-1
1.093687167E1,-1.137855768E0,5.451811850E-2,-4.153761268E-1
1.094602422E1,-1.138313890E0,1.327065676E-1,-4.666872919E-1
1.095517678E1,-1.135412335E0,2.422009408E-1,-5.076140761E-1
1.096432933E1,-1.139535546E0,3.643703759E-1,-5.401417017E-1
1.097348188E1,-1.143658757E0,4.938700199E-1,-5.537330508E-1
1.098263443E1,-1.144880533E0,6.415423155E-1,-5.470137000E-1
1.099178698E1,-1.141062737E0,8.247964978E-1,-5.270084739E-1
1.100093954E1,-1.122737288E0,9.713998437E-1,-5.031854510E-1
1.101009209E1,-1.104564548E0,1.064859509E0,-4.964661002E-1
1.101924464E1,-1.101968408E0,1.110214949E0,-4.854708612E-1
1.102839719E1,-1.115559816E0,1.103648305E0,-4.618005157E-1
1.103754974E1,-1.108076930E0,1.094027400E0,-4.463766217E-1
1.104670235E1,-1.143506050E0,1.059667230E0,-4.501944184E-1
1.105585490E1,-1.148545504E0,1.013701081E0,-4.631749392E-1
1.106500745E1,-1.143964171E0,9.878927469E-1,-4.807367921E-1
1.107416001E1,-1.156486630E0,1.018893242E0,-5.150969625E-1
1.108331256E1,-1.164733052E0,1.076618314E0,-5.537330508E-1
1.109246511E1,-1.160151601E0,1.116323352E0,-5.896202922E-1
1.110161766E1,-1.143506050E0,1.198176861E0,-6.152759194E-1
1.111077021E1,-1.130831003E0,1.321109891E0,-6.348230243E-1
1.111992276E1,-1.136939406E0,1.390899181E0,-6.496360302E-1
1.112907537E1,-1.137550354E0,1.460230350E0,-6.624638438E-1
1.113822792E1,-1.118461370E0,1.548039675E0,-6.971294284E-1
1.114738047E1,-1.122584581E0,1.771304369E0,-7.699729800E-1
1.115653302E1,-1.078756213E0,1.716328144E0,-8.167027831E-1
1.116568558E1,-1.037676811E0,1.745954156E0,-8.194515705E-1
1.117483813E1,-1.019045949E0,1.725490808E0,-8.156337738E-1
1.118399068E1,-1.065928459E0,1.653716207E0,-8.153283596E-1
1.119314323E1,-1.149919987E0,1.542083859E0,-8.243383765E-1
1.120229579E1,-1.158166409E0,1.370741248E0,-8.524373770E-1
1.121144839E1,-1.041341901E0,1.276823521E0,-8.887827396E-1
1.122060094E1,-9.251281619E-1,1.178782463E0,-9.190196991E-1
1.122975349E1,-8.924478292E-1,9.883508682E-1,-9.271134138E-1
1.123890605E1,-8.900044560E-1,8.328902125E-1,-8.764131069E-1
1.124805860E1,-8.411366940E-1,7.098045349E-1,-8.026533127E-1
1.125721115E1,-7.994463444E-1,6.449019909E-1,-7.669187188E-1
1.126636370E1,-8.313631415E-1,7.122479081E-1,-8.043331504E-1
1.127551626E1,-8.466343284E-1,7.896727920E-1,-8.473978639E-1
1.128466881E1,-8.435800672E-1,8.637380004E-1,-8.596147895E-1
1.129382141E1,-8.593093753E-1,8.338065147E-1,-8.506048322E-1
1.130297396E1,-8.829796910E-1,6.850652099E-1,-7.980719209E-1
1.131212652E1,-9.211576581E-1,5.164713860E-1,-7.475243211E-1
1.132127907E1,-9.739959836E-1,3.477247953E-1,-7.319477201E-1
1.133043162E1,-1.008203387E0,1.794363856E-1,-7.369872332E-1
1.133958417E1,-1.020267606E0,7.757759839E-2,-7.333221436E-1
1.134873672E1,-1.005454540E0,-1.221694518E-3,-7.177455425E-1
1.135788928E1,-9.633061290E-1,-4.321744293E-2,-6.814001203E-1
1.136704183E1,-9.272661209E-1,-3.924693540E-2,-6.274928451E-1
1.137619443E1,-8.916842937E-1,-3.970507160E-2,-5.789304972E-1
1.138534698E1,-8.252546191E-1,3.344388679E-2,-5.486935377E-1
1.139449954E1,-7.072083950E-1,1.934858710E-1,-5.112791657E-1
1.140365209E1,-5.564818382E-1,3.475720882E-1,-4.529432356E-1
1.141280464E1,-3.924693763E-1,4.541649222E-1,-3.834593594E-1
1.142195719E1,-2.162399292E-1,4.705050886E-1,-3.016058207E-1
1.143110974E1,-3.023693897E-2,3.729222417E-1,-2.031067163E-1
1.144026235E1,1.481304616E-1,1.652341783E-1,-9.116895497E-2
1.144941490E1,3.080197275E-1,-6.551336497E-2,3.588727489E-2
1.145856745E1,4.511106908E-1,-2.822114229E-1,1.682884246E-1
1.146772000E1,6.009209752E-1,-4.720322192E-1,2.860292196E-1
1.147687256E1,7.718055248E-1,-6.093201637E-1,3.888042867E-1
1.148602511E1,9.610154629E-1,-7.201889157E-1,4.811949134E-1
1.149516495E1,1.159846187E0,-7.406523228E-1,5.668662786E-1
1.150433021E1,1.358829737E0,-6.044333577E-1,6.230642200E-1
1.151348282E1,1.545901656E0,-1.899735034E-1,6.784985662E-1
1.152262261E1,1.728086948E0,4.121691883E-1,7.985301018E-1
1.153178792E1,1.931193590E0,9.368869662E-1,9.633061290E-1
1.154094047E1,2.089097738E0,1.105480790E0,1.178018928E0
1.155008026E1,2.168354988E0,9.313893318E-1,1.455190897E0
1.155924558E1,2.149724245E0,4.097257853E-1,1.721062183E0
1.156839813E1,2.002815485E0,-4.340069890E-1,1.913020849E0
1.157753797E1,1.888128877E0,-1.377460599E0,2.005106211E0
1.158670329E1,1.938218355E0,-2.163162947E0,2.006022453E0
1.159585584E1,2.138881683E0,-2.525242567E0,1.954558492E0
1.160499563E1,2.359550238E0,-2.628170252E0,1.884769201E0
1.161416094E1,2.492867708E0,-2.612746477E0,1.805206418E0
1.162331349E1,2.521424770E0,-2.526617050E0,1.727628708E0
1.163245329E1,2.459576607E0,-2.414373875E0,1.673416018E0
1.164161860E1,2.401851416E0,-2.348249674E0,1.650967479E0
1.165077120E1,2.447817564E0,-2.474694967E0,1.664253354E0
1.165991099E1,2.569529057E0,-2.647870064E0,1.690214396E0
1.166907631E1,2.623589039E0,-2.631530046E0,1.696780920E0
1.167822886E1,2.504321098E0,-2.385969400E0,1.687770963E0
1.168736865E1,2.293273211E0,-2.011367321E0,1.702584028E0
1.169653396E1,2.145906448E0,-1.464811683E0,1.739540339E0
1.170568652E1,2.100245476E0,-8.351809382E-1,1.742441773E0
1.171483912E1,2.100245476E0,-3.399364948E-1,1.713884711E0
1.172399167E1,2.087875843E0,-4.123219103E-2,1.681357026E0
1.173314422E1,2.020071983E0,1.140757278E-1,1.659366608E0
1.174228402E1,1.933026195E0,1.415638477E-1,1.639208674E0
1.175144933E1,1.878049850E0,9.727742523E-2,1.608971715E0
1.176060188E1,1.858808160E0,5.070032179E-2,1.565448761E0
1.176974172E1,1.862625957E0,1.191152167E-2,1.482984424E0
1.177890704E1,1.878508091E0,-1.133121699E-1,1.344016671E0
1.178805959E1,1.880187869E0,-3.629959822E-1,1.169619799E0
1.179721214E1,1.842773438E0,-6.569662094E-1,1.007134438E0
1.180636469E1,1.777718186E0,-9.089407325E-1,8.919897079E-1
1.181551724E1,1.703805685E0,-1.092500329E0,7.994463444E-1
1.182466980E1,1.623326540E0,-1.206423283E0,6.901046634E-1
1.183382235E1,1.530477762E0,-1.241394401E0,5.595360994E-1
1.184297495E1,1.432894945E0,-1.222763538E0,4.262186885E-1
1.185212750E1,1.329814434E0,-1.143964171E0,2.924431264E-1
1.186128006E1,1.211310148E0,-1.003622055E0,1.724116355E-1
1.187043261E1,1.078908920E0,-8.228112459E-1,6.688777357E-2
1.187958516E1,9.289459586E-1,-6.119162440E-1,-2.901524492E-2
1.188873771E1,7.603521347E-1,-4.100312293E-1,-1.236965731E-1
1.189789027E1,5.871769190E-1,-2.997733057E-1,-2.087570578E-1
1.190704287E1,4.130854607E-1,-3.116848171E-1,-2.741177082E-1
1.191619542E1,2.324273884E-1,-4.111002088E-1,-3.075616062E-1
1.192534797E1,3.283303976E-2,-4.950917065E-1,-3.089359999E-1
1.193450052E1,-1.724116355E-1,-4.961606860E-1,-3.310792148E-1
1.194365308E1,-3.666610718E-1,-4.633276463E-1,-3.521534503E-1
1.195280563E1,-5.485408306E-1,-4.660764635E-1,-3.607053161E-1
1.196194547E1,-7.354601026E-1,-4.436278343E-1,-3.669664860E-1
1.197111079E1,-9.107732773E-1,-3.384093940E-1,-3.895678520E-1
1.198026334E1,-1.042258143E0,-2.261662036E-1,-4.291202128E-1
1.198940313E1,-1.070967913E0,-1.827960461E-1,-4.390464723E-1
1.199856844E1,-9.643751383E-1,-6.673506647E-2,-3.700207174E-1
1.200772099E1,-7.091936469E-1,1.496575773E-2,-2.351761907E-1
1.201686079E1,-5.296045542E-1,5.986303091E-2,-7.818844914E-2
1.202602615E1,-6.639909744E-1,-7.971556485E-2,6.016845629E-2
1.203517870E1,-1.296676040E0,6.430694461E-1,5.757235363E-2
1.204431849E1,-2.122541428E0,1.631267548E0,-2.786990702E-1
1.205348381E1,-2.204547644E0,1.150836229E0,-7.417212725E-1
1.206263636E1,-2.051530600E0,3.115321100E-1,-9.116895199E-1
1.207177620E1,-1.933789730E0,1.298508525E0,-5.085303187E-1
1.208094152E1,-1.663489819E0,2.228828907E0,-1.776038408E-1
1.209009407E1,-1.478097677E0,1.699987888E0,-3.578037918E-1
1.209923386E1,-1.513526797E0,9.988879561E-1,-5.871769190E-1
1.210839917E1,-1.683495045E0,3.967452943E-1,-5.134171247E-1
1.211755172E1,-1.668987393E0,-2.935121059E-1,-3.075616062E-1
1.212669157E1,-1.627297044E0,-7.742488980E-1,-2.880144715E-1
1.213585683E1,-1.644706249E0,-1.311183691E0,-4.324798584E-1
1.214500943E1,-1.583316088E0,-1.799556017E0,-5.276193023E-1
1.215414922E1,-1.449235082E0,-1.937760234E0,-4.740174711E-1
1.216331454E1,-1.401589036E0,-1.734653473E0,-3.394783735E-1
1.217246709E1,-1.399756551E0,-1.381583810E0,-2.121167034E-1
1.218160688E1,-1.358218908E0,-9.492566586E-1,-1.414111406E-1
1.219077219E1,-1.339282632E0,-3.611634374E-1,-1.592784226E-1
1.219992474E1,-1.354401112E0,2.031067163E-1,-2.521272004E-1
1.220907735E1,-1.394258857E0,5.816792846E-1,-3.704788685E-1
1.221822990E1,-1.411362648E0,8.319739699E-1,-4.605788291E-1
1.222738245E1,-1.423274159E0,1.012479305E0,-5.254813433E-1
1.223653500E1,-1.403116107E0,1.118461370E0,-5.625903010E-1
1.224568756E1,-1.355164647E0,1.212379098E0,-5.917583108E-1
1.225484016E1,-1.300799251E0,1.284611821E0,-6.255075932E-1
1.226399271E1,-1.255138397E0,1.376238823E0,-6.730009913E-1
1.227314526E1,-1.231468081E0,1.436865449E0,-7.168292403E-1
1.228229782E1,-1.230857253E0,1.515817523E0,-7.149966955E-1
1.229145037E1,-1.250098944E0,1.595991135E0,-7.004891038E-1
1.230060292E1,-1.269035220E0,1.646538734E0,-6.983511448E-1
1.230975552E1,-1.266286373E0,1.685785770E0,-7.197307944E-1
1.231890808E1,-1.267966151E0,1.737402320E0,-7.447755337E-1
1.232806063E1,-1.284459114E0,1.802457571E0,-7.571451664E-1
1.233721318E1,-1.280030489E0,1.796349049E0,-7.734853625E-1
1.234636573E1,-1.226581335E0,1.753589749E0,-7.853968740E-1
1.235551829E1,-1.171757698E0,1.696475506E0,-7.818844914E-1
1.236467084E1,-1.158929944E0,1.707928896E0,-7.824953198E-1
1.237382344E1,-1.161220670E0,1.768097401E0,-7.941014171E-1
1.238297599E1,-1.163205862E0,1.858350039E0,-8.228112459E-1
1.239212855E1,-1.121515512E0,1.815132618E0,-8.298360109E-1
1.240128110E1,-1.078603506E0,1.765806675E0,-8.203678727E-1
1.241043365E1,-1.063026905E0,1.751909971E0,-8.203678727E-1
1.241958620E1,-1.070357084E0,1.750077367E0,-8.301414251E-1
1.242873881E1,-1.061499834E0,1.726559758E0,-8.336538076E-1
1.243789136E1,-9.909469485E-1,1.537502527E0,-8.281561732E-1
1.244704391E1,-9.057337642E-1,1.317750216E0,-8.090671897E-1
1.245619646E1,-8.677085042E-1,1.196802497E0,-7.879929543E-1
1.246534902E1,-8.402203918E-1,1.151752472E0,-7.834116220E-1
1.247450157E1,-8.073873520E-1,1.070204377E0,-7.941014171E-1
1.248365417E1,-7.791357040E-1,9.341381788E-1,-8.011261821E-1
1.249280672E1,-7.589777112E-1,8.232693672E-1,-8.015843034E-1
1.250195928E1,-7.354601026E-1,6.707102656E-1,-8.043331504E-1
1.251111183E1,-7.171346545E-1,4.767662883E-1,-8.052493930E-1
1.252026443E1,-7.030851841E-1,3.574983478E-1,-7.947123051E-1
1.252941698E1,-6.578825116E-1,3.161134422E-1,-7.748597264E-1
1.253856954E1,-5.958815217E-1,2.735068500E-1,-7.518002391E-1
1.254772209E1,-5.633538961E-1,2.024958730E-1,-7.374453545E-1
1.255687464E1,-5.858024955E-1,8.674030751E-2,-7.314895988E-1
1.256602719E1,-6.119162440E-1,-3.481829539E-2,-7.076665759E-1
1.257517980E1,-6.157340407E-1,-1.148392856E-1,-6.642963886E-1
1.258433235E1,-6.010736823E-1,-1.762294322E-1,-6.183301210E-1
1.259348490E1,-5.764871240E-1,-2.608317733E-1,-5.772506595E-1
1.260263745E1,-5.369347334E-1,-3.529170156E-1,-5.474718809E-1
1.261179001E1,-4.920374751E-1,-5.057815313E-1,-5.245651007E-1
1.262094261E1,-4.303418994E-1,-6.682668924E-1,-4.934118688E-1
1.263009516E1,-3.600944579E-1,-7.456917763E-1,-4.508052766E-1
1.263924771E1,-3.142809272E-1,-7.214106321E-1,-4.187358022E-1
1.264840027E1,-2.825168669E-1,-5.520532131E-1,-3.990359604E-1
1.265755282E1,-2.173089087E-1,-2.739650011E-1,-3.775036037E-1
1.266670537E1,-1.009425074E-1,-3.054236295E-3,-3.274141252E-1
1.267585797E1,2.886253223E-2,1.986780763E-1,-2.454078794E-1
1.268501053E1,1.727170646E-1,3.246653080E-1,-1.461452097E-1
1.269416308E1,3.535278440E-1,3.964398801E-1,-4.046862945E-2
1.270331563E1,5.798467398E-1,3.877353072E-1,9.055810422E-2
1.271246818E1,8.502993584E-1,2.681619525E-1,2.483094037E-1
1.272162073E1,1.130831003E0,3.726168349E-2,4.146125913E-1
1.273077334E1,1.333784938E0,-1.125486046E-1,5.505260825E-1
1.273992589E1,1.402505279E0,-5.726693198E-2,6.352811456E-1
1.274907844E1,1.377460599E0,2.681619525E-1,6.617003083E-1
1.275821829E1,1.337450027E0,8.750386834E-1,6.841489077E-1
1.276738355E1,1.353484869E0,1.449845910E0,7.809682488E-1
1.277653615E1,1.429229856E0,1.625617266E0,1.021489382E0
1.278567594E1,1.463742733E0,1.337144613E0,1.362647533E0
1.279484126E1,1.505433083E0,7.844805717E-1,1.674179673E0
1.280399381E1,1.522078633E0,5.864133686E-2,1.881867647E0
1.281313365E1,1.522536755E0,-8.677085042E-1,1.966775417E0
1.282229896E1,1.590035439E0,-1.944632292E0,1.948450089E0
1.283145152E1,1.798487067E0,-2.750187159E0,1.893779159E0
1.284059131E1,2.066496372E0,-3.121276855E0,1.795127392E0
1.284975662E1,2.273878813E0,-3.257495642E0,1.709456086E0
1.285890917E1,2.336185455E0,-3.151666403E0,1.643179178E0
1.286804902E1,2.309918880E0,-2.788517714E0,1.568197608E0
1.287721433E1,2.319539785E0,-2.321219683E0,1.497797489E0
1.288636688E1,2.425063610E0,-1.952420592E0,1.451831222E0
1.289550667E1,2.539597511E0,-1.791462302E0,1.421441555E0
1.290467198E1,2.543262482E0,-1.781994224E0,1.398840189E0
1.291382454E1,2.420482159E0,-1.820172071E0,1.377155185E0
1.292296438E1,2.219513416E0,-1.813910961E0,1.366618037E0
1.293212969E1,2.026638508E0,-1.687007427E0,1.376849771E0
1.294128224E1,1.916227818E0,-1.396702290E0,1.392884493E0
1.295042209E1,1.872246861E0,-9.634588361E-1,1.398992896E0
1.295958735E1,1.864611268E0,-5.300627351E-1,1.422357798E0
1.296873995E1,1.869498014E0,-1.111742035E-1,1.434880257E0
1.297789251E1,1.864458561E0,2.509055138E-1,1.427244663E0
1.298704506E1,1.828724027E0,4.575245976E-1,1.421441555E0
1.299619761E1,1.757407546E0,5.117372870E-1,1.425259352E0
1.300533745E1,1.675401330E0,4.301891923E-1,1.436865449E0
1.301450277E1,1.597212911E0,2.745758295E-1,1.432742238E0
1.302365532E1,1.543763757E0,7.788302749E-2,1.385554314E0
1.303279511E1,1.516428351E0,-1.437018216E-1,1.297592282E0
1.304196042E1,1.505127668E0,-4.098785222E-1,1.186570764E0
1.305111297E1,1.501157165E0,-6.688777208E-1,1.063332319E0
1.306026558E1,1.492910743E0,-8.771766424E-1,9.498674870E-1
1.306941813E1,1.476417780E0,-1.049435616E0,8.338065147E-1
1.307857068E1,1.431978703E0,-1.189014196E0,7.194253802E-1
1.308772323E1,1.340656996E0,-1.263232112E0,5.911474228E-1
1.309687584E1,1.221389055E0,-1.321720719E0,4.785988331E-1
1.310602839E1,1.083643079E0,-1.372421026E0,3.836120665E-1
1.311518094E1,9.436063170E-1,-1.384943485E0,2.971771955E-1
1.312433349E1,8.064711094E-1,-1.324011445E0,2.113531530E-1
1.313348605E1,6.690304875E-1,-1.223221660E0,1.565296054E-1
1.314263865E1,5.135698318E-1,-1.098914266E0,9.910997003E-2
1.315179120E1,3.376458287E-1,-9.868237376E-1,4.352286831E-2
1.316094376E1,1.424801201E-1,-8.463288546E-1,-9.315420873E-3
1.317009631E1,-5.894676223E-2,-6.901046634E-1,-6.276455522E-2
1.317924886E1,-2.652604282E-1,-5.526640415E-1,-1.107160673E-1
1.318840146E1,-4.636330605E-1,-4.162923992E-1,-1.409530044E-1
1.319755402E1,-6.390989423E-1,-2.816005945E-1,-1.508792788E-1
1.320670657E1,-8.060129285E-1,-1.608055383E-1,-1.508792788E-1
1.321585912E1,-9.688037634E-1,-1.710372418E-2,-1.655396074E-1
1.322501167E1,-1.090515018E0,1.012479365E-1,-2.128802687E-1
1.323416428E1,-1.072953224E0,1.698155403E-1,-2.489202619E-1
1.324331683E1,-9.388722181E-1,2.683146596E-1,-2.449497581E-1
1.325245662E1,-7.078192830E-1,2.783936262E-1,-2.341072112E-1
1.326162193E1,-4.520269632E-1,6.001574174E-2,-2.296785712E-1
1.327077454E1,-2.615953386E-1,-2.437280566E-1,-1.609582454E-1
1.327991433E1,-5.546492934E-1,2.035648525E-1,-1.591257155E-1
1.328907964E1,-1.130220175E0,8.495358229E-1,-3.804051280E-1
1.329823219E1,-1.446486354E0,9.906415343E-1,-6.887302995E-1
1.330737204E1,-1.703042150E0,2.977880463E-2,-8.325847983E-1
1.331653735E1,-1.799708724E0,-5.176930428E-1,-5.789304972E-1
1.332568990E1,-1.506502032E0,4.297310412E-1,-1.568350345E-1
1.333482969E1,-1.412126184E0,9.998042583E-1,-7.666133344E-2
1.334399500E1,-1.662573576E0,7.653915882E-1,-2.754921019E-1
1.335314756E1,-1.789935231E0,3.199312389E-1,-3.956763148E-1
1.336228740E1,-1.733431816E0,4.840964451E-2,-3.663556576E-1
1.337145271E1,-1.595838428E0,-1.629435122E-1,-3.775036037E-1
1.338060527E1,-1.542389274E0,-4.404208660E-1,-4.886777997E-1
1.338974506E1,-1.592173338E0,-7.036960125E-1,-5.877877474E-1
1.339891037E1,-1.598434567E0,-7.685985565E-1,-5.723638535E-1
1.340806297E1,-1.495354056E0,-6.276455522E-1,-4.448495209E-1
1.341720276E1,-1.384638071E0,-3.914003670E-1,-3.067980409E-1
1.342636808E1,-1.370741248E0,-1.149920002E-1,-2.470877171E-1
1.343552063E1,-1.402199864E0,1.747023165E-1,-2.609844804E-1
1.344466047E1,-1.440225124E0,4.726430774E-1,-3.286358118E-1
1.345382579E1,-1.461604834E0,7.675296068E-1,-4.297310412E-1
1.346297834E1,-1.442210436E0,9.323056340E-1,-5.389199853E-1
1.347213089E1,-1.384332657E0,9.952229261E-1,-6.418477297E-1
1.348128344E1,-1.336686492E0,1.069135427E0,-7.185090780E-1
1.349043599E1,-1.300035715E0,1.128692985E0,-7.524111271E-1
1.349958860E1,-1.273769259E0,1.229330063E0,-7.603521347E-1
1.350874115E1,-1.267660737E0,1.303548098E0,-7.530219555E-1
1.351789370E1,-1.263537526E0,1.385554314E0,-7.377507687E-1
1.352704626E1,-1.265675545E0,1.485122442E0,-7.195780873E-1
1.353619886E1,-1.265828252E0,1.547123432E0,-6.975875497E-1
1.354535141E1,-1.256665468E0,1.551552057E0,-6.749862432E-1
1.355450396E1,-1.224137902E0,1.490772724E0,-6.563553810E-1
1.356365652E1,-1.202300072E0,1.454580069E0,-6.537593007E-1
1.357280907E1,-1.224443316E0,1.445569992E0,-6.494833231E-1
1.358196167E1,-1.277587056E0,1.469545841E0,-6.511631608E-1
1.359111422E1,-1.324622273E0,1.502684236E0,-6.699467301E-1
1.360026678E1,-1.335006714E0,1.506807446E0,-7.004891038E-1
1.360941933E1,-1.369214177E0,1.558882236E0,-7.472189069E-1
1.361857193E1,-1.401436329E0,1.604390383E0,-7.974610925E-1
1.362772448E1,-1.366465330E0,1.566975951E0,-8.309049606E-1
1.363687704E1,-1.298661232E0,1.499477267E0,-8.461761475E-1
1.364602959E1,-1.281099439E0,1.477944970E0,-8.472451568E-1
1.365518219E1,-1.313627005E0,1.529714227E0,-8.432746530E-1
1.366433474E1,-1.361273170E0,1.554300904E0,-8.435800672E-1
1.367348730E1,-1.370130420E0,1.498866439E0,-8.454126120E-1
1.368263985E1,-1.349972486E0,1.449998736E0,-8.513683677E-1
1.369179240E1,-1.321109891E0,1.394106150E0,-8.486195803E-1
1.370094501E1,-1.263690233E0,1.307976723E0,-8.312104344E-1
1.371009756E1,-1.192221165E0,1.229941010E0,-8.110524416E-1
1.371925011E1,-1.137703061E0,1.187334418E0,-7.867712975E-1
1.372840266E1,-1.089598775E0,1.168856263E0,-7.601994276E-1
1.373755527E1,-1.043327093E0,1.172521353E0,-7.507312894E-1
1.374670782E1,-9.802571535E-1,1.219556570E0,-7.679877281E-1
1.375586037E1,-8.826742768E-1,1.280488610E0,-7.924215794E-1
1.376501292E1,-7.551599145E-1,1.297592282E0,-7.915053368E-1
1.377416552E1,-6.502469182E-1,1.198329568E0,-7.736380696E-1
1.378331808E1,-5.688515306E-1,1.051573515E0,-7.600467205E-1
1.379247063E1,-4.737120569E-1,9.414683580E-1,-7.324058414E-1
1.380162318E1,-3.871244490E-1,8.098307252E-1,-6.945333481E-1
1.381077573E1,-3.607053161E-1,6.163448691E-1,-6.911736727E-1
1.381992834E1,-3.895678520E-1,4.770717025E-1,-7.180509567E-1
1.382908089E1,-4.376720488E-1,2.838912606E-1,-7.611156702E-1
1.383823344E1,-4.172086716E-1,-3.970507067E-3,-7.356128097E-1
1.384738599E1,-3.136700690E-1,-3.318427801E-1,-6.229115129E-1
1.385652584E1,-2.541124523E-1,-5.908420086E-1,-5.007420182E-1
1.386569115E1,-2.954973578E-1,-7.426375747E-1,-4.405735731E-1
1.387484370E1,-3.848337829E-1,-8.060129285E-1,-4.607315361E-1
1.388399626E1,-4.532486796E-1,-8.371661901E-1,-5.288410187E-1
1.389314886E1,-4.782933891E-1,-8.446490765E-1,-5.725166202E-1
1.390230141E1,-4.915793240E-1,-8.102889061E-1,-5.816792846E-1
1.391145396E1,-4.955498278E-1,-7.102626562E-1,-5.720584393E-1
1.392060652E1,-4.795151055E-1,-5.751127005E-1,-5.378510356E-1
1.392975912E1,-4.706578255E-1,-4.340069890E-1,-4.920374751E-1
1.393891167E1,-4.494308829E-1,-2.690782249E-1,-4.303418994E-1
1.394806422E1,-3.668137789E-1,-1.004843712E-1,-3.457395434E-1
1.395721678E1,-2.153236568E-1,7.330167107E-3,-2.493783981E-1
1.396635662E1,-3.512371797E-3,-1.313321572E-2,-1.539335102E-1
1.397552193E1,2.658712566E-1,-1.340809762E-1,-6.505523622E-2
1.398467448E1,5.804576278E-1,-2.693836391E-1,3.298575059E-2
1.399382704E1,9.148964882E-1,-3.851391971E-1,1.606528312E-1
1.400297959E1,1.236507535E0,-5.172349215E-1,3.266505599E-1
1.401213219E1,1.505738497E0,-6.487197876E-1,4.923428893E-1
1.402127198E1,1.723047376E0,-6.702521443E-1,6.252021790E-1
1.403043730E1,1.925543308E0,-4.729484916E-1,7.382088900E-1
1.403958985E1,2.108033895E0,-6.658235192E-2,8.803836107E-1
1.404874245E1,2.287164927E0,4.489727318E-1,1.046686769E0
1.405789500E1,2.463394165E0,8.619054556E-1,1.192984700E0
1.406704756E1,2.560366392E0,9.743013978E-1,1.360204101E0
1.407618740E1,2.523562670E0,6.639909744E-1,1.541625738E0
1.408535271E1,2.358328581E0,2.199050039E-2,1.727170587E0
1.409450526E1,2.161941051E0,-6.459710002E-1,1.895306349E0
1.410364506E1,2.054432154E0,-1.150530815E0,2.018392086E0
1.411281037E1,2.052141428E0,-1.478250384E0,2.064358234E0
1.412196292E1,2.108950138E0,-1.689145327E0,2.031983376E0
1.413111552E1,2.165911674E0,-1.818950415E0,1.958528996E0
1.414026808E1,2.237380743E0,-1.905996203E0,1.854684949E0
1.414942063E1,2.350692987E0,-1.921267390E0,1.764432311E0
1.415856047E1,2.485537529E0,-1.880798697E0,1.728850484E0
1.416772579E1,2.613968134E0,-1.846896648E0,1.715717196E0
1.417687834E1,2.675052881E0,-1.815590739E0,1.667765737E0
1.418601818E1,2.632446289E0,-1.850409031E0,1.584537745E0
1.419518349E1,2.490118742E0,-1.959292531E0,1.514595747E0
1.420433605E1,2.274489880E0,-2.022515297E0,1.489856482E0
1.421347584E1,2.076422453E0,-1.926917672E0,1.479319334E0
1.422264115E1,1.943257809E0,-1.637376070E0,1.470767498E0
1.423179376E1,1.869956136E0,-1.225817680E0,1.468171358E0
1.424094631E1,1.845064163E0,-7.812736630E-1,1.466949701E0
1.425009886E1,1.838039398E0,-4.190412164E-1,1.492299795E0
1.425925141E1,1.817270637E0,-9.407047927E-2,1.516428351E0
1.426840402E1,1.778176427E0,1.969982386E-1,1.533684731E0
1.427755657E1,1.761378050E0,3.492519259E-1,1.519329786E0
1.428670912E1,1.753437042E0,3.069507480E-1,1.474738002E0
1.429584891E1,1.715259075E0,1.890572309E-1,1.395175099E0
1.430501428E1,1.668834686E0,6.566607952E-2,1.282626510E0
1.431416683E1,1.630809426E0,-1.047603041E-1,1.158471823E0
1.432330662E1,1.597976446E0,-3.113794029E-1,1.040578246E0
1.433247193E1,1.571862698E0,-5.065450668E-1,9.171871543E-1
1.434162454E1,1.539487839E0,-7.041541934E-1,7.850914598E-1
1.435077709E1,1.485427856E0,-9.265025854E-1,6.633801460E-1
1.435992964E1,1.420067191E0,-1.103037477E0,5.622848868E-1
1.436908219E1,1.352873921E0,-1.194359064E0,4.917320311E-1
1.437823480E1,1.273005724E0,-1.202452779E0,4.337015450E-1
1.438738735E1,1.165343881E0,-1.131899953E0,3.718532622E-1
1.439653990E1,1.036302328E0,-1.003316641E0,3.121429384E-1
1.440569245E1,8.936695457E-1,-8.748859763E-1,2.420482337E-1
1.441484506E1,7.432484031E-1,-7.753179073E-1,1.798945218E-1
1.442399761E1,6.003101468E-1,-6.901046634E-1,1.409530044E-1
1.443315016E1,4.666872919E-1,-6.265766025E-1,1.168245375E-1
1.444230271E1,3.211529553E-1,-5.967977643E-1,9.071081877E-2
1.445145532E1,1.575985998E-1,-5.729747415E-1,6.627693027E-2
1.446060787E1,-1.099525020E-2,-5.274665952E-1,4.611896724E-2
1.446976042E1,-1.866138428E-1,-4.573718905E-1,4.123219103E-2
1.447891297E1,-3.860554695E-1,-3.492519259E-1,4.214845970E-2
1.448806558E1,-5.917583108E-1,-2.194468826E-1,3.023693897E-2
1.449721813E1,-7.771504521E-1,-8.719844371E-2,5.039489828E-3
1.450637068E1,-9.414683580E-1,3.115320951E-2,-2.137965336E-2
1.451552323E1,-1.099830508E0,1.067455560E-1,-5.604523420E-2
1.452467584E1,-1.135717750E0,1.444653720E-1,-8.628217876E-2
1.453382839E1,-1.058903694E0,2.959555089E-1,-5.894676223E-2
1.454296818E1,-9.652913809E-1,4.335488379E-1,-4.550812021E-2
1.455213349E1,-8.835905790E-1,3.061871827E-1,-1.224748790E-1
1.456128610E1,-7.440119386E-1,5.894676223E-2,-2.403683960E-1
1.457042589E1,-5.905365944E-1,4.414898455E-1,-3.237490356E-1
1.457959120E1,-8.125795722E-1,1.308129430E0,-5.042544007E-1
1.458874381E1,-1.182447553E0,1.565754294E0,-7.763868570E-1
1.459788360E1,-1.646080613E0,6.128324866E-1,-9.316948056E-1
1.460704891E1,-2.053973913E0,-2.722851634E-1,-7.153021693E-1
1.461620146E1,-1.805053592E0,5.012001991E-1,-2.750339806E-1
1.462534131E1,-1.523911238E0,1.406170368E0,-1.349972486E-1
1.463450662E1,-1.654174328E0,1.483747959E0,-4.034646153E-1
1.464365917E1,-1.675554037E0,7.620319724E-1,-6.675033569E-1
1.465279896E1,-1.583163381E0,1.928750277E-1,-6.303943992E-1
1.466196433E1,-1.569113851E0,1.015533581E-1,-5.679352283E-1
1.467111688E1,-1.528187156E0,9.590301663E-2,-6.336013079E-1
1.468025667E1,-1.546665311E0,-1.310267299E-1,-7.288935184E-1
1.468942198E1,-1.544832706E0,-4.705050886E-1,-7.646280527E-1
1.469857459E1,-1.517191887E0,-4.906630516E-1,-6.960604787E-1
1.470771438E1,-1.515817523E0,-3.420744538E-1,-5.972558856E-1
1.471687969E1,-1.504974961E0,-1.265980899E-1,-5.410579443E-1
1.472603224E1,-1.491078138E0,1.113269106E-1,-5.375455618E-1
1.473518485E1,-1.473058224E0,3.891097009E-1,-5.686988235E-1
1.474433740E1,-1.491383553E0,6.720846891E-1,-6.227588058E-1
1.475348995E1,-1.495812178E0,8.675557971E-1,-7.006418109E-1
1.476264250E1,-1.465728045E0,9.927794933E-1,-7.785248160E-1
1.477179511E1,-1.423274159E0,1.086086392E0,-8.247964978E-1
1.478094766E1,-1.392579079E0,1.171604991E0,-8.393041492E-1
1.479010021E1,-1.408919215E0,1.286749721E0,-8.345700502E-1
1.479925276E1,-1.435949206E0,1.406017661E0,-8.257128000E-1
1.480840537E1,-1.415791273E0,1.563921690E0,-8.257128000E-1
1.481755792E1,-1.388455868E0,1.688687205E0,-8.432746530E-1
1.482671047E1,-1.393495321E0,1.728239655E0,-8.750386834E-1
1.483586308E1,-1.432284117E0,1.785964727E0,-8.967237473E-1
1.484501563E1,-1.462521076E0,1.869039893E0,-9.006943107E-1
1.485416818E1,-1.463590026E0,1.908744931E0,-9.031376839E-1
1.486332073E1,-1.460841179E0,1.947991967E0,-9.002361298E-1
1.487247334E1,-1.479930162E0,2.013199806E0,-8.867974877E-1
1.488162589E1,-1.504516840E0,1.991514802E0,-8.602256775E-1
1.489077844E1,-1.506502032E0,1.867512822E0,-8.374716043E-1
1.489993099E1,-1.505280375E0,1.732973695E0,-8.551861644E-1
1.490908360E1,-1.487718463E0,1.640735745E0,-8.927532434E-1
1.491823615E1,-1.446639061E0,1.611109614E0,-9.358180165E-1
1.492738870E1,-1.404643297E0,1.620730519E0,-9.556705356E-1
1.493654131E1,-1.392731786E0,1.603932142E0,-9.501729012E-1
1.494569386E1,-1.363716483E0,1.593089700E0,-9.358180165E-1
1.495484641E1,-1.294385314E0,1.609582543E0,-9.158127308E-1
1.496399896E1,-1.201078415E0,1.573695302E0,-8.887827396E-1
1.497315157E1,-1.083032131E0,1.491536260E0,-8.208259940E-1
1.498230412E1,-9.689564705E-1,1.464964390E0,-7.424848676E-1
1.499145667E1,-8.942803741E-1,1.501309872E0,-6.972821355E-1
1.500060922E1,-8.591566682E-1,1.512305140E0,-6.965186000E-1
1.500976183E1,-8.211314082E-1,1.477334142E0,-7.249229550E-1
1.501891438E1,-7.760814428E-1,1.408002973E0,-7.562289238E-1
1.502806693E1,-7.591304183E-1,1.333174109E0,-7.886037827E-1
1.503721954E1,-7.502731681E-1,1.308892965E0,-8.202151656E-1
1.504637209E1,-6.774296165E-1,1.304158926E0,-8.159392476E-1
1.505552464E1,-5.683933496E-1,1.215433359E0,-7.656970620E-1
1.506467719E1,-5.082249045E-1,1.072342396E0,-7.113316059E-1
1.507382980E1,-4.905103445E-1,9.422318935E-1,-6.873558760E-1
1.508298235E1,-4.553866386E-1,8.747332692E-1,-6.888830066E-1
1.509213490E1,-3.784198761E-1,8.049439788E-1,-6.780404449E-1
1.510128750E1,-2.764083743E-1,6.010736823E-1,-6.306998134E-1
1.511044006E1,-2.031067163E-1,2.971771955E-1,-5.535803437E-1
1.511959261E1,-2.052446753E-1,7.391251624E-2,-4.672981501E-1
1.512874516E1,-2.464768738E-1,-2.168507688E-2,-4.181249440E-1
1.513789777E1,-2.892361879E-1,4.734066315E-3,-4.214846194E-1
1.514705032E1,-3.266505599E-1,6.474980712E-2,-4.419479966E-1
1.515620287E1,-3.477247953E-1,8.887827396E-2,-4.640912116E-1
1.516535547E1,-3.283303976E-1,7.437065244E-2,-4.865398407E-1
1.517450803E1,-2.742704153E-1,2.672456764E-2,-4.940227270E-1
1.518366058E1,-2.076880634E-1,-1.230857223E-1,-4.905103445E-1
1.519281313E1,-1.649287641E-1,-3.701734245E-1,-4.734066129E-1
1.520196573E1,-1.783674061E-1,-5.906893015E-1,-4.660764635E-1
1.521111829E1,-2.035648525E-1,-7.353073955E-1,-4.588989913E-1
1.522027084E1,-2.055501044E-1,-8.098307252E-1,-4.318690002E-1
1.522942339E1,-1.876828223E-1,-8.301414251E-1,-3.866663277E-1
1.523857599E1,-1.605001241E-1,-7.973083854E-1,-3.333698809E-1
1.524772855E1,-1.229330078E-1,-7.470661998E-1,-2.768665254E-1
1.525686839E1,-7.467607409E-2,-6.563553810E-1,-2.185306102E-1
1.526603370E1,-5.497625098E-3,-4.993676245E-1,-1.455343664E-1
1.527518626E1,9.407047927E-2,-2.910687327E-1,-6.688777357E-2
1.528433881E1,2.272351831E-1,-1.085781008E-1,1.084253844E-2
1.529349141E1,4.100312293E-1,-7.406523079E-2,1.038440317E-1
1.530264396E1,6.568135023E-1,-2.119639963E-1,2.124221325E-1
1.531179652E1,9.400939345E-1,-4.532486796E-1,3.245126009E-1
1.532094912E1,1.215586066E0,-7.151494026E-1,4.433223903E-1
1.533010167E1,1.457176089E0,-8.991671801E-1,5.654918551E-1
1.533924146E1,1.652036428E0,-9.707890153E-1,6.762079000E-1
1.534840678E1,1.781841397E0,-8.973346353E-1,7.637118101E-1
1.535755938E1,1.855143070E0,-6.636855602E-1,8.582404256E-1
1.536669917E1,1.913173556E0,-3.081724346E-1,9.652913809E-1
1.537586448E1,1.981283069E0,1.725643501E-2,1.090667725E0
1.538501709E1,2.030456305E0,2.359397560E-1,1.250862479E0
1.539415688E1,2.004495382E0,2.857238054E-1,1.479013920E0
1.540332219E1,1.885685444E0,1.447708011E-1,1.725032687E0
1.541247474E1,1.669750929E0,-1.875301152E-1,1.896986127E0
1.542161459E1,1.456717968E0,-7.533273697E-1,1.993652701E0
1.543077990E1,1.388913989E0,-1.487718463E0,2.062678576E0
1.543993245E1,1.552773714E0,-2.104521513E0,2.081462145E0
1.544907230E1,1.900498509E0,-2.428423166E0,2.016406775E0
1.545823761E1,2.237838984E0,-2.528296709E0,1.898513317E0
1.546739016E1,2.463699818E0,-2.578538895E0,1.771304369E0
1.547653000E1,2.591977596E0,-2.611219406E0,1.683647752E0
1.548569532E1,2.672456741E0,-2.628628492E0,1.636001706E0
1.549484787E1,2.727738380E0,-2.586632729E0,1.584537745E0
1.550398766E1,2.724531412E0,-2.474694967E0,1.531852245E0
1.551315303E1,2.630308390E0,-2.314194918E0,1.484664321E0
1.552230558E1,2.477443695E0,-2.171714783E0,1.467713237E0
1.553144537E1,2.311904192E0,-2.006175041E0,1.476112366E0
1.554061068E1,2.142699480E0,-1.696628213E0,1.488787532E0
1.554976329E1,2.004189968E0,-1.285986185E0,1.475196123E0
1.555890308E1,1.900193095E0,-8.733588457E-1,1.457634330E0
1.556806839E1,1.824906230E0,-5.155550838E-1,1.453969240E0
1.557722099E1,1.767639279E0,-1.944021434E-1,1.471531034E0
1.558637355E1,1.714037418E0,1.250709742E-1,1.522842169E0
1.559552610E1,1.674179673E0,3.542914093E-1,1.593242407E0
1.560467865E1,1.642415524E0,4.489727318E-1,1.633252859E0
1.561381849E1,1.605001211E0,4.224008918E-1,1.626228094E0
1.562298381E1,1.569877505E0,3.142809272E-1,1.567434072E0
1.563213636E1,1.544374585E0,1.191152185E-1,1.441141367E0
1.564127620E1,1.516733766E0,-1.678302884E-1,1.264606595E0
1.565044152E1,1.488940239E0,-4.880669713E-1,1.077229142E0
1.565959407E1,1.463895440E0,-7.844805717E-1,9.342908859E-1
1.566873391E1,1.439461589E0,-1.020114899E0,7.797465324E-1
1.567789922E1,1.412126184E0,-1.207645059E0,6.245913506E-1
1.568705178E1,1.365396380E0,-1.372573733E0,5.126535892E-1
1.569620433E1,1.289193153E0,-1.509098172E0,4.358395338E-1
1.570535693E1,1.202452779E0,-1.550024867E0,3.625378609E-1
1.571450948E1,1.109145880E0,-1.482984424E0,2.684673667E-1
1.572364928E1,1.003774762E0,-1.378071427E0,1.809635013E-1
1.573281464E1,8.704573512E-1,-1.262163162E0,1.181989461E-1
1.574196719E1,7.105680704E-1,-1.140299082E0,7.238540053E-2
1.575111974E1,5.370874405E-1,-1.016602516E0,3.695625812E-2
1.576027235E1,3.640649617E-1,-8.843541145E-1,4.428642802E-3
1.576942490E1,1.927223057E-1,-7.330167294E-1,-3.710897267E-2
1.577857745E1,1.496575773E-2,-5.405998230E-1,-6.902574003E-2
1.578773000E1,-1.791309565E-1,-3.246653080E-1,-9.315420687E-2
1.579688261E1,-3.941491842E-1,-1.298050433E-1,-1.119377613E-1
1.580603516E1,-6.154286265E-1,2.046338283E-2,-1.197260618E-1
1.581518771E1,-8.134958148E-1,1.302631795E-1,-1.487413049E-1
1.582434032E1,-9.816315174E-1,1.944021434E-1,-1.817270666E-1
1.583349287E1,-1.147476554E0,2.023431510E-1,-2.072299272E-1
1.584264542E1,-1.284611821E0,1.785201132E-1,-2.496838123E-1
1.585179802E1,-1.391357303E0,1.559187621E-1,-3.090887070E-1
1.586093782E1,-1.439461589E0,1.517955512E-1,-4.120164812E-1
1.587010313E1,-1.324011445E0,2.962609231E-1,-5.010474920E-1
1.587925568E1,-9.232956171E-1,6.421532035E-1,-4.960079789E-1
1.588839553E1,-5.421269536E-1,1.157708287E0,-4.338542521E-1
1.589756084E1,-5.467082858E-1,8.848122358E-1,-4.080459774E-1
1.590671339E1,-1.013395548E0,7.968502641E-1,-5.028799772E-1
1.591585323E1,-1.660588264E0,1.009883285E0,-7.866185308E-1
1.592501855E1,-1.964942932E0,-2.573194206E-1,-9.674293399E-1
1.593417110E1,-1.739693046E0,-7.452336699E-2,-6.838434935E-1
1.594332370E1,-1.462521076E0,1.049282908E0,-3.400892019E-1
1.595247626E1,-1.532157660E0,1.266591787E0,-3.817795515E-1
1.596162881E1,-1.745954156E0,7.279772162E-1,-5.795413256E-1
1.597076865E1,-1.820630312E0,4.031591862E-2,-5.648810267E-1
1.597993396E1,-1.841399074E0,-4.564556181E-1,-4.529432356E-1
1.598908652E1,-1.840482831E0,-6.777350307E-1,-4.868452549E-1
1.599822636E1,-1.787797213E0,-7.962393761E-1,-6.152759194E-1
1.600739167E1,-1.690214396E0,-1.132052660E0,-6.839962006E-1
1.601654422E1,-1.548497796E0,-1.299730301E0,-6.137487888E-1
1.602568402E1,-1.458245158E0,-1.179851532E0,-5.008947253E-1
1.603484938E1,-1.434574842E0,-9.576557875E-1,-4.428642690E-1
1.604400193E1,-1.453663707E0,-6.035171151E-1,-4.653128982E-1
1.605314172E1,-1.529408813E0,-7.727217674E-2,-5.438067913E-1
1.606230704E1,-1.574764252E0,4.385883212E-1,-6.531484127E-1
1.607145964E1,-1.580261827E0,8.805363178E-1,-7.310314775E-1
1.608061219E1,-1.574916959E0,1.202452779E0,-7.606575489E-1
1.608976474E1,-1.562547326E0,1.409071922E0,-7.692093849E-1
1.609891735E1,-1.536128163E0,1.550635815E0,-7.606575489E-1
1.610805714E1,-1.526812673E0,1.674332380E0,-7.423321605E-1
1.611722245E1,-1.532768488E0,1.790087938E0,-7.369872332E-1
1.612637506E1,-1.523453116E0,1.846133113E0,-7.319477201E-1
1.613552761E1,-1.493216157E0,1.840177417E0,-7.177455425E-1
1.614468016E1,-1.461146593E0,1.819866657E0,-6.826218367E-1
1.615383276E1,-1.411668062E0,1.773136854E0,-6.340594292E-1
1.616298532E1,-1.375933409E0,1.761378050E0,-5.952706337E-1
1.617213787E1,-1.367076159E0,1.741525531E0,-5.940489769E-1
1.618129047E1,-1.362800241E0,1.608819008E0,-6.238277555E-1
1.619044302E1,-1.369366884E0,1.479624748E0,-6.684195995E-1
1.619959558E1,-1.378987670E0,1.381278396E0,-7.091936469E-1
1.620874813E1,-1.346460104E0,1.285986185E0,-7.321004272E-1
1.621790073E1,-1.332105160E0,1.197413325E0,-7.557707429E-1
1.622705329E1,-1.360814929E0,1.106702566E0,-7.901309133E-1
1.623620584E1,-1.393342614E0,1.045159698E0,-8.134958148E-1
1.624535844E1,-1.395175099E0,1.048213840E0,-8.177717924E-1
1.625451099E1,-1.349667072E0,1.121210098E0,-7.980719209E-1
1.626366355E1,-1.271020412E0,1.192526579E0,-7.730271816E-1
1.627281615E1,-1.212226391E0,1.239714503E0,-7.598940134E-1
1.628196870E1,-1.181378603E0,1.236202121E0,-7.589777112E-1
1.629112126E1,-1.168092728E0,1.189777732E0,-7.510367036E-1
1.630027386E1,-1.159540772E0,1.112200141E0,-7.185090780E-1
1.630942641E1,-1.124569774E0,1.047297597E0,-6.870504618E-1
1.631857896E1,-1.071426034E0,1.025154471E0,-6.713211536E-1
1.632773157E1,-1.018129706E0,1.068066478E0,-6.746807694E-1
1.633688412E1,-9.956810474E-1,1.111436605E0,-6.905628443E-1
1.634603667E1,-9.895725846E-1,1.060736299E0,-7.148439884E-1
1.635518928E1,-9.567395449E-1,9.756757617E-1,-7.365291119E-1
1.636434183E1,-8.886300325E-1,8.854231238E-1,-7.287407517E-1
1.637349438E1,-8.196043372E-1,8.018897176E-1,-7.030851841E-1
1.638264698E1,-8.021951914E-1,7.078192830E-1,-6.986565590E-1
1.639179954E1,-8.148702383E-1,6.100836992E-1,-7.163711190E-1
1.640095209E1,-7.971556783E-1,5.041016936E-1,-7.337802649E-1
1.641010464E1,-7.319477201E-1,3.866663277E-1,-7.498149872E-1
1.641925724E1,-6.552863717E-1,2.866400778E-1,-7.577560544E-1
1.642840980E1,-5.596888065E-1,2.121167034E-1,-7.514948249E-1
1.643756240E1,-4.265241027E-1,1.185043678E-1,-7.113316059E-1
1.644671495E1,-2.919849753E-1,-6.841489673E-2,-6.326850653E-1
1.645586750E1,-2.040229887E-1,-3.800997138E-1,-5.341859460E-1
1.646502006E1,-1.710372269E-1,-6.694886088E-1,-4.408790171E-1
1.647417266E1,-1.701209545E-1,-8.626690507E-1,-3.700207174E-1
1.648332521E1,-1.792836636E-1,-9.643751383E-1,-3.284831047E-1
1.649247776E1,-2.012741715E-1,-9.903361201E-1,-3.292466700E-1
1.650163037E1,-2.197522968E-1,-9.772028923E-1,-3.555130959E-1
1.651078292E1,-2.209739983E-1,-9.634588361E-1,-3.874298632E-1
1.651992276E1,-2.127275616E-1,-9.229902029E-1,-3.903313875E-1
1.652908808E1,-2.119639963E-1,-8.162446618E-1,-3.672719002E-1
1.653824063E1,-2.050919682E-1,-6.197045445E-1,-3.387148082E-1
1.654738047E1,-1.644706279E-1,-3.712424338E-1,-2.933593988E-1
1.655654579E1,-9.972081333E-2,-1.238492802E-1,-2.246390730E-1
1.656569834E1,-1.374406274E-3,2.305948362E-2,-1.551551968E-1
1.657485089E1,1.485885978E-1,3.985778242E-2,-7.528692484E-2
1.658400349E1,3.660502136E-1,-6.368082762E-2,2.519745007E-2
1.659315605E1,6.253548861E-1,-2.454078794E-1,1.310267299E-1
1.660230860E1,8.875610828E-1,-4.549284875E-1,2.307475507E-1
1.661146120E1,1.125638843E0,-6.552863717E-1,3.382566571E-1
1.662061376E1,1.339588046E0,-7.925743461E-1,4.479037523E-1
1.662975360E1,1.555217147E0,-7.635591030E-1,5.489989519E-1
1.663891891E1,1.785201073E0,-5.361711979E-1,6.646018028E-1
1.664807146E1,2.052752256E0,-2.006633282E-1,8.226585388E-1
1.665721131E1,2.366116762E0,1.525591016E-1,1.051115394E0
1.666637662E1,2.642219782E0,4.613423944E-1,1.287360549E0
1.667552917E1,2.832956791E0,7.200362086E-1,1.422815919E0
1.668466896E1,2.839981556E0,8.794673681E-1,1.486191392E0
1.669383433E1,2.662988663E0,9.193251133E-1,1.577818513E0
1.670298688E1,2.432088375E0,6.850652099E-1,1.727781415E0
1.671212672E1,2.257844210E0,1.701209545E-1,1.874690294E0
1.672129198E1,2.156596184E0,-4.446968138E-1,2.020988226E0
1.673044459E1,2.106964827E0,-1.009119630E0,2.101619959E0
1.673959714E1,2.073979139E0,-1.431825995E0,2.054737568E0
1.674874974E1,2.081003904E0,-1.690061688E0,1.942036152E0
1.675790230E1,2.179197550E0,-1.872399569E0,1.819561243E0
1.676704209E1,2.364131689E0,-2.039924383E0,1.751299143E0
1.677620745E1,2.552425385E0,-2.269450188E0,1.711899400E0
1.678536000E1,2.674289227E0,-2.501419544E0,1.668987393E0
1.679449980E1,2.713078022E0,-2.684062958E0,1.622257590E0
1.680366516E1,2.651382446E0,-2.719339371E0,1.566365123E0
1.681281771E1,2.483094215E0,-2.480650663E0,1.501462579E0
1.682195750E1,2.268992186E0,-1.956849217E0,1.463590026E0
1.683112287E1,2.064205647E0,-1.379293084E0,1.465880752E0
1.684027542E1,1.907217860E0,-9.208522439E-1,1.482831717E0
1.684942797E1,1.816659689E0,-5.931326747E-1,1.499019146E0
1.685858058E1,1.776801944E0,-3.304683566E-1,1.501615286E0
1.686773313E1,1.757865667E0,-1.514901221E-1,1.511694312E0
1.687688568E1,1.740914702E0,-4.489727318E-2,1.518260837E0
1.688603829E1,1.701362371E0,3.878879920E-2,1.514290333E0
1.689519084E1,1.662726283E0,1.049130186E-1,1.475501537E0
1.690433063E1,1.646386027E0,1.082726792E-1,1.396549582E0
1.691349599E1,1.642568231E0,1.740914769E-2,1.289803982E0
1.692264855E1,1.637528777E0,-1.192679256E-1,1.174353838E0
1.693178834E1,1.633252859E0,-2.696890533E-1,1.048672080E0
1.694095370E1,1.610498786E0,-4.162923992E-1,9.026795626E-1
1.695010626E1,1.552621007E0,-5.686988235E-1,7.631009221E-1
1.695925881E1,1.477028728E0,-7.458444834E-1,6.455128193E-1
1.696841141E1,1.391968250E0,-9.060391784E-1,5.399889946E-1
1.697756396E1,1.292858243E0,-1.018587828E0,4.569137394E-1
1.698671652E1,1.191763043E0,-1.059972763E0,3.926220834E-1
1.699586912E1,1.093721986E0,-1.033859015E0,3.394783735E-1
1.700502167E1,9.802571535E-1,-9.329164624E-1,2.935121059E-1
1.701417422E1,8.419002295E-1,-8.020424247E-1,2.458660156E-1
1.702332683E1,6.771242023E-1,-6.975875497E-1,1.976090819E-1
1.703247938E1,5.012001991E-1,-6.522321701E-1,1.676775664E-1
1.704163193E1,3.217637837E-1,-6.255075932E-1,1.310267299E-1
1.705078454E1,1.404948682E-1,-5.963396430E-1,9.300149232E-2
1.705993709E1,-5.222744122E-2,-5.370874405E-1,7.024743408E-2
1.706908964E1,-2.620534599E-1,-4.315635860E-1,4.734066129E-2
1.707824224E1,-4.752391577E-1,-2.788517773E-1,1.466033421E-2
1.708739480E1,-6.743753552E-1,-1.215586066E-1,-1.252236869E-2
1.709654735E1,-8.382351398E-1,1.801999472E-2,-3.161134571E-2
1.710569995E1,-9.799517393E-1,1.466033459E-1,-4.123219103E-2
1.711485250E1,-1.127624035E0,2.638860047E-1,-5.696150661E-2
1.712400506E1,-1.280946732E0,3.364241421E-1,-9.162709117E-2
1.713315766E1,-1.402505279E0,3.678827584E-1,-1.475196183E-1
1.714231021E1,-1.420525312E0,3.518480062E-1,-2.331909388E-1
1.715145006E1,-1.207797766E0,4.508052766E-1,-2.915268540E-1
1.716061537E1,-6.355865598E-1,7.036960125E-1,-2.938175201E-1
1.716976792E1,-1.107160673E-1,1.135565042E0,-2.597627938E-1
1.717890776E1,-1.718007922E-1,8.672503829E-1,-2.612899244E-1
1.718807308E1,-7.504258752E-1,9.846857786E-1,-5.115845799E-1
1.719722563E1,-1.177408099E0,7.889092565E-1,-9.419264793E-1
1.720636547E1,-1.448471546E0,-1.042716265E0,-1.071273327E0
1.721553079E1,-1.575222373E0,-1.555675268E0,-7.603521347E-1
1.722468334E1,-1.323706031E0,-2.718270384E-2,-3.029802442E-1
1.723382318E1,-1.495506763E0,1.643331885E0,-2.076880634E-1
1.724298849E1,-1.977312565E0,1.463131905E0,-4.625640810E-1
1.725214105E1,-2.019461155E0,5.618267655E-1,-5.732801557E-1
1.726128089E1,-1.706401825E0,3.640649617E-1,-4.140017331E-1
1.727044620E1,-1.527423620E0,1.733279079E-1,-3.820849657E-1
1.727959876E1,-1.516733766E0,-1.194206402E-1,-5.216635466E-1
1.728873860E1,-1.627449751E0,-4.436278343E-1,-6.357392669E-1
1.729790391E1,-1.523147583E0,-6.151232123E-1,-6.349757314E-1
1.730705646E1,-1.304158926E0,-5.893148780E-1,-5.754181147E-1
1.731619631E1,-1.222610831E0,-4.799732268E-1,-5.444176197E-1
1.732536162E1,-1.260941505E0,-2.631224692E-1,-5.387672782E-1
1.733451417E1,-1.337755442E0,7.055285573E-2,-5.706840754E-1
1.734365402E1,-1.391968250E0,3.739912212E-1,-6.206207871E-1
1.735281933E1,-1.416554809E0,6.032116413E-1,-6.734591126E-1
1.736197188E1,-1.412737012E0,7.591304183E-1,-7.401941419E-1
1.737112448E1,-1.383416295E0,8.964183331E-1,-7.980719209E-1
1.738027704E1,-1.364785433E0,1.027597785E0,-8.414421082E-1
1.738942964E1,-1.337450027E0,1.165496588E0,-8.699992299E-1
1.739858219E1,-1.313474298E0,1.308282137E0,-8.840487003E-1
1.740773474E1,-1.308587551E0,1.384943485E0,-8.736643195E-1
1.741688735E1,-1.321568012E0,1.438698053E0,-8.438854814E-1
1.742603990E1,-1.326760292E0,1.450914979E0,-8.035695553E-1
1.743519245E1,-1.330272675E0,1.404032469E0,-7.663078904E-1
1.744434506E1,-1.311030984E0,1.320346355E0,-7.459971905E-1
1.745349761E1,-1.281404853E0,1.241547108E0,-7.285880446E-1
1.746265016E1,-1.262163162E0,1.153737783E0,-7.076665759E-1
1.747180276E1,-1.280488610E0,1.033248186E0,-6.838434935E-1
1.748095532E1,-1.330272675E0,9.549070001E-1,-6.688777208E-1
1.749010792E1,-1.367381573E0,9.608627558E-1,-6.716265678E-1
1.749926047E1,-1.378376842E0,1.031262875E0,-6.943806410E-1
1.750841302E1,-1.367839694E0,1.117850542E0,-7.359182239E-1
1.751756563E1,-1.351194143E0,1.199093223E0,-7.705838084E-1
1.752671818E1,-1.331036210E0,1.244143128E0,-8.040276766E-1
1.753587073E1,-1.322789788E0,1.282015681E0,-8.211314082E-1
1.754502334E1,-1.347529054E0,1.385707021E0,-8.324320912E-1
1.755417589E1,-1.386317849E0,1.497797489E0,-8.235748410E-1
1.756332844E1,-1.389677525E0,1.526812673E0,-7.991409302E-1
1.757248105E1,-1.358829737E0,1.520856977E0,-7.721109390E-1
1.758163360E1,-1.344169378E0,1.508334637E0,-7.499676943E-1
1.759078620E1,-1.349056125E0,1.426328301E0,-7.359182239E-1
1.759993876E1,-1.363869190E0,1.357760787E0,-7.165238261E-1
1.760909131E1,-1.353484869E0,1.286138892E0,-6.962131858E-1
1.761824391E1,-1.325538516E0,1.266897202E0,-6.959077120E-1
1.762739646E1,-1.283695459E0,1.282626510E0,-7.194253802E-1
1.763654907E1,-1.221236348E0,1.286138892E0,-7.576032877E-1
1.764570162E1,-1.097234368E0,1.200009465E0,-7.847860456E-1
1.765485417E1,-9.205468297E-1,1.091889501E0,-7.882983685E-1
1.766400678E1,-7.828007340E-1,1.008356094E0,-7.884510756E-1
1.767315933E1,-7.252284288E-1,1.046839476E0,-8.197570443E-1
1.768231193E1,-6.577298045E-1,1.108229637E0,-8.469397426E-1
1.769146448E1,-5.477772951E-1,1.000109673E0,-8.405258060E-1
1.770061704E1,-4.636330605E-1,7.327113152E-1,-8.012788892E-1
1.770976964E1,-4.407263100E-1,3.654393852E-1,-7.501204610E-1
1.771892219E1,-4.967715442E-1,1.333174109E-1,-7.229377031E-1
1.772807480E1,-5.775560737E-1,-1.252236869E-2,-7.020162344E-1
1.773722735E1,-6.268820167E-1,-1.004843712E-1,-6.784985662E-1
1.774637990E1,-6.525375843E-1,-2.005106062E-1,-6.615476012E-1
1.775553250E1,-6.632274389E-1,-3.901786804E-1,-6.387935281E-1
1.776468506E1,-6.594096422E-1,-5.575508475E-1,-6.080984473E-1
1.777383761E1,-6.339067221E-1,-6.653653979E-1,-5.827482939E-1
1.778299021E1,-5.987830162E-1,-7.484406233E-1,-5.775560737E-1
1.779214276E1,-5.674771070E-1,-8.073873520E-1,-5.774033666E-1
1.780129537E1,-5.635066032E-1,-7.693621516E-1,-5.706840754E-1
1.781044792E1,-5.661026835E-1,-6.163448691E-1,-5.659499764E-1
1.781960053E1,-5.543438792E-1,-4.036173224E-1,-5.519005060E-1
1.782875308E1,-5.282301903E-1,-1.936385781E-1,-4.969242513E-1
1.783789287E1,-4.608842432E-1,-1.050657257E-1,-3.970507085E-1
1.784705823E1,-3.096995652E-1,-1.181989461E-1,-2.591519356E-1
1.785621079E1,-5.803048983E-2,-1.514901221E-1,-9.177979827E-2
1.786535063E1,2.786990702E-1,-3.316900730E-1,8.292251825E-2
1.787451594E1,6.474980712E-1,-6.311579347E-1,2.475458533E-1
1.788366849E1,9.920159578E-1,-9.078717232E-1,4.008685052E-1
1.789280834E1,1.283084631E0,-1.075549364E0,5.489989519E-1
1.790197365E1,1.511694312E0,-1.058292866E0,6.885775924E-1
1.791112620E1,1.684105873E0,-7.646280527E-1,8.423583508E-1
1.792026605E1,1.835901380E0,-3.523061574E-1,9.732323885E-1
1.792943136E1,1.967386365E0,-4.581354558E-3,1.070509791E0
1.793858396E1,2.059929609E0,1.533226669E-1,1.184585571E0
1.794772376E1,2.131704330E0,1.960819662E-1,1.325385809E0
1.795688912E1,2.195384979E0,1.643179059E-1,1.481610060E0
1.796604167E1,2.219666243E0,-2.748812549E-3,1.613858461E0
1.797518152E1,2.191261768E0,-4.645493329E-1,1.716022611E0
1.798434683E1,2.163468361E0,-1.124722481E0,1.796807170E0
1.799349938E1,2.234021187E0,-1.649440289E0,1.823379040E0
1.800263922E1,2.364284277E0,-1.928902984E0,1.779856205E0
1.801180454E1,2.470877171E0,-2.026791096E0,1.702584028E0
1.802095709E1,2.532725334E0,-2.014879704E0,1.618134379E0
1.803009693E1,2.576400995E0,-1.901262045E0,1.533379316E0
1.803926224E1,2.641303539E0,-1.742289066E0,1.462368369E0
1.804841485E1,2.713688850E0,-1.614011168E0,1.417012930E0
1.805755464E1,2.752477646E0,-1.532615781E0,1.393342614E0
1.806672000E1,2.744994879E0,-1.496728539E0,1.365090966E0
1.807587256E1,2.658560038E0,-1.478097677E0,1.345696568E0
1.808502516E1,2.482177734E0,-1.465117097E0,1.348598003E0
1.809417771E1,2.280750990E0,-1.346154690E0,1.351957679E0
1.810333026E1,2.115822077E0,-1.114338160E0,1.379445791E0
1.811248287E1,2.017933846E0,-8.612946272E-1,1.423121452E0
1.812163542E1,1.985864401E0,-6.009209752E-1,1.455649018E0
1.813078802E1,1.985253572E0,-4.017847776E-1,1.504974961E0
1.813994058E1,1.990598559E0,-2.547233105E-1,1.528797984E0
1.814909313E1,1.977923393E0,-1.504211426E-1,1.524216652E0
1.815824573E1,1.936996698E0,-1.215586066E-1,1.518413544E0
1.816738558E1,1.881562233E0,-1.898207814E-1,1.515053868E0
1.817655089E1,1.846743941E0,-2.786990702E-1,1.472752690E0
1.818570344E1,1.820783019E0,-3.103103936E-1,1.398687482E0
1.819484329E1,1.801388621E0,-3.703261614E-1,1.302784443E0
1.820400860E1,1.780619740E0,-4.714213610E-1,1.192831993E0
1.821316120E1,1.753742456E0,-5.858024955E-1,1.070509791E0
1.822230099E1,1.711288571E0,-6.751389503E-1,9.170344472E-1
1.823146631E1,1.637376070E0,-7.403468490E-1,7.559235096E-1
1.824061891E1,1.529714227E0,-8.331956863E-1,6.256603003E-1
1.824977146E1,1.415943980E0,-9.604045749E-1,5.157077909E-1
1.825892407E1,1.306602240E0,-1.083337665E0,4.063661397E-1
1.826807662E1,1.191763043E0,-1.153126955E0,2.974826097E-1
1.827722922E1,1.066997409E0,-1.148392797E0,1.940967143E-1
1.828638178E1,9.281824231E-1,-1.077839971E0,9.834641218E-2
1.829553433E1,7.643226385E-1,-9.808679819E-1,2.443389036E-3
1.830468693E1,5.818319917E-1,-8.616000414E-1,-8.735115826E-2
1.831383948E1,3.744493723E-1,-7.278245091E-1,-1.556133330E-1
1.832299209E1,1.336228400E-1,-5.897729993E-1,-2.092151791E-1
1.833214464E1,-1.374406368E-1,-4.498890042E-1,-2.423536479E-1
1.834129724E1,-4.359922409E-1,-2.799207568E-1,-2.391466945E-1
1.835044980E1,-7.372926474E-1,-8.383878320E-2,-2.157817930E-1
1.835960240E1,-9.936957955E-1,1.062874198E-1,-2.031067163E-1
1.836875495E1,-1.197413325E0,2.884726226E-1,-2.247917950E-1
1.837790750E1,-1.359135151E0,4.023956358E-1,-2.754921019E-1
1.838704735E1,-1.507570982E0,3.729222417E-1,-3.851391971E-1
1.839621266E1,-1.520704269E0,2.686200738E-1,-5.500679612E-1
1.840536526E1,-1.157708287E0,6.003101468E-1,-6.363501549E-1
1.841450506E1,-2.725905776E-1,1.400978208E0,-5.824428797E-1
1.842367042E1,2.162399292E-1,1.339129925E0,-4.378247857E-1
1.843282297E1,-4.231644273E-1,1.089751482E0,-4.304946065E-1
1.844196282E1,-1.600878000E0,1.428160906E0,-7.890619636E-1
1.845112813E1,-2.030303478E0,-9.498675168E-2,-1.174964666E0
1.846028073E1,-1.706096411E0,-1.355622768E0,-1.017976999E0
1.846942052E1,-1.239409089E0,-2.275406010E-2,-4.422534108E-1
1.847858584E1,-1.261246920E0,1.474738002E0,-2.890834510E-1
1.848773844E1,-1.631878495E0,1.378071427E0,-4.937172830E-1
1.849687823E1,-1.880035162E0,9.521581531E-1,-5.183038712E-1
1.850604360E1,-1.785048366E0,7.327113152E-1,-3.959817290E-1
1.851519615E1,-1.590340853E0,2.803788781E-1,-4.375193417E-1
1.852433599E1,-1.567434072E0,-2.084516287E-1,-6.245913506E-1
1.853350131E1,-1.644706249E0,-6.569662094E-1,-8.037222624E-1
1.854265391E1,-1.552773714E0,-8.594620824E-1,-8.451071978E-1
1.855179370E1,-1.400520086E0,-7.475243211E-1,-7.768449783E-1
1.856095902E1,-1.348903418E0,-4.854708612E-1,-6.954495907E-1
1.857011162E1,-1.393495321E0,-1.908897758E-1,-6.642963886E-1
1.857925141E1,-1.467255116E0,2.024958730E-1,-6.956022978E-1
1.858841678E1,-1.543000221E0,6.461237073E-1,-7.537854910E-1
1.859756933E1,-1.603474021E0,9.689564705E-1,-8.058602214E-1
1.860670917E1,-1.620730519E0,1.108535051E0,-8.347227573E-1
1.861587448E1,-1.589730024E0,1.160457134E0,-8.394568563E-1
1.862502709E1,-1.544985414E0,1.188250661E0,-8.214368224E-1
1.863417964E1,-1.502378821E0,1.248724461E0,-8.034168482E-1
1.864333224E1,-1.472141862E0,1.312099934E0,-7.941014171E-1
1.865248480E1,-1.448013425E0,1.359745979E0,-7.890619636E-1
1.866163735E1,-1.441294074E0,1.368755937E0,-7.798992395E-1
1.867078995E1,-1.456412554E0,1.394106150E0,-7.715001106E-1
1.867994250E1,-1.485122442E0,1.426633716E0,-7.576032877E-1
1.868909511E1,-1.508181930E0,1.455649018E0,-7.493568659E-1
1.869824766E1,-1.490925431E0,1.447249889E0,-7.333221436E-1
1.870740026E1,-1.442973971E0,1.382347345E0,-7.200362086E-1
1.871655282E1,-1.388455868E0,1.288429618E0,-7.244648337E-1
1.872570542E1,-1.343100429E0,1.270256877E0,-7.565343380E-1
1.873485797E1,-1.356691718E0,1.278503299E0,-7.980719209E-1
1.874401058E1,-1.391051888E0,1.271173120E0,-8.252546191E-1
1.875316313E1,-1.394106150E0,1.280030489E0,-8.405258060E-1
1.876231573E1,-1.379598498E0,1.307213187E0,-8.429692388E-1
1.877146829E1,-1.365854502E0,1.292858243E0,-8.342646360E-1
1.878062089E1,-1.357913494E0,1.278503299E0,-8.128849864E-1
1.878977344E1,-1.339435339E0,1.284611821E0,-7.852441669E-1
1.879892605E1,-1.298966646E0,1.225054145E0,-7.598940134E-1
1.880807860E1,-1.206270576E0,1.103037477E0,-7.163711190E-1
1.881723120E1,-1.075702071E0,1.020420313E0,-6.580352187E-1
1.882638376E1,-9.597937465E-1,9.929322004E-1,-6.139014959E-1
1.883553636E1,-8.857285380E-1,9.865183234E-1,-5.906893015E-1
1.884468891E1,-8.383878469E-1,9.825478196E-1,-5.891621709E-1
1.885384152E1,-8.023478985E-1,9.674293399E-1,-6.047387719E-1
1.886299407E1,-7.970029712E-1,9.155073166E-1,-6.065713167E-1
1.887214667E1,-8.141067028E-1,8.287670016E-1,-5.955760479E-1
1.888129922E1,-8.147175312E-1,7.479824424E-1,-5.741963983E-1
1.889045183E1,-8.061656952E-1,6.716265678E-1,-5.514423847E-1
1.889960438E1,-8.078454733E-1,5.969504714E-1,-5.654918551E-1
1.890875698E1,-8.083036542E-1,5.338805318E-1,-6.264238358E-1
1.891790954E1,-7.730271816E-1,5.506787896E-1,-7.006418109E-1
1.892706214E1,-6.775823236E-1,5.836645365E-1,-7.501204610E-1
1.893621469E1,-5.635066032E-1,5.060869455E-1,-7.675296068E-1
1.894536730E1,-4.854708612E-1,3.381039500E-1,-7.699729800E-1
1.895451985E1,-4.457657933E-1,1.760767251E-1,-7.676823139E-1
1.896367245E1,-4.272876680E-1,9.834641218E-2,-7.577560544E-1
1.897282500E1,-4.350759685E-1,5.268557742E-2,-7.412631512E-1
1.898197761E1,-4.628695250E-1,-7.864658535E-2,-7.218687534E-1
1.899113016E1,-4.966188073E-1,-2.473931462E-1,-7.091936469E-1
1.900028276E1,-5.215108395E-1,-4.378247857E-1,-6.951441765E-1
1.900943532E1,-5.189147592E-1,-5.926745534E-1,-6.675033569E-1
1.901858792E1,-4.892886579E-1,-7.056813240E-1,-6.195518374E-1
1.902774047E1,-4.311054647E-1,-8.107470274E-1,-5.630484819E-1
1.903689308E1,-3.518480062E-1,-8.941276670E-1,-4.989095032E-1
1.904603287E1,-2.724378705E-1,-9.184088707E-1,-4.280512035E-1
1.905519823E1,-2.081461996E-1,-8.258655071E-1,-3.542914093E-1
1.906435079E1,-1.433963925E-1,-5.741963983E-1,-2.924431264E-1
1.907350339E1,-6.780404598E-2,-2.376195788E-1,-2.322746664E-1
1.908265594E1,2.641914412E-2,2.061609551E-2,-1.603474021E-1
1.909180855E1,1.400367320E-1,8.628217876E-2,-6.795676053E-2
1.910094834E1,3.048127890E-1,1.053711493E-2,4.306473210E-2
1.911011370E1,5.375455618E-1,-1.580567211E-1,1.766875684E-1
1.911926626E1,8.218950033E-1,-3.274141252E-1,3.394783735E-1
1.912841886E1,1.109145880E0,-4.065188468E-1,4.947862923E-1
1.913757141E1,1.347376347E0,-3.532224298E-1,6.058077812E-1
1.914672402E1,1.535517335E0,-1.953184158E-1,6.956022978E-1
1.915586386E1,1.680746198E0,5.176930502E-2,8.173136115E-1
1.916502917E1,1.805664539E0,2.750339806E-1,9.909469485E-1
1.917418178E1,1.895153642E0,3.778090179E-1,1.205812454E0
1.918332157E1,1.922183633E0,3.329117596E-1,1.433200359E0
1.919248693E1,1.952267885E0,1.246128380E-1,1.629587770E0
1.920163948E1,1.967386365E0,-1.296523362E-1,1.792836666E0
1.921077933E1,1.908744931E0,-4.269822240E-1,1.873926640E0
1.921994464E1,1.845980406E0,-1.015838981E0,1.877591729E0
1.922909724E1,1.903552771E0,-1.672499776E0,1.902331114E0
1.923823704E1,2.067259789E0,-2.070619583E0,1.904316306E0
1.924740240E1,2.263952732E0,-2.177823305E0,1.844758749E0
1.925655495E1,2.426285267E0,-2.103757858E0,1.740151167E0
1.926570756E1,2.515469074E0,-1.954558492E0,1.628213406E0
1.927486011E1,2.568612814E0,-1.860946178E0,1.532768488E0
1.928401271E1,2.636722088E0,-1.921878219E0,1.467407823E0
1.929315256E1,2.682688475E0,-2.080545664E0,1.428619027E0
1.930231787E1,2.660239697E0,-2.174616337E0,1.395633221E0
1.931147047E1,2.538986683E0,-2.197217703E0,1.368603230E0
1.932061027E1,2.377417564E0,-2.179502964E0,1.350277901E0
1.932977563E1,2.247917891E0,-2.007396698E0,1.338824511E0
1.933892818E1,2.168202400E0,-1.641041160E0,1.340504289E0
1.934806802E1,2.099329233E0,-1.186723471E0,1.364632726E0
1.935723334E1,2.010603666E0,-7.221741676E-1,1.408308387E0
1.936638594E1,1.909966707E0,-3.116848171E-1,1.456717968E0
1.937553849E1,1.825058937E0,1.114796288E-2,1.468782187E0
1.938469110E1,1.750230074E0,2.544178963E-1,1.449082375E0
1.939384365E1,1.692199588E0,3.542914093E-1,1.421136141E0
1.940298349E1,1.640124917E0,3.190149665E-1,1.392731786E0
1.941214886E1,1.600725293E0,1.911951900E-1,1.365701795E0
1.942130141E1,1.599808931E0,3.741439432E-2,1.322331548E0
1.943044126E1,1.617523551E0,-1.171299592E-1,1.257887244E0
1.943960657E1,1.634779930E0,-2.861819267E-1,1.161678791E0
1.944875917E1,1.640735745E0,-4.807367921E-1,1.036607742E0
1.945791172E1,1.640583038E0,-6.818582416E-1,9.092461467E-1
1.946706433E1,1.627602577E0,-8.264763355E-1,7.718055248E-1
1.947621688E1,1.585912228E0,-9.277243018E-1,6.274928451E-1
1.948536948E1,1.510014415E0,-9.927794933E-1,4.998257756E-1
1.949452209E1,1.398687482E0,-1.034317136E0,3.965925872E-1
1.950367464E1,1.264759302E0,-1.046381354E0,3.101576865E-1
1.951282724E1,1.113269091E0,-1.026986957E0,2.406738251E-1
1.952197980E1,9.471186996E-1,-9.713998437E-1,1.991362125E-1
1.953113240E1,7.780666947E-1,-8.747332692E-1,1.685938388E-1
1.954028495E1,6.058077812E-1,-7.545490861E-1,1.311794519E-1
1.954943756E1,4.298837483E-1,-6.224533319E-1,8.536590636E-2
1.955859016E1,2.495311052E-1,-4.963133931E-1,4.001049697E-2
1.956772995E1,7.009471953E-2,-3.968980014E-1,-1.389677543E-2
1.957689532E1,-1.143811494E-1,-3.402419090E-1,-7.375980914E-2
1.958604787E1,-3.101576865E-1,-2.660239935E-1,-1.282779276E-1
1.959520047E1,-5.205945969E-1,-1.478250325E-1,-1.861557066E-1
1.960435302E1,-7.528692484E-1,5.803049076E-3,-2.446443290E-1
1.961350563E1,-9.877400398E-1,1.811162084E-1,-3.173351586E-1
1.962265823E1,-1.211920977E0,3.352024257E-1,-4.178195298E-1
1.963181079E1,-1.396244168E0,3.978142738E-1,-5.419742465E-1
1.964096339E1,-1.503295064E0,3.849864900E-1,-6.849125028E-1
1.965010318E1,-1.433505774E0,6.268820167E-1,-7.915053368E-1
1.965926855E1,-7.999044657E-1,1.257123709E0,-7.753179073E-1
1.966842110E1,2.944283783E-1,1.424037695E0,-6.149705052E-1
1.967756094E1,4.172086716E-1,1.305838704E0,-3.912476599E-1
1.968672631E1,-1.048366666E0,1.637223363E0,-5.630484819E-1
1.969587886E1,-2.080698490E0,9.301676750E-1,-1.129762053E0
1.970501870E1,-2.078560591E0,-1.048366666E0,-1.323095202E0
1.971418402E1,-1.621188641E0,-1.290262103E0,-8.232693672E-1
1.972333662E1,-1.229024649E0,3.374931216E-1,-3.081724346E-1
1.973247646E1,-1.239103675E0,1.048824787E0,-4.210264683E-1
1.974164178E1,-1.546207070E0,7.198835015E-1,-7.026270628E-1
1.975079438E1,-1.766570330E0,1.148087382E0,-6.665870547E-1
1.975993417E1,-1.877133608E0,1.566365123E0,-4.741701782E-1
1.976909954E1,-1.731293797E0,1.568655729E0,-3.912476599E-1
1.977825209E1,-1.597671032E0,1.114338160E0,-4.651601911E-1
1.978739193E1,-1.532463074E0,2.996205688E-1,-6.210789680E-1
1.979655730E1,-1.396396875E0,-2.542651594E-1,-7.148439884E-1
1.980570985E1,-1.201841950E0,-5.102101564E-1,-7.401941419E-1
1.981484969E1,-1.039967418E0,-6.226060390E-1,-7.310314775E-1
1.982401500E1,-9.698727131E-1,-6.102364063E-1,-7.055285573E-1
1.983316761E1,-1.002094984E0,-3.903313875E-1,-6.931589246E-1
1.984230745E1,-1.118155956E0,5.222744122E-2,-7.040014863E-1
1.985147276E1,-1.247044683E0,6.238277555E-1,-7.279772162E-1
1.986062537E1,-1.288276911E0,1.116170645E0,-7.310314775E-1
1.986977792E1,-1.289498568E0,1.457328796E0,-7.195780873E-1
1.987893052E1,-1.294690728E0,1.694643021E0,-7.266027927E-1
1.988808313E1,-1.293621778E0,1.857891917E0,-7.432484031E-1
1.989722292E1,-1.269646049E0,1.933178902E0,-7.571451664E-1
1.990638829E1,-1.216502309E0,1.932109833E0,-7.617265582E-1
1.991554084E1,-1.127013206E0,1.850256324E0,-7.572978735E-1
1.992469344E1,-1.034927964E0,1.755269647E0,-7.449282408E-1
1.993384599E1,-9.833113551E-1,1.621494055E0,-7.469134927E-1
1.994299860E1,-9.707890153E-1,1.465575337E0,-7.559235096E-1
1.995215120E1,-9.883508682E-1,1.356997132E0,-7.589777112E-1
1.996130376E1,-1.026070714E0,1.305075169E0,-7.591304183E-1
1.997045636E1,-1.059056401E0,1.268271565E0,-7.563816309E-1
1.997960891E1,-1.046228647E0,1.218334913E0,-7.525638342E-1
1.998876152E1,-1.008050680E0,1.153279662E0,-7.510367036E-1
1.999791412E1,-9.875873327E-1,1.120141149E0,-7.514948249E-1
2.000706667E1,-9.982771277E-1,1.159388065E0,-7.644753456E-1
2.001621928E1,-1.011257648E0,1.240630746E0,-7.817317843E-1
2.002537183E1,-1.016755223E0,1.309809208E0,-7.896727920E-1
2.003452443E1,-1.014464617E0,1.329050899E0,-7.939487100E-1
2.004367704E1,-9.820896983E-1,1.228566527E0,-7.869240046E-1
2.005282959E1,-9.297095537E-1,1.073258638E0,-7.675296068E-1
2.006198219E1,-9.013051391E-1,9.907942414E-1,-7.354601026E-1
2.007113480E1,-8.968765140E-1,9.555178285E-1,-7.012526393E-1
2.008028735E1,-8.637380004E-1,8.874083757E-1,-6.612421870E-1
2.008943995E1,-7.960866690E-1,7.521057129E-1,-6.229115129E-1
2.009859251E1,-7.278245091E-1,6.215370893E-1,-6.051968932E-1
2.010774511E1,-6.743753552E-1,5.673243999E-1,-6.126797795E-1
2.011689766E1,-6.587987542E-1,6.366555691E-1,-6.267293096E-1
2.012605026E1,-6.644490957E-1,7.215633392E-1,-6.409314871E-1
2.013520287E1,-6.591041684E-1,7.492041588E-1,-6.493306160E-1
2.014435542E1,-6.375718117E-1,7.450809479E-1,-6.479562521E-1
2.015350802E1,-6.077930331E-1,7.366818190E-1,-6.508577466E-1
2.016266063E1,-5.801522136E-1,6.836907864E-1,-6.682668924E-1
2.017181318E1,-5.787777901E-1,6.100836992E-1,-6.859814525E-1
2.018096579E1,-5.980194807E-1,5.593833923E-1,-6.896465421E-1
2.019011834E1,-6.148177385E-1,5.534276366E-1,-6.726955175E-1
2.019927094E1,-6.093201637E-1,5.599942207E-1,-6.507050395E-1
2.020842355E1,-5.883986354E-1,5.595360994E-1,-6.377245188E-1
2.021757610E1,-5.583143830E-1,4.921901822E-1,-6.349757314E-1
2.022672870E1,-5.332696438E-1,3.185568452E-1,-6.523848772E-1
2.023588126E1,-5.102101564E-1,1.582094431E-1,-6.728482842E-1
2.024503386E1,-4.815003574E-1,4.672981426E-2,-6.682668924E-1
2.025418646E1,-4.546230733E-1,-7.528692484E-2,-6.369609833E-1
2.026333902E1,-4.604261220E-1,-2.041756958E-1,-6.131379604E-1
2.027249162E1,-4.879142344E-1,-3.084778786E-1,-6.015318632E-1
2.028164422E1,-5.030327439E-1,-4.048390090E-1,-5.998520255E-1
2.029079678E1,-5.108210444E-1,-5.128062963E-1,-5.986303091E-1
2.029994938E1,-5.126535892E-1,-6.525375843E-1,-5.838172436E-1
2.030910193E1,-5.082249045E-1,-8.084563613E-1,-5.628957748E-1
2.031825454E1,-4.987567961E-1,-9.144383669E-1,-5.419742465E-1
2.032740714E1,-4.880669713E-1,-9.576557875E-1,-5.163186193E-1
2.033655969E1,-4.508052766E-1,-1.015838981E0,-4.645493329E-1
2.034571230E1,-3.939964771E-1,-9.203941226E-1,-3.988832533E-1
2.035486490E1,-3.260397315E-1,-6.717792749E-1,-3.413109183E-1
2.036401745E1,-2.501419485E-1,-4.272876680E-1,-2.860292196E-1
2.037317006E1,-1.615691036E-1,-3.822376728E-1,-2.041756958E-1
2.038232261E1,-5.268557742E-2,-5.624375939E-1,-8.536590636E-2
2.039147521E1,7.818844914E-2,-7.751652002E-1,4.749337584E-2
2.040062782E1,2.325800955E-1,-9.579612017E-1,1.928750277E-1
2.040978037E1,4.027010500E-1,-1.034317136E0,3.559712470E-1
2.041893297E1,5.609105229E-1,-1.013548255E0,5.152496696E-1
2.042808558E1,6.827745438E-1,-9.700254202E-1,6.320741773E-1
2.043723813E1,7.693621516E-1,-8.919897079E-1,6.949914694E-1
2.044639073E1,8.388460279E-1,-7.369872332E-1,6.940752268E-1
2.045554329E1,9.219212532E-1,-4.906630516E-1,6.377245188E-1
2.046469589E1,1.051115394E0,-1.466033459E-1,5.583143830E-1
2.047384849E1,1.234369636E0,2.000524700E-1,5.294518471E-1
2.048300105E1,1.459924936E0,3.933856487E-1,5.835118294E-1
2.049215365E1,1.657381296E0,2.936648130E-1,7.168292403E-1
2.050129349E1,1.747634053E0,-1.079672500E-1,9.327637553E-1
2.051045881E1,1.751146436E0,-6.300889254E-1,1.174353838E0
2.051961141E1,1.665322304E0,-1.104411840E0,1.326149344E0
2.052875126E1,1.550788522E0,-1.473363638E0,1.337755442E0
2.053791657E1,1.519482613E0,-1.818797708E0,1.321415305E0
2.054706917E1,1.623173833E0,-1.974716425E0,1.319124699E0
2.055620902E1,1.807649732E0,-1.829334855E0,1.297134161E0
2.056537433E1,1.959750772E0,-1.527729034E0,1.265675545E0
2.057452693E1,2.015185118E0,-1.163205862E0,1.252236843E0
2.058366672E1,1.967386365E0,-7.638645172E-1,1.224748731E0
2.059283209E1,1.861862421E0,-3.930802047E-1,1.176797271E0
2.060198469E1,1.756644011E0,-1.777565479E-1,1.132510781E0
2.061113724E1,1.678913713E0,-1.507265568E-1,1.089904189E0
2.062028985E1,1.620577812E0,-2.359397560E-1,1.057071209E0
2.062944245E1,1.555522561E0,-3.880407214E-1,1.025001645E0
2.063859501E1,1.458397865E0,-5.456393361E-1,9.891144037E-1
2.064774761E1,1.327065706E0,-6.676560640E-1,9.649859667E-1
2.065690016E1,1.200773001E0,-7.270609736E-1,9.318475127E-1
2.066605276E1,1.107007980E0,-7.742488980E-1,9.043593407E-1
2.067520537E1,1.040120125E0,-8.021951914E-1,8.812998533E-1
2.068435792E1,9.930849075E-1,-8.229639530E-1,8.405258060E-1
2.069351052E1,9.535325766E-1,-8.467870355E-1,7.792884111E-1
2.070266313E1,9.130639434E-1,-8.470924497E-1,7.050704360E-1
2.071181568E1,8.617527485E-1,-7.999044657E-1,6.320741773E-1
2.072096829E1,7.918107510E-1,-7.230904698E-1,5.612159371E-1
2.073012084E1,7.056813240E-1,-6.427640319E-1,4.964661002E-1
2.073927344E1,6.091674566E-1,-5.745018721E-1,4.260659516E-1
2.074842605E1,5.123481154E-1,-5.332696438E-1,3.527642787E-1
2.075757860E1,4.242334068E-1,-5.036435723E-1,2.811424434E-1
2.076673120E1,3.423798978E-1,-4.895940721E-1,2.153236568E-1
2.077588376E1,2.632751763E-1,-5.062396526E-1,1.487413049E-1
2.078503636E1,1.789782494E-1,-5.439594984E-1,8.231166750E-2
2.079418896E1,8.643488586E-2,-5.816792846E-1,1.695101149E-2
2.080334152E1,-6.413896102E-3,-5.815265775E-1,-5.451811850E-2
2.081249412E1,-1.175880954E-1,-5.115845799E-1,-1.188097894E-1
2.082164672E1,-2.415900975E-1,-3.967452943E-1,-1.808107942E-1
2.083079928E1,-3.692571819E-1,-3.008422852E-1,-2.509055138E-1
2.083995188E1,-4.993676245E-1,-2.531961799E-1,-3.232909143E-1
2.084910448E1,-6.285618544E-1,-2.469350100E-1,-3.865135908E-1
2.085825704E1,-7.496622801E-1,-2.594573796E-1,-4.343124032E-1
2.086740964E1,-8.617527485E-1,-2.615953386E-1,-4.698942602E-1
2.087656224E1,-9.659022093E-1,-2.576248348E-1,-4.981459379E-1
2.088571480E1,-1.057987452E0,-2.771719396E-1,-5.250232220E-1
2.089486740E1,-1.137244940E0,-3.008422852E-1,-5.531222224E-1
2.090401995E1,-1.218640327E0,-2.829749882E-1,-5.812211633E-1
2.091317256E1,-1.322637081E0,-2.182251811E-1,-6.044333577E-1
2.092232516E1,-1.446944475E0,-9.865183383E-2,-6.213843822E-1
2.093147771E1,-1.570488334E0,8.796200156E-2,-6.418477297E-1
2.094063032E1,-1.676622987E0,3.208475113E-1,-6.629219651E-1
2.094978292E1,-1.781535983E0,5.471664071E-1,-6.827745438E-1
2.095893547E1,-1.882631302E0,7.006418109E-1,-7.099572420E-1
2.096808808E1,-1.956543803E0,7.696675658E-1,-7.415685654E-1
2.097724063E1,-1.990293026E0,7.744016051E-1,-7.699729800E-1
2.098639323E1,-1.920503736E0,7.099572420E-1,-7.944068313E-1
2.099553308E1,-1.703500271E0,6.319214702E-1,-8.014315963E-1
2.100469839E1,-1.370588541E0,5.427377820E-1,-7.800519466E-1
2.101385099E1,-9.874345660E-1,3.399364948E-1,-7.148439884E-1
2.102299084E1,-6.360446811E-1,6.322269142E-2,-5.815265775E-1
2.103215615E1,-3.680354655E-1,-8.979454637E-2,-3.787252903E-1
2.104130876E1,-3.481829464E-1,2.229592577E-2,-2.044811249E-1
2.105044860E1,-4.802786708E-1,2.104368806E-1,-1.163664013E-1
2.105961391E1,-4.990622103E-1,4.161396921E-1,-5.741964281E-2
2.106877938E1,-3.385621011E-1,8.606837988E-1,-2.321219631E-2
2.107790636E1,-8.979454637E-2,1.443279386E0,-2.305948362E-2
2.108707167E1,5.864133686E-2,1.889350533E0,-1.679829881E-2
2.109622428E1,-7.360709459E-2,1.973647475E0,2.015795931E-2
2.110536412E1,-5.057815313E-1,1.634321809E0,1.603474095E-2
2.111452943E1,-9.872818589E-1,1.201078415E0,-7.620319724E-2
2.112368204E1,-1.263384819E0,9.778137207E-1,-1.982199401E-1
2.113282188E1,-1.276518106E0,8.906152844E-1,-2.910687327E-1
2.114198719E1,-1.099677801E0,7.858549953E-1,-3.539859951E-1