"Time (s)","Gyroscope x (rad/s)","Gyroscope y (rad/s)","Gyroscope z (rad/s)"
5.830312710E0,9.697200358E-2,6.810946763E-2,-4.932591692E-2
5.839465522E0,8.460234851E-2,3.512371797E-3,-6.047387794E-2
5.848618283E0,6.139015034E-2,-7.650861889E-2,-5.619794875E-2
5.857771095E0,3.878879920E-2,-1.681357026E-1,-5.451811850E-2
5.866923856E0,1.847812906E-2,-2.501419485E-1,-6.200099736E-2
5.876076668E0,4.123218823E-3,-2.948864996E-1,-6.810946763E-2
5.885229429E0,1.221694518E-2,-3.110739589E-1,-7.055285573E-2
5.894382241E0,4.245388508E-2,-3.014531136E-1,-7.452336699E-2
5.903535001E0,8.353336155E-2,-2.699944973E-1,-7.131642103E-2
5.912687762E0,1.255291104E-1,-2.246390730E-1,-6.734590977E-2
5.921840574E0,1.571404636E-1,-1.763821393E-1,-6.780404598E-2
5.930993335E0,1.734806150E-1,-1.342336833E-1,-7.742489129E-2
5.940146147E0,1.757712960E-1,-1.043021679E-1,-9.269607067E-2
5.949298908E0,1.727170646E-1,-9.345962852E-2,-1.055238619E-1
5.958451720E0,1.688992679E-1,-9.040539712E-2,-1.128540337E-1
5.967604481E0,1.621799469E-1,-9.468132257E-2,-1.166718230E-1
5.976757293E0,1.528645307E-1,-9.468132257E-2,-1.142284349E-1
5.985910054E0,1.466033459E-1,-7.727217674E-2,-1.044548824E-1
5.995062866E0,1.519482583E-1,-6.200099736E-2,-9.284878522E-2
6.004215626E0,1.647760421E-1,-6.200099736E-2,-8.185353130E-2
6.013368387E0,1.957765520E-1,-8.414421231E-2,-6.872031838E-2
6.022521199E0,2.411319613E-1,-1.244601309E-1,-6.352811307E-2
6.031673960E0,2.889307439E-1,-1.605001241E-1,-5.467082933E-2
6.040826772E0,3.258870244E-1,-1.748550236E-1,-4.153761268E-2
6.049979533E0,3.504736125E-1,-1.736333370E-1,-2.977880463E-2
6.059132345E0,3.683409095E-1,-1.699682474E-1,-2.290677279E-2
6.068285106E0,3.866663277E-1,-1.548497826E-1,-2.153236605E-2
6.077437918E0,4.080459774E-1,-1.288887709E-1,-2.137965336E-2
6.086590679E0,4.337015450E-1,-1.041494608E-1,-2.183778957E-2
6.095743491E0,4.576773047E-1,-9.269607067E-2,-2.107422985E-2
6.104896251E0,4.848600030E-1,-1.004843712E-1,-2.031067200E-2
6.114049064E0,5.282301903E-1,-1.285833418E-1,-1.450762246E-2
6.123201824E0,5.951179266E-1,-1.713426560E-1,-4.123218823E-3
6.132354637E0,6.879667044E-1,-2.192941606E-1,1.053711493E-2
6.141507397E0,8.021951914E-1,-2.582356930E-1,3.206948191E-2
6.150660158E0,9.275715351E-1,-3.060344756E-1,6.047387794E-2
6.159812970E0,1.056460381E0,-3.895678520E-1,9.269607067E-2
6.168965731E0,1.190388560E0,-5.042544007E-1,1.308740228E-1
6.178118543E0,1.328745484E0,-6.250494719E-1,1.814216375E-1
6.187271304E0,1.475654244E0,-7.426375747E-1,2.357870489E-1
6.196424116E0,1.645317078E0,-8.493831158E-1,2.742704153E-1
6.205576876E0,1.850256324E0,-9.720106721E-1,3.020639718E-1
6.214729689E0,2.070772171E0,-1.110673070E0,3.465031087E-1
6.223882449E0,2.293884277E0,-1.263842940E0,3.946073353E-1
6.233035262E0,2.523715496E0,-1.412737012E0,4.341596961E-1
6.242188022E0,2.748201847E0,-1.511694312E0,4.468347728E-1
6.251328074E0,2.928707123E0,-1.502378821E0,4.566083252E-1
6.260493595E0,3.054694414E0,-1.392426372E0,4.671454430E-1
6.269646408E0,3.112114191E0,-1.258498073E0,4.631749392E-1
6.278799168E0,3.114862919E0,-1.162747741E0,4.674508572E-1
6.287951929E0,3.062482834E0,-1.172368646E0,5.109737515E-1
6.297104741E0,2.935273886E0,-1.247655511E0,5.584670901E-1
6.306257501E0,2.737817526E0,-1.283542752E0,5.577035546E-1
6.315410314E0,2.507680655E0,-1.265217423E0,5.529694557E-1
6.324563074E0,2.291898966E0,-1.183058381E0,5.453338623E-1
6.333715887E0,2.124374151E0,-9.982771277E-1,5.586197972E-1
6.342868647E0,2.014116049E0,-8.000571728E-1,5.827482939E-1
6.352021460E0,1.939745426E0,-6.803311110E-1,5.760289431E-1
6.361174220E0,1.886907220E0,-6.287145615E-1,5.445703268E-1
6.370327033E0,1.863847733E0,-7.317950130E-1,5.322006941E-1
6.379479793E0,1.874995708E0,-8.637380004E-1,5.366293192E-1
6.388632554E0,1.916380525E0,-1.024543524E0,5.548020005E-1
6.397785366E0,1.956543803E0,-1.194969893E0,5.686988235E-1
6.406938179E0,1.978076100E0,-1.325080395E0,5.767925382E-1
6.416078179E0,1.981588483E0,-1.376238823E0,5.700731874E-1
6.425243751E0,1.961277843E0,-1.358982444E0,5.444176197E-1
6.434396512E0,1.905232549E0,-1.293469071E0,5.103628635E-1
6.443536564E0,1.822157383E0,-1.214211583E0,4.760027230E-1
6.452702085E0,1.726712465E0,-1.127165914E0,4.485146105E-1
6.461854845E0,1.649440289E0,-1.029735804E0,4.210264683E-1
6.471007658E0,1.601641536E0,-9.194778204E-1,4.052971601E-1
6.480160418E0,1.566670537E0,-7.864658237E-1,3.927747905E-1
6.489313231E0,1.524216652E0,-6.575770974E-1,3.868190348E-1
6.498465991E0,1.489398360E0,-5.480827093E-1,3.791834414E-1
6.507618804E0,1.463590026E0,-4.957025647E-1,3.600944579E-1
6.516771564E0,1.433963895E0,-4.753918648E-1,3.428380191E-1
6.525924376E0,1.388303161E0,-4.634803534E-1,3.179459870E-1
6.535077137E0,1.336228371E0,-4.781406820E-1,2.932066917E-1
6.544229949E0,1.271936655E0,-5.149442554E-1,2.811424434E-1
6.553382710E0,1.190083146E0,-5.273138881E-1,2.568612695E-1
6.562535470E0,1.129762053E0,-5.835118294E-1,2.228065431E-1
6.571688283E0,1.065470338E0,-6.145123243E-1,1.905843467E-1
6.580841043E0,1.003927469E0,-6.285618544E-1,1.650814712E-1
6.589993856E0,9.376505613E-1,-6.503996253E-1,1.420219839E-1
6.599146616E0,8.545753360E-1,-6.398624778E-1,1.159082651E-1
6.608299429E0,7.585195899E-1,-5.648810267E-1,7.788302749E-2
6.617452189E0,6.766660213E-1,-4.940227270E-1,4.306473210E-2
6.626605001E0,6.114581227E-1,-4.285093546E-1,1.557660475E-2
6.635757762E0,5.395308137E-1,-3.660502136E-1,-5.650337320E-3
6.644910574E0,4.553866386E-1,-3.293993771E-1,-1.359135192E-2
6.654063335E0,3.552076817E-1,-2.898470163E-1,-8.857285604E-3
6.663216147E0,2.512109280E-1,-2.392994165E-1,2.596100792E-3
6.672368908E0,1.618745178E-1,-1.821851879E-1,1.542389300E-2
6.681521720E0,8.292251825E-2,-1.123958975E-1,2.092151903E-2
6.690674481E0,1.404948719E-2,-6.062658876E-2,1.786728203E-2
6.699827241E0,-4.031591862E-2,-5.161659420E-2,2.107422985E-2
6.708980054E0,-8.139539510E-2,-7.406523079E-2,3.802524135E-2
6.718132866E0,-1.157555580E-1,-1.107160673E-1,6.215370819E-2
6.727285626E0,-1.533226669E-1,-1.324011385E-1,9.055810422E-2
6.736438387E0,-2.081461996E-1,-1.330119967E-1,1.104106456E-1
6.745591199E0,-2.774773538E-1,-1.204896197E-1,1.215586066E-1
6.754743960E0,-3.515425920E-1,-1.043021679E-1,1.270562261E-1
6.763896772E0,-4.288147688E-1,-8.689302206E-2,1.302631795E-1
6.773049533E0,-5.012001991E-1,-5.619794875E-2,1.400367320E-1
6.782202345E0,-5.696150661E-1,3.359660041E-3,1.560714692E-1
6.791355106E0,-6.418477297E-1,8.353336155E-2,1.676775664E-1
6.800507918E0,-7.290462255E-1,1.863084137E-1,1.724116355E-1
6.809660679E0,-8.254073858E-1,2.777827978E-1,1.734806150E-1
6.818813491E0,-9.066500664E-1,3.264978528E-1,1.863084137E-1
6.827966251E0,-9.571976662E-1,3.084778786E-1,2.104368806E-1
6.837119064E0,-9.611681700E-1,2.133384049E-1,2.250972092E-1
6.846271824E0,-9.052756429E-1,9.345962852E-2,2.171562016E-1
6.855411876E0,-8.188407421E-1,1.221694518E-2,1.805053651E-1
6.864577397E0,-6.807892919E-1,3.390202299E-2,1.398840249E-1
6.873730158E0,-5.303681493E-1,1.394258887E-1,8.903098851E-2
6.882870210E0,-4.343124032E-1,1.748550236E-1,3.649812192E-2
6.892035731E0,-3.695625961E-1,4.642439261E-2,2.290677279E-3
6.901188543E0,-3.141281903E-1,-1.583621502E-1,-5.192201585E-3
6.910328543E0,-2.745758295E-1,-2.473931462E-1,3.817795310E-3
6.919494116E0,-2.843494117E-1,-1.010952219E-1,-2.321219631E-2
6.928646876E0,-3.976615667E-1,3.280249834E-1,-9.162709117E-2
6.937786929E0,-6.759024858E-1,9.536852837E-1,-1.488940120E-1
6.946952449E0,-1.033553600E0,1.330730796E0,-1.902789176E-1
6.956105262E0,-1.233758807E0,9.718579650E-1,-1.895153672E-1
6.965245262E0,-1.327981949E0,3.549022675E-1,-1.110214889E-1
6.974410835E0,-1.341115117E0,3.848337755E-2,1.496575773E-2
6.983563595E0,-1.239409089E0,1.328592747E-1,1.102579311E-1
6.992703647E0,-1.202147365E0,6.429167390E-1,1.388150454E-1
7.001869168E0,-1.370893955E0,1.196955204E0,1.128540337E-1
7.011021929E0,-1.562700033E0,1.106091619E0,6.749862432E-2
7.020161981E0,-1.572473526E0,6.053496599E-1,5.314370990E-2
7.029327501E0,-1.493521571E0,2.402156889E-1,6.444438547E-2
7.038480314E0,-1.491536260E0,2.015795931E-2,5.482354015E-2
7.047620314E0,-1.457481503E0,-1.357607991E-1,6.001574174E-2
7.056785887E0,-1.292400122E0,-2.956500649E-1,1.279724985E-1
7.065938647E0,-1.181836724E0,-2.985515893E-1,2.501419485E-1
7.075078699E0,-1.185043693E0,-2.035648525E-1,3.472666740E-1
7.084244220E0,-1.226734042E0,-1.626380831E-1,3.597890437E-1
7.093397033E0,-1.247350097E0,-1.688992679E-1,2.948864996E-1
7.102537033E0,-1.246433854E0,-1.595838517E-1,2.105895877E-1
7.111702606E0,-1.236965656E0,-8.093725890E-2,1.256818175E-1
7.120855366E0,-1.245059371E0,4.581354558E-2,4.245388508E-2
7.130008179E0,-1.228566527E0,1.481304616E-1,-9.315420873E-3
7.139160939E0,-1.200620294E0,2.148655206E-1,-5.008947477E-2
7.148313699E0,-1.173284888E0,2.901524603E-1,-9.147437662E-2
7.157466512E0,-1.143658757E0,3.768927455E-1,-1.230857223E-1
7.166619272E0,-1.103190184E0,4.793623984E-1,-1.510319859E-1
7.175772085E0,-1.071273327E0,6.455128193E-1,-1.795890927E-1
7.184924845E0,-1.085628271E0,8.889354467E-1,-2.037175596E-1
7.194077658E0,-1.150988936E0,1.102121115E0,-2.220429778E-1
7.203230418E0,-1.208103180E0,1.282168388E0,-2.108950168E-1
7.212383231E0,-1.225359559E0,1.473210931E0,-1.934858710E-1
7.221535991E0,-1.225054145E0,1.713121176E0,-1.637070626E-1
7.230688804E0,-1.228413820E0,1.941578031E0,-1.377460510E-1
7.239841564E0,-1.230704546E0,2.113989592E0,-1.181989461E-1
7.248994376E0,-1.198634982E0,2.187596798E0,-1.151447073E-1
7.258147137E0,-1.168550849E0,2.159803152E0,-1.472141892E-1
7.267287189E0,-1.154654026E0,2.070466757E0,-1.959292591E-1
7.276452710E0,-1.119683027E0,1.969066143E0,-2.609844804E-1
7.285605522E0,-1.083795786E0,1.793447495E0,-3.515425920E-1
7.294758283E0,-1.065928459E0,1.555064440E0,-4.385883212E-1
7.303911043E0,-1.088682532E0,1.377002478E0,-4.915793240E-1
7.313063856E0,-1.081046939E0,1.278808713E0,-5.141806602E-1
7.322216616E0,-1.033248186E0,1.236660242E0,-5.088357925E-1
7.331369429E0,-9.889616966E-1,1.246433854E0,-5.054761171E-1
7.340522189E0,-9.804098606E-1,1.182600260E0,-4.973823726E-1
7.349675001E0,-1.011563063E0,1.081963181E0,-4.879142344E-1
7.358827762E0,-1.006676316E0,1.000109673E0,-4.694361091E-1
7.367980574E0,-1.013548255E0,1.070051670E0,-4.445441067E-1
7.377133335E0,-1.024085402E0,1.224901438E0,-4.373666346E-1
7.386286147E0,-1.023627281E0,1.312252641E0,-4.483618736E-1
7.395438908E0,-1.053406119E0,1.343405843E0,-4.914266169E-1
7.404591720E0,-1.087613583E0,1.329967141E0,-5.086830258E-1
7.413744481E0,-1.089598775E0,1.334243178E0,-4.921901822E-1
7.422897241E0,-1.057071209E0,1.400061965E0,-4.639385045E-1
7.432050054E0,-1.054016948E0,1.461146593E0,-4.321744442E-1
7.441202866E0,-1.059667230E0,1.388913989E0,-4.040754735E-1
7.450355626E0,-1.050809979E0,1.158777237E0,-4.008685052E-1
7.459508387E0,-1.034317136E0,9.080244303E-1,-4.115583301E-1
7.468661199E0,-1.034469843E0,7.514948249E-1,-3.833066523E-1
7.477813960E0,-1.050809979E0,6.245913506E-1,-3.132119179E-1
7.486966772E0,-1.086697221E0,4.686725736E-1,-2.516690791E-1
7.496119533E0,-1.124569774E0,2.698417902E-1,-2.192941606E-1
7.505272345E0,-1.131441832E0,8.490777016E-2,-2.137965411E-1
7.514425106E0,-1.131289124E0,-1.985253533E-3,-2.374668717E-1
7.523577918E0,-1.120599270E0,3.206948051E-3,-2.765611112E-1
7.532730679E0,-1.071578860E0,5.864133686E-2,-3.177932799E-1
7.541870731E0,-1.001331329E0,1.363716573E-1,-3.490992188E-1
7.551036251E0,-9.124531150E-1,2.099787444E-1,-3.784198761E-1
7.560189064E0,-8.177717924E-1,2.429644912E-1,-4.083513916E-1
7.569341824E0,-6.733064055E-1,3.739912212E-1,-4.593571424E-1
7.578494585E0,-4.711159468E-1,6.061131954E-1,-4.897467792E-1
7.587647397E0,-2.470877171E-1,8.338065147E-1,-4.553866386E-1
7.596787449E0,1.924168877E-2,8.525900841E-1,-3.674246371E-1
7.605952970E0,3.596363366E-1,6.290199757E-1,-2.269297540E-1
7.615105731E0,7.540909648E-1,3.355078697E-1,-4.367557913E-2
7.624245783E0,1.186418056E0,1.055238619E-1,1.145338640E-1
7.633411304E0,1.637681484E0,2.015795931E-2,1.501157135E-1
7.642564116E0,2.122541428E0,1.878355257E-2,4.550812021E-2
7.651716876E0,2.623130798E0,-1.466033421E-2,-5.100574717E-2
7.660869689E0,3.023846626E0,-7.085828483E-2,3.481829539E-2
7.670022449E0,3.261313438E0,-1.907370538E-1,2.478512824E-1
7.679162501E0,3.378596306E0,-5.601469278E-1,5.341859460E-1
7.688328022E0,3.355231285E0,-1.050657272E0,8.562551737E-1
7.697480835E0,3.191066027E0,-1.309961915E0,1.144727707E0
7.706620835E0,2.969175816E0,-1.323553324E0,1.319582820E0
7.715786356E0,2.852809429E0,-1.471683741E0,1.432436824E0
7.724939168E0,2.887627602E0,-1.906759739E0,1.560714722E0
7.734079220E0,3.038965225E0,-2.451024532E0,1.628671527E0
7.743244741E0,3.175794840E0,-2.800429344E0,1.607902646E0
7.752397501E0,3.225273609E0,-2.797527790E0,1.542236567E0
7.761537554E0,3.161287308E0,-2.552730799E0,1.465422630E0
7.770703074E0,3.010713339E0,-2.342904568E0,1.372573733E0
7.779855887E0,2.920155287E0,-2.309766293E0,1.259567022E0
7.788995939E0,2.986737728E0,-2.381235361E0,1.128845692E0
7.798161460E0,3.078517437E0,-2.190498352E0,1.012632012E0
7.807314220E0,3.092566967E0,-1.703958392E0,9.200887084E-1
7.816454272E0,3.010255337E0,-1.161373377E0,8.580876589E-1
7.825619793E0,2.832193375E0,-7.218687534E-1,8.223531246E-1
7.834772606E0,2.621298313E0,-4.216373265E-1,7.950177193E-1
7.843912606E0,2.440640211E0,-3.394783735E-1,7.704311013E-1
7.853078179E0,2.316943645E0,-4.097257853E-1,7.421793938E-1
7.862230939E0,2.240435123E0,-5.125008225E-1,6.989619732E-1
7.871383751E0,2.198286533E0,-6.736118197E-1,6.499415040E-1
7.880536512E0,2.167744160E0,-8.829796910E-1,5.851916671E-1
7.889689272E0,2.128039122E0,-1.096165419E0,4.824166298E-1
7.898842085E0,2.073521137E0,-1.205812454E0,3.478775024E-1
7.907994845E0,2.015795946E0,-1.227039456E0,2.002051920E-1
7.917147658E0,1.919434786E0,-1.203521848E0,5.222744122E-2
7.926300418E0,1.777107358E0,-1.157860994E0,-6.902574003E-2
7.935453231E0,1.600114346E0,-1.113269091E0,-1.545443535E-1
7.944605991E0,1.401589036E0,-1.013853788E0,-2.092151791E-1
7.953758804E0,1.197260618E0,-8.202151656E-1,-2.388412803E-1
7.962911564E0,9.950701594E-1,-5.971031785E-1,-2.606790662E-1
7.972064376E0,7.908945084E-1,-3.787252903E-1,-2.652604282E-1
7.981217137E0,5.885513425E-1,-2.342599183E-1,-2.344126403E-1
7.990369949E0,4.014793634E-1,-1.971509457E-1,-2.205158621E-1
7.999522710E0,2.619007528E-1,-2.974826097E-1,-2.367033064E-1
8.008675522E0,1.151447073E-1,-4.344651103E-1,-2.498365343E-1
8.017828283E0,-5.925218388E-2,-4.934118688E-1,-2.809897363E-1
8.026981095E0,-2.512109280E-1,-4.372139275E-1,-3.159607351E-1
8.036121095E0,-4.549284875E-1,-3.303156495E-1,-3.345915973E-1
8.045286668E0,-6.757497787E-1,-2.396048307E-1,-3.177932799E-1
8.054439429E0,-9.075663090E-1,-1.910424829E-1,-2.780882120E-1
8.063579481E0,-1.043937922E0,-1.779092699E-1,-2.612899244E-1
8.072745001E0,-1.009119630E0,-1.527118147E-4,-2.702999115E-1
8.081897762E0,-8.513683677E-1,5.402944088E-1,-3.684936166E-1
8.091037814E0,-8.017370105E-1,1.163816690E0,-4.503471553E-1
8.100203335E0,-9.600991607E-1,1.016602516E0,-4.379774928E-1
8.109356147E0,-1.395633221E0,-2.278460264E-1,-3.808632791E-1
8.118496199E0,-2.125595808E0,-5.525113344E-1,-2.252499312E-1
8.127661720E0,-2.448428631E0,3.984251320E-1,2.347180545E-1
8.136814481E0,-2.211114407E0,1.491536260E0,7.301151752E-1
8.145954533E0,-2.035343170E0,2.396659136E0,8.480086923E-1
8.155120054E0,-2.015490532E0,2.009382010E0,5.815265775E-1
8.164272866E0,-1.712357521E0,6.856760383E-1,3.257342875E-1
8.173412866E0,-1.517497301E0,-1.530172378E-1,3.026748300E-1
8.182578439E0,-1.653105378E0,-3.211529553E-1,3.642176688E-1
8.191731199E0,-1.703194857E0,-3.377985358E-1,4.176668227E-1
8.200871251E0,-1.637528777E0,-5.309789777E-1,4.712686539E-1
8.210036772E0,-1.558576822E0,-7.776085734E-1,5.587725043E-1
8.219189585E0,-1.510472536E0,-9.234483242E-1,6.887302995E-1
8.228329585E0,-1.491078138E0,-9.068027735E-1,7.522584200E-1
8.237495106E0,-1.458397865E0,-8.704573512E-1,6.768187881E-1
8.246647918E0,-1.436101913E0,-7.976137996E-1,4.998257756E-1
8.255800679E0,-1.415333152E0,-6.945333481E-1,3.045073450E-1
8.264953491E0,-1.399298310E0,-5.638120174E-1,1.621799469E-1
8.274106251E0,-1.419609070E0,-3.707842827E-1,5.253286287E-2
8.283246304E0,-1.415791273E0,-1.976090819E-1,-4.642439261E-2
8.292411824E0,-1.352873921E0,-3.084778599E-2,-1.230857223E-1
8.301564637E0,-1.296217918E0,2.029540092E-1,-1.594311297E-1
8.310717397E0,-1.279419541E0,4.663818777E-1,-1.663031727E-1
8.319870210E0,-1.314695954E0,7.507312894E-1,-1.545443535E-1
8.329022970E0,-1.379751205E0,9.988879561E-1,-1.264453828E-1
8.338175783E0,-1.392579079E0,1.190693974E0,-1.094943732E-1
8.347328543E0,-1.360204101E0,1.297897696E0,-1.284306347E-1
8.356481356E0,-1.325843930E0,1.409835458E0,-1.776038408E-1
8.365634116E0,-1.321262598E0,1.538571477E0,-2.467822880E-1
8.374786876E0,-1.340809703E0,1.623784781E0,-3.196258247E-1
8.383939689E0,-1.370588541E0,1.750688195E0,-3.822376728E-1
8.393092449E0,-1.399756551E0,1.870414257E0,-4.191939235E-1
8.402245262E0,-1.409377337E0,1.909966707E0,-4.399627447E-1
8.411398022E0,-1.423121452E0,1.867818236E0,-4.436278343E-1
8.420550835E0,-1.421288848E0,1.742441773E0,-4.540122151E-1
8.429703595E0,-1.398992896E0,1.599045396E0,-4.818057716E-1
8.438856408E0,-1.352110386E0,1.534448266E0,-5.053234100E-1
8.448009168E0,-1.308434844E0,1.538266063E0,-4.873034060E-1
8.457161981E0,-1.304922462E0,1.553384542E0,-4.647020400E-1
8.466314741E0,-1.320499063E0,1.497339368E0,-4.488200247E-1
8.475467554E0,-1.340198874E0,1.340656996E0,-4.347705245E-1
8.484620314E0,-1.358218908E0,1.186723471E0,-3.834593594E-1
8.493773126E0,-1.333784938E0,1.038745761E0,-2.825168669E-1
8.502925887E0,-1.255443811E0,8.309049606E-1,-1.860029846E-1
8.512078699E0,-1.172368646E0,6.232169271E-1,-1.447708011E-1
8.521231460E0,-1.124417067E0,4.425588250E-1,-1.542389393E-1
8.530384272E0,-1.103953719E0,3.031329513E-1,-1.887518018E-1
8.539537033E0,-1.125486016E0,2.463241518E-1,-2.402156889E-1
8.548689845E0,-1.123958945E0,2.316638231E-1,-2.718270421E-1
8.557829845E0,-1.096012712E0,2.195995897E-1,-2.826695740E-1
8.566995366E0,-1.077381849E0,2.791571915E-1,-2.953446507E-1
8.576148179E0,-1.052337170E0,3.943018913E-1,-3.295520842E-1
8.585288179E0,-9.403993487E-1,4.353813827E-1,-3.733803928E-1
8.594453751E0,-8.119687438E-1,4.269822240E-1,-4.059080184E-1
8.603606512E0,-7.718055248E-1,4.873034060E-1,-4.173613787E-1
8.612759324E0,-8.031114340E-1,6.203153729E-1,-4.414898455E-1
8.621912085E0,-8.147175312E-1,7.098045349E-1,-4.935645759E-1
8.631064897E0,-7.676823139E-1,7.096518278E-1,-5.407525301E-1
8.640217658E0,-7.014053464E-1,6.717792749E-1,-5.537330508E-1
8.649370470E0,-6.520794630E-1,6.557445526E-1,-5.296045542E-1
8.658523231E0,-6.223006248E-1,6.311579347E-1,-5.160132051E-1
8.667663283E0,-5.774033666E-1,5.685460567E-1,-4.972296655E-1
8.676828804E0,-4.676035643E-1,4.653128982E-1,-4.524851143E-1
8.685981564E0,-2.825168669E-1,3.520007432E-1,-3.851391971E-1
8.695121616E0,-4.581354558E-2,1.627907902E-1,-2.757975459E-1
8.704287189E0,2.316638231E-1,-6.627693027E-2,-1.314848661E-1
8.713439949E0,5.891621709E-1,-3.243598938E-1,-1.695101149E-2
8.722592710E0,1.025459886E0,-6.097782850E-1,2.168507688E-2
8.731745522E0,1.516275644E0,-8.218950033E-1,3.054236295E-4
8.740898283E0,1.986475229E0,-8.180772066E-1,-1.404948719E-2
8.750051095E0,2.343362808E0,-5.810684562E-1,6.765133142E-2
8.759203856E0,2.583884001E0,-3.817795515E-1,2.267770469E-1
8.768356668E0,2.761945963E0,-5.558710098E-1,4.480564594E-1
8.777509429E0,2.897553921E0,-9.507837296E-1,6.923953891E-1
8.786662241E0,2.940160513E0,-1.254680276E0,9.028322697E-1
8.795815001E0,2.925194740E0,-1.387997627E0,1.041494608E0
8.804967814E0,2.923667669E0,-1.439461589E0,1.122126460E0
8.814120574E0,2.971313715E0,-1.495964885E0,1.171299577E0
8.823273387E0,3.057901382E0,-1.600572586E0,1.181836724E0
8.832426147E0,3.138533115E0,-1.718007922E0,1.154348612E0
8.841578960E0,3.133951902E0,-1.823531747E0,1.134343386E0
8.850731720E0,3.096231937E0,-1.880951405E0,1.130983710E0
8.859871772E0,3.082335234E0,-1.827960372E0,1.102121115E0
8.869037293E0,3.072103500E0,-1.659061193E0,1.009730577E0
8.878190054E0,3.045226336E0,-1.354095697E0,8.890882134E-1
8.887330106E0,3.023846626E0,-1.054933190E0,7.769976854E-1
8.896495626E0,3.003230572E0,-8.409839869E-1,6.868977547E-1
8.905648439E0,2.970702887E0,-6.152759194E-1,6.302416325E-1
8.914801199E0,2.910839796E0,-3.918585181E-1,6.059604883E-1
8.923954012E0,2.820739985E0,-2.244863659E-1,5.966450572E-1
8.933106772E0,2.695668936E0,-1.681357026E-1,5.865660906E-1
8.942259585E0,2.575179338E0,-1.750077456E-1,5.447230339E-1
8.951412345E0,2.485384703E0,-2.405211031E-1,4.831801951E-1
8.960565158E0,2.417733431E0,-3.752129376E-1,4.308000207E-1
8.969705158E0,2.342599154E0,-5.532749295E-1,3.742966652E-1
8.978870731E0,2.242420197E0,-7.006418109E-1,3.223746419E-1
8.988023491E0,2.145448208E0,-7.950177193E-1,2.673983872E-1
8.997163543E0,2.050461531E0,-8.208259940E-1,1.714953631E-1
9.006329064E0,1.921420097E0,-8.113578558E-1,6.612421572E-2
9.015481876E0,1.739845753E0,-8.075400591E-1,6.108472589E-3
9.024621876E0,1.549719453E0,-8.470924497E-1,-1.771457121E-2
9.033787449E0,1.350888729E0,-8.661814332E-1,-4.413371533E-2
9.042940210E0,1.121821046E0,-8.034168482E-1,-7.085828483E-2
9.052080262E0,8.845068216E-1,-6.629219651E-1,-9.101624042E-2
9.061245783E0,6.835380793E-1,-4.903576374E-1,-1.261399537E-1
9.070398595E0,5.233433843E-1,-3.426853120E-1,-1.870719790E-1
9.079551356E0,3.541387022E-1,-2.744231224E-1,-2.365505993E-1
9.088704116E0,1.571404636E-1,-2.977880239E-1,-2.606790662E-1
9.097856929E0,-4.947862774E-2,-3.461976945E-1,-2.437280566E-1
9.107009689E0,-2.307475507E-1,-3.614688516E-1,-2.040229887E-1
9.116162501E0,-3.752129376E-1,-3.483356535E-1,-1.867665499E-1
9.125315262E0,-5.056288242E-1,-3.003841341E-1,-1.902789176E-1
9.134455314E0,-6.339067221E-1,-1.702736765E-1,-1.814216375E-1
9.143620835E0,-7.505785823E-1,-1.068982761E-3,-1.621799469E-1
9.152773647E0,-8.338065147E-1,1.241547018E-1,-1.537808031E-1
9.161926408E0,-8.645015955E-1,1.221694499E-1,-1.685938388E-1
9.171079220E0,-7.498149872E-1,6.795676053E-2,-1.988307834E-1
9.180231981E0,-5.389199853E-1,2.086043358E-1,-2.451024652E-1
9.189372033E0,-3.393256664E-1,6.859814525E-1,-3.234436214E-1
9.198537554E0,-2.869454920E-1,9.721634388E-1,-3.672719002E-1
9.207690366E0,-4.744756222E-1,4.391991794E-1,-3.553603888E-1
9.216830366E0,-1.162900448E0,-3.411581814E-1,-3.700207174E-1
9.225995939E0,-2.301672459E0,-2.608317733E-1,-3.084778786E-1
9.235148699E0,-2.916337490E0,4.592044353E-1,1.049130186E-1
9.244288751E0,-2.723309755E0,1.344169378E0,5.630484819E-1
9.253454272E0,-2.381082535E0,2.277238607E0,6.416950226E-1
9.262607033E0,-2.076422453E0,2.100856543E0,4.016320705E-1
9.271747085E0,-1.728545070E0,1.038745761E0,1.959292591E-1
9.280912606E0,-1.582399845E0,3.446705639E-1,1.754658818E-1
9.290065418E0,-1.618745208E0,2.626643144E-2,2.677038014E-1
9.299205470E0,-1.636917949E0,-2.292204350E-1,2.892361879E-1
9.308370991E0,-1.445417285E0,-7.991409302E-1,2.279987335E-1
9.317523751E0,-1.255901933E0,-1.292094707E0,2.993151546E-1
9.326663804E0,-1.218029380E0,-1.414874911E0,4.957025647E-1
9.335829324E0,-1.252694964E0,-1.249335408E0,6.241331697E-1
9.344982137E0,-1.274227381E0,-1.030652046E0,6.012263894E-1
9.354122137E0,-1.265675545E0,-8.107470274E-1,4.503471553E-1
9.363287710E0,-1.243837714E0,-6.065713167E-1,2.554868758E-1
9.372440470E0,-1.251473308E0,-3.727695346E-1,8.567132801E-2
9.381593283E0,-1.268729806E0,-9.605573118E-2,-5.268557742E-2
9.390746043E0,-1.250557065E0,1.378987730E-1,-1.701209545E-1
9.399898856E0,-1.217265844E0,2.521272004E-1,-2.750339806E-1
9.409051616E0,-1.201383829E0,4.350759685E-1,-3.257342875E-1
9.418204429E0,-1.202605486E0,7.075138092E-1,-3.069507480E-1
9.427357189E0,-1.240019917E0,9.378032684E-1,-2.652604282E-1
9.436510001E0,-1.330730796E0,1.160151601E0,-2.415900975E-1
9.445662762E0,-1.380362034E0,1.321568012E0,-2.195995897E-1
9.454815574E0,-1.377460599E0,1.462062955E0,-1.921114624E-1
9.463968335E0,-1.393189907E0,1.561020136E0,-1.739387512E-1
9.473121095E0,-1.395785928E0,1.571251869E0,-1.647760421E-1
9.482273908E0,-1.406170368E0,1.558576822E0,-1.679829955E-1
9.491426720E0,-1.427702785E0,1.563921690E0,-1.821851879E-1
9.500579481E0,-1.424037695E0,1.564532518E0,-1.876828223E-1
9.509732241E0,-1.433811188E0,1.563310862E0,-1.754658818E-1
9.518885054E0,-1.464811683E0,1.570488334E0,-1.556133330E-1
9.528037814E0,-1.515970230E0,1.496423125E0,-1.553079188E-1
9.537190626E0,-1.535670042E0,1.296065211E0,-1.889045089E-1
9.546343387E0,-1.485427856E0,1.081505060E0,-2.334963679E-1
9.555496199E0,-1.438239813E0,9.845330715E-1,-2.625116110E-1
9.564648960E0,-1.402199864E0,9.507837296E-1,-2.615953386E-1
9.573801772E0,-1.376849771E0,9.364288449E-1,-2.612899244E-1
9.582954533E0,-1.412737012E0,9.700254202E-1,-2.866400778E-1
9.592107345E0,-1.447249889E0,9.758284688E-1,-3.185568452E-1
9.601260106E0,-1.411362648E0,9.739959836E-1,-3.367295563E-1
9.610412918E0,-1.349208832E0,9.825478196E-1,-3.350497186E-1
9.619565679E0,-1.312863469E0,1.048824787E0,-3.391729295E-1
9.628718491E0,-1.314085126E0,1.137244940E0,-3.794888556E-1
9.637871251E0,-1.307976723E0,1.176186442E0,-4.393518865E-1
9.647024064E0,-1.247350097E0,1.165343881E0,-4.743228853E-1
9.656176824E0,-1.203369141E0,1.237118363E0,-5.002838969E-1
9.665329585E0,-1.202911019E0,1.414569497E0,-5.529694557E-1
9.674482397E0,-1.223527074E0,1.469087601E0,-6.148177385E-1
9.683635210E0,-1.240936160E0,1.306296825E0,-6.526902914E-1
9.692787970E0,-1.199704051E0,1.091889501E0,-6.607840061E-1
9.701940731E0,-1.129914761E0,9.413156509E-1,-6.491779089E-1
9.711093543E0,-1.043937922E0,8.305995464E-1,-6.314633489E-1
9.720246304E0,-9.523108602E-1,7.049177289E-1,-6.093201637E-1
9.729399116E0,-8.932114244E-1,5.712949038E-1,-5.966450572E-1
9.738551876E0,-8.803836107E-1,4.346178174E-1,-5.841227174E-1
9.747704689E0,-8.948912621E-1,3.219164908E-1,-5.604523420E-1
9.756857449E0,-9.271134138E-1,2.832804024E-1,-5.581616759E-1
9.766010262E0,-9.263498783E-1,2.568612695E-1,-5.581616759E-1
9.775163022E0,-9.039012194E-1,2.141019702E-1,-5.364766121E-1
9.784315835E0,-8.955020905E-1,1.522536725E-1,-4.931064546E-1
9.793468595E0,-8.753440976E-1,7.345438004E-2,-4.446968138E-1
9.802621408E0,-8.266290426E-1,1.985253533E-3,-4.246915579E-1
9.811774168E0,-7.429429889E-1,9.926267900E-3,-4.326325655E-1
9.820926981E0,-6.216897964E-1,1.172826737E-1,-4.489727318E-1
9.830079741E0,-4.648547769E-1,2.243336588E-1,-4.283566475E-1
9.839232554E0,-2.480039895E-1,2.730487287E-1,-3.549022675E-1
9.848372554E0,6.184828654E-2,2.426590770E-1,-2.658712566E-1
9.857538126E0,4.234698713E-1,7.620319724E-2,-1.498102844E-1
9.866690887E0,7.849387527E-1,-1.692046970E-1,-1.679830020E-3
9.875843647E0,1.155570269E0,-3.921639323E-1,1.446180940E-1
9.884996460E0,1.543152928E0,-6.453601122E-1,2.641914487E-1
9.894149220E0,1.925696015E0,-9.307785034E-1,3.306210935E-1
9.903302033E0,2.291746140E0,-1.124875188E0,3.199312389E-1
9.912454793E0,2.601751089E0,-1.106397152E0,2.774773538E-1
9.921607606E0,2.827611923E0,-7.812736630E-1,2.800734639E-1
9.930760366E0,2.994525909E0,-3.967452943E-1,3.622324169E-1
9.939913179E0,3.089207411E0,-3.104631305E-1,5.259394646E-1
9.949065939E0,3.075310469E0,-5.343386531E-1,7.806627750E-1
9.958205991E0,2.932066917E0,-8.402203918E-1,1.054016948E0
9.967371512E0,2.783630848E0,-1.086697221E0,1.278961420E0
9.976524324E0,2.746980190E0,-1.342795014E0,1.437781692E0
9.985664324E0,2.807759523E0,-1.565907001E0,1.510319829E0
9.994829897E0,2.881977320E0,-1.714190125E0,1.501767993E0
1.000398266E1,2.932066917E0,-1.923863411E0,1.460230350E0
1.001312271E1,2.948559761E0,-2.228370905E0,1.405101418E0
1.002228823E1,2.929623365E0,-2.569987059E0,1.312252641E0
1.003144104E1,2.887780428E0,-2.777369738E0,1.154654026E0
1.004058104E1,2.866095304E0,-2.805163383E0,9.651386738E-1
1.004974662E1,2.866248131E0,-2.737206459E0,7.733326554E-1
1.005889938E1,2.885184288E0,-2.522646427E0,6.256603003E-1
1.006803943E1,2.907480240E0,-2.006938696E0,5.503733754E-1
1.007720495E1,2.921529770E0,-1.417623758E0,5.285356045E-1
1.008635776E1,2.896790504E0,-8.585458398E-1,5.352548957E-1
1.009549776E1,2.827306509E0,-3.939964771E-1,5.515950918E-1
1.010466328E1,2.698112249E0,-8.674030751E-2,5.754181147E-1
1.011381610E1,2.524937153E0,6.291726977E-2,5.711421967E-1
1.012295615E1,2.368712902E0,1.191152185E-1,5.175403357E-1
1.013212167E1,2.253720999E0,1.120904684E-1,4.427115619E-1
1.014127443E1,2.173547268E0,3.084778599E-2,3.518480062E-1
1.015041448E1,2.101161957E0,-1.015533581E-1,2.713688910E-1
1.015958000E1,2.011672735E0,-2.712161839E-1,2.049392611E-1
1.016873281E1,1.891641259E0,-4.753918648E-1,1.212531775E-1
1.017788557E1,1.763821483E0,-6.766660213E-1,2.092151903E-2
1.018703839E1,1.633558273E0,-8.200624585E-1,-5.558710173E-2
1.019619115E1,1.494437814E0,-9.119949341E-1,-8.460234851E-2
1.020534396E1,1.336381078E0,-9.610154629E-1,-6.306997687E-2
1.021449672E1,1.162595034E0,-9.750649333E-1,-4.352286831E-2
1.022364953E1,9.694145918E-1,-9.342908859E-1,-4.688252881E-2
1.023280229E1,7.634063363E-1,-8.443436027E-1,-6.612421572E-2
1.024195511E1,5.628957748E-1,-7.429429889E-1,-9.132166207E-2
1.025110787E1,3.924693763E-1,-6.198572516E-1,-1.102579311E-1
1.026026068E1,2.322746664E-1,-4.935645759E-1,-1.206423342E-1
1.026941344E1,6.734590977E-2,-3.846810758E-1,-1.133121699E-1
1.027856625E1,-9.956810623E-2,-2.776300907E-1,-8.597674966E-2
1.028771901E1,-2.661767006E-1,-1.873773932E-1,-6.154286116E-2
1.029687182E1,-4.308000207E-1,-1.140757278E-1,-4.443913698E-2
1.030602459E1,-5.829010010E-1,3.817795310E-3,-3.833066672E-2
1.031516464E1,-7.200362086E-1,1.771457046E-1,-4.611896724E-2
1.032433016E1,-8.561024070E-1,3.811686933E-1,-5.451811850E-2
1.033348297E1,-9.982771277E-1,5.593833923E-1,-4.581354558E-2
1.034263573E1,-1.145033240E0,6.815528274E-1,-2.076880634E-2
1.035178849E1,-1.286291599E0,7.478297353E-1,5.650337320E-3
1.036094130E1,-1.418387294E0,6.920899153E-1,2.550287358E-2
1.037009406E1,-1.535059214E0,5.558710098E-1,4.199574888E-2
1.037924688E1,-1.566517830E0,3.610107303E-1,2.412846684E-2
1.038839964E1,-1.415180445E0,2.695363462E-1,1.985253533E-3
1.039753969E1,-1.188097954E0,5.476245880E-1,-4.963133857E-2
1.040670521E1,-9.399412274E-1,9.443698525E-1,-8.780929446E-2
1.041585802E1,-9.145910740E-1,7.240067124E-1,-8.215895295E-2
1.042499802E1,-1.073869467E0,-6.474980712E-2,-1.247655526E-1
1.043416360E1,-1.452442050E0,-3.257342875E-1,-1.461452097E-1
1.044331636E1,-1.907828689E0,2.188360244E-1,7.177455351E-3
1.045245641E1,-1.867207408E0,6.748335361E-1,2.299840003E-1
1.046162193E1,-1.568350315E0,7.052231431E-1,3.396310806E-1
1.047077474E1,-1.485427856E0,6.650599241E-1,3.536805511E-1
1.047991474E1,-1.547734261E0,5.758762360E-1,3.826957941E-1
1.048908031E1,-1.721825719E0,4.450022280E-1,4.382829070E-1
1.049823307E1,-1.899276853E0,2.151709497E-1,4.842491746E-1
1.050737313E1,-1.954863906E0,-6.200099736E-2,4.918847680E-1
1.051653865E1,-1.850103617E0,-4.584408700E-1,4.508052766E-1
1.052569146E1,-1.693115830E0,-8.386932611E-1,4.124746025E-1
1.053483146E1,-1.572015405E0,-1.000720501E0,3.891097009E-1
1.054399703E1,-1.434422135E0,-1.071578860E0,3.710896969E-1
1.055314979E1,-1.287818789E0,-1.131136417E0,3.436015844E-1
1.056228984E1,-1.189014196E0,-9.852966070E-1,2.915268540E-1
1.057145537E1,-1.128845692E0,-7.101099491E-1,2.362451702E-1
1.058060813E1,-1.085628271E0,-3.860554695E-1,1.563768983E-1
1.058974818E1,-1.063943267E0,-1.053711493E-2,4.138490185E-2
1.059891370E1,-1.066539288E0,3.457395434E-1,-9.086353332E-2
1.060806651E1,-1.081505060E0,7.224795818E-1,-2.341072112E-1
1.061721927E1,-1.119988441E0,1.128234863E0,-3.145863414E-1
1.062637208E1,-1.164122105E0,1.447555304E0,-3.054236174E-1
1.063552490E1,-1.175881028E0,1.644095421E0,-2.768665254E-1
1.064467766E1,-1.170688748E0,1.844758749E0,-2.874036431E-1
1.065383042E1,-1.192984700E0,2.051377773E0,-2.901524603E-1
1.066298323E1,-1.174506545E0,2.111088037E0,-2.779355049E-1
1.067212323E1,-1.105022669E0,2.062525749E0,-2.693836391E-1
1.068128880E1,-1.050504565E0,1.973342061E0,-2.609844804E-1
1.069044156E1,-1.033248186E0,1.814979911E0,-2.467822880E-1
1.069958162E1,-1.023474574E0,1.623326540E0,-2.507528067E-1
1.070874714E1,-1.021031141E0,1.415943980E0,-2.689255178E-1
1.071789995E1,-1.040578246E0,1.199551344E0,-3.061871827E-1
1.072705271E1,-1.079825282E0,1.123958945E0,-3.419217467E-1
1.073620552E1,-1.116781473E0,1.138313890E0,-3.616215885E-1
1.074535828E1,-1.126860499E0,1.156944752E0,-3.660502136E-1
1.075451110E1,-1.145796776E0,1.229177356E0,-3.771981895E-1
1.076366386E1,-1.143658757E0,1.267202616E0,-3.845283389E-1
1.077281667E1,-1.157708287E0,1.318361044E0,-3.791834414E-1
1.078196943E1,-1.192221165E0,1.371962905E0,-3.623851240E-1
1.079112224E1,-1.179393291E0,1.374406338E0,-3.512371778E-1
1.080027500E1,-1.129914761E0,1.292552829E0,-3.477247953E-1
1.080942781E1,-1.094180107E0,1.155112147E0,-3.620797098E-1
1.081858057E1,-1.085475564E0,1.035691500E0,-4.004103839E-1
1.082773334E1,-1.086697221E0,9.898779988E-1,-4.376720488E-1
1.083688615E1,-1.052489877E0,1.028361320E0,-4.556920528E-1
1.084603891E1,-9.804098606E-1,1.091736794E0,-4.546230733E-1
1.085519172E1,-9.442171454E-1,1.110520363E0,-4.593571424E-1
1.086434448E1,-9.741486907E-1,9.471186996E-1,-4.776825607E-1
1.087349729E1,-1.045159698E0,7.733326554E-1,-4.995203316E-1
1.088265005E1,-1.090056896E0,7.707365155E-1,-5.370874405E-1
1.089180287E1,-1.066691995E0,8.783983588E-1,-5.741963983E-1
1.090095563E1,-1.009272337E0,8.783983588E-1,-5.963396430E-1
1.091010844E1,-9.715525508E-1,7.218687534E-1,-5.960342288E-1
1.091926120E1,-9.703308940E-1,5.109737515E-1,-5.897729993E-1
1.092841401E1,-9.492566586E-1,3.475720882E-1,-5.955760479E-1
1.093756677E1,-9.095515609E-1,2.794626355E-1,-6.258130074E-1
1.094671958E1,-8.829796910E-1,2.589992285E-1,-6.403206587E-1
1.095587235E1,-8.389987350E-1,2.374668717E-1,-6.252021790E-1
1.096502516E1,-7.727217674E-1,1.995943487E-1,-6.204680800E-1
1.097417792E1,-6.957550049E-1,1.322484314E-1,-5.966450572E-1
1.098333073E1,-5.748072863E-1,3.726168349E-2,-5.737382770E-1
1.099248349E1,-4.399627447E-1,-2.809897438E-2,-5.783196688E-1
1.100163630E1,-2.832804024E-1,-1.893626526E-2,-6.015318632E-1
1.101078906E1,-7.070557028E-2,6.749862432E-2,-6.038225293E-1
1.101994182E1,1.976090819E-1,6.642963737E-2,-5.170822144E-1
1.102909464E1,5.199837089E-1,-6.383354217E-2,-3.949127495E-1
1.103824740E1,8.657232523E-1,-1.870719790E-1,-2.849602401E-1
1.104740021E1,1.238034725E0,-2.831276953E-1,-2.145601064E-1
1.105655297E1,1.604084849E0,-4.187358022E-1,-1.947075576E-1
1.106570578E1,1.940509081E0,-6.821636558E-1,-2.141019702E-1
1.107485854E1,2.222262383E0,-9.529217482E-1,-2.131856978E-1
1.108399860E1,2.430408478E0,-1.030804753E0,-1.805053651E-1
1.109316412E1,2.600987673E0,-8.367080092E-1,-1.104106456E-1
1.110231693E1,2.729112864E0,-3.729222417E-1,-2.870982140E-2
1.111146969E1,2.797222376E0,2.212794125E-1,9.727742523E-2
1.112062250E1,2.799207449E0,5.276193023E-1,3.046600819E-1
1.112977526E1,2.744078636E0,3.426853120E-1,6.242858768E-1
1.113891531E1,2.652451515E0,-2.134911120E-1,1.013090134E0
1.114808084E1,2.588770628E0,-1.003927469E0,1.412584305E0
1.115723365E1,2.667569876E0,-1.902178407E0,1.720298648E0
1.116637365E1,2.881671906E0,-2.674747467E0,1.827960372E0
1.117553922E1,3.116084576E0,-3.157927513E0,1.736638784E0
1.118469198E1,3.250012875E0,-3.426547766E0,1.536280870E0
1.119383203E1,3.262993336E0,-3.593919754E0,1.300188422E0
1.120299755E1,3.213820219E0,-3.558032513E0,1.059819937E0
1.121215037E1,3.204351902E0,-3.286052942E0,8.359444737E-1
1.122129037E1,3.279486179E0,-2.809133768E0,6.878139973E-1
1.123045594E1,3.378748894E0,-2.128344536E0,5.951179266E-1
1.123960870E1,3.415246964E0,-1.295148849E0,5.526640415E-1
1.124874875E1,3.361034393E0,-5.323534012E-1,5.529694557E-1
1.125791427E1,3.229549408E0,1.148392856E-1,5.766398311E-1
1.126706703E1,3.081418991E0,6.106945276E-1,6.137487888E-1
1.127620709E1,2.956195354E0,8.889354467E-1,6.401679516E-1
1.128537261E1,2.835552931E0,9.165763259E-1,6.783458591E-1
1.129452542E1,2.719644785E0,6.972821355E-1,7.233958840E-1
1.130366542E1,2.585563660E0,3.066453338E-1,7.172874212E-1
1.131283099E1,2.473931313E0,-1.417165697E-1,6.520794630E-1
1.132198375E1,2.414984703E0,-5.361711979E-1,5.609105229E-1
1.133113656E1,2.396506548E0,-8.397622705E-1,4.621059597E-1
1.134028932E1,2.380777121E0,-1.030499339E0,3.553603888E-1
1.134944214E1,2.333436489E0,-1.209477544E0,2.391466945E-1
1.135858214E1,2.250666618E0,-1.399909258E0,1.195733473E-1
1.136774771E1,2.088334084E0,-1.488940239E0,4.825693369E-2
1.137690047E1,1.896833420E0,-1.469087601E0,-2.214321308E-2
1.138604052E1,1.638903141E0,-1.356997132E0,-5.528167635E-2
1.139520604E1,1.330578089E0,-1.148851037E0,-3.130592033E-2
1.140435886E1,1.066233873E0,-8.852704167E-1,-1.924168877E-2
1.141349886E1,8.448017836E-1,-6.519267559E-1,-3.695625812E-2
1.142266443E1,6.384881139E-1,-4.582881629E-1,-5.986303091E-2
1.143181719E1,4.540122151E-1,-2.779355049E-1,-8.322793990E-2
1.144097000E1,2.958027720E-1,-8.658760041E-2,-1.039967462E-1
1.145012276E1,1.514901221E-1,1.288887709E-1,-9.972081333E-2
1.145927557E1,8.093725890E-3,3.054236174E-1,-7.162184268E-2
1.146842834E1,-1.522536725E-1,3.758237660E-1,-3.115320951E-2
1.147758110E1,-3.310792148E-1,3.593308926E-1,1.832541777E-3
1.148673391E1,-5.105155706E-1,2.832804024E-1,2.626643144E-2
1.149587396E1,-6.062659025E-1,1.630962193E-1,2.809897438E-2
1.150503948E1,-6.082511544E-1,4.321744293E-2,3.176405653E-2
1.151419224E1,-6.232169271E-1,-9.926267900E-3,2.321219631E-2
1.152333229E1,-6.887302995E-1,2.305948362E-2,3.817795310E-3
1.153249781E1,-7.464553714E-1,9.620844387E-3,-1.267508045E-2
1.154165063E1,-7.760814428E-1,2.641914412E-2,-2.382304333E-2
1.155079063E1,-8.090671897E-1,2.005106062E-1,-3.084778599E-2
1.155995620E1,-9.726215601E-1,5.824428797E-1,-4.520269856E-2
1.156910896E1,-1.286749721E0,5.607577562E-1,-6.627693027E-2
1.157824901E1,-1.553537250E0,-2.267770469E-1,-5.482354015E-2
1.158741453E1,-1.762294292E0,-8.635852933E-1,8.597674966E-2
1.159656734E1,-1.924779654E0,-9.518527389E-1,3.487937748E-1
1.160570734E1,-1.898513317E0,-4.815003574E-1,6.038225293E-1
1.161487292E1,-1.777412772E0,2.909159958E-1,6.601731777E-1
1.162402568E1,-1.756338596E0,7.316423059E-1,5.580089688E-1
1.163316573E1,-1.705638289E0,7.053758502E-1,4.362976551E-1
1.164233125E1,-1.661046386E0,5.386145711E-1,3.141281903E-1
1.165148406E1,-1.679219127E0,2.683146596E-1,2.200577259E-1
1.166062406E1,-1.648371339E0,2.281514555E-1,2.788517773E-1
1.166978964E1,-1.490772724E0,2.560977042E-1,4.405735731E-1
1.167894240E1,-1.370130420E0,3.985778391E-1,5.806103349E-1
1.168808245E1,-1.340656996E0,4.656183124E-1,6.247440577E-1
1.169724797E1,-1.354095697E0,3.503209054E-1,5.740436912E-1
1.170640073E1,-1.351804972E0,1.232384369E-1,4.827220440E-1
1.171554078E1,-1.343863964E0,-8.674030751E-2,3.655920923E-1
1.172470630E1,-1.322331548E0,-2.927485406E-1,2.249445021E-1
1.173385912E1,-1.300799251E0,-3.703261614E-1,1.029277667E-1
1.174299912E1,-1.273616552E0,-3.507790267E-1,2.611372061E-2
1.175216469E1,-1.258956194E0,-1.797417998E-1,4.734066315E-3
1.176131745E1,-1.249029875E0,2.886253223E-2,8.399149403E-3
1.177045750E1,-1.246128440E0,1.620272398E-1,2.351761982E-2
1.177962302E1,-1.258192658E0,3.382566571E-1,5.085303262E-2
1.178877584E1,-1.270409584E0,5.383091569E-1,5.238015205E-2
1.179792860E1,-1.271631241E0,7.640172243E-1,2.168507688E-2
1.180708141E1,-1.279877663E0,1.028514028E0,-3.237490356E-2
1.181623417E1,-1.270256877E0,1.205965161E0,-8.857285231E-2
1.182538698E1,-1.236660242E0,1.258345366E0,-1.299577504E-1
1.183453974E1,-1.228413820E0,1.339435339E0,-1.947075576E-1
1.184369255E1,-1.252084136E0,1.475196123E0,-2.858765125E-1
1.185284531E1,-1.345085621E0,1.788102627E0,-3.778090179E-1
1.186199813E1,-1.499782681E0,2.044811249E0,-4.474456310E-1
1.187115089E1,-1.593853235E0,2.071230412E0,-4.474456310E-1
1.188029094E1,-1.648524046E0,2.045422077E0,-4.020902216E-1
1.188945646E1,-1.687770963E0,1.947686434E0,-4.083513916E-1
1.189860922E1,-1.706859946E0,1.694337606E0,-4.578300118E-1
1.190776203E1,-1.687465549E0,1.448471546E0,-4.599680007E-1
1.191691479E1,-1.678302884E0,1.313627005E0,-4.530959427E-1
1.192606761E1,-1.648982167E0,1.212989926E0,-4.674508572E-1
1.193522037E1,-1.662726283E0,1.156944752E0,-4.625640810E-1
1.194437318E1,-1.700293303E0,1.080283403E0,-4.634803534E-1
1.195352594E1,-1.762294292E0,1.060736299E0,-4.943281412E-1
1.196267875E1,-1.823684454E0,1.140146375E0,-5.308262706E-1
1.197183151E1,-1.848576546E0,1.297286868E0,-5.335750580E-1
1.198098432E1,-1.804900885E0,1.456565261E0,-5.376983285E-1
1.199013708E1,-1.763516068E0,1.528034449E0,-5.801522136E-1
1.199928990E1,-1.793753028E0,1.563310862E0,-6.452074051E-1
1.200844266E1,-1.843384266E0,1.621494055E0,-6.974348426E-1
1.201759547E1,-1.825517058E0,1.715411782E0,-7.194253802E-1
1.202674823E1,-1.714037418E0,1.781994224E0,-7.046123147E-1
1.203590104E1,-1.566365123E0,1.731599212E0,-6.870504618E-1
1.204505380E1,-1.477028728E0,1.525743723E0,-6.875085831E-1
1.205420656E1,-1.387692213E0,1.169772506E0,-6.884248853E-1
1.206335938E1,-1.256665468E0,8.848122358E-1,-7.262973785E-1
1.207251214E1,-1.144269586E0,7.426375747E-1,-7.463026643E-1
1.208166495E1,-1.052795291E0,6.247440577E-1,-7.241594195E-1
1.209081771E1,-9.449806809E-1,4.853181541E-1,-6.890357137E-1
1.209997052E1,-8.567132950E-1,3.813214004E-1,-6.597150564E-1
1.210912328E1,-7.895200849E-1,2.162399292E-1,-6.407787800E-1
1.211827610E1,-7.188144922E-1,1.122431830E-1,-6.322268844E-1
1.212742886E1,-6.430694461E-1,1.635543555E-1,-6.061131954E-1
1.213658167E1,-5.489989519E-1,2.489202619E-1,-5.871769190E-1
1.214573443E1,-4.665345848E-1,2.658712566E-1,-5.938962698E-1
1.215488724E1,-3.970507085E-1,1.496575773E-1,-6.055023670E-1
1.216404000E1,-3.148917556E-1,-5.405998230E-2,-6.305471063E-1
1.217319281E1,-1.997470558E-1,-2.999260128E-1,-6.722373962E-1
1.218233281E1,-2.916795574E-2,-4.816530645E-1,-6.995728016E-1
1.219149839E1,1.924168915E-1,-5.241069198E-1,-6.809419990E-1
1.220065115E1,4.743228853E-1,-4.396573007E-1,-6.381826997E-1
1.220979120E1,8.238802552E-1,-2.701472044E-1,-5.716003180E-1
1.221895672E1,1.215127945E0,-1.713426560E-1,-4.486673176E-1
1.222810948E1,1.590035439E0,-2.359397560E-1,-3.084778786E-1
1.223726229E1,1.929208398E0,-3.855973184E-1,-1.887518018E-1
1.224641511E1,2.221651554E0,-5.360184908E-1,-8.826743066E-2
1.225556787E1,2.457133055E0,-6.413896084E-1,-2.305948362E-2
1.226470792E1,2.615189791E0,-6.245913506E-1,3.985778242E-2
1.227387344E1,2.712467194E0,-5.396835804E-1,1.692046970E-1
1.228302620E1,2.802567244E0,-6.459710002E-1,3.862081766E-1
1.229216625E1,2.905800343E0,-9.460496902E-1,6.502469182E-1
1.230133177E1,2.950086832E0,-1.099372387E0,8.606837988E-1
1.231048459E1,2.944131136E0,-1.075854778E0,1.016449809E0
1.231962459E1,2.927027464E0,-1.093416572E0,1.178018928E0
1.232879016E1,2.937258959E0,-1.281252146E0,1.351804972E0
1.233794292E1,2.978643894E0,-1.478555799E0,1.452289343E0
1.234709573E1,3.012240648E0,-1.796654463E0,1.435643792E0
1.235624849E1,3.008728266E0,-2.045880079E0,1.349667072E0
1.236540130E1,2.975284338E0,-2.050614357E0,1.238340139E0
1.237454130E1,2.967801332E0,-1.976396322E0,1.117392302E0
1.238370688E1,2.981240034E0,-1.907523274E0,9.946120381E-1
1.239285964E1,2.997732878E0,-1.778481841E0,8.816053271E-1
1.240199969E1,3.013462305E0,-1.419456363E0,8.229639530E-1
1.241116521E1,3.021403313E0,-9.193251133E-1,8.116632700E-1
1.242031802E1,2.974673510E0,-4.422534108E-1,8.006680608E-1
1.242945802E1,2.855710983E0,-8.093725890E-2,7.762341499E-1
1.243862360E1,2.708954811E0,1.356080920E-1,7.525638342E-1
1.244777636E1,2.597017050E0,1.801999360E-1,7.547017932E-1
1.245691641E1,2.527685881E0,1.612636745E-1,7.444701195E-1
1.246608193E1,2.469655514E0,1.785201132E-1,7.136223316E-1
1.247523469E1,2.447664976E0,-1.443126649E-1,7.661551833E-1
1.248437474E1,2.422162056E0,-5.366293192E-1,7.753179073E-1
1.249354026E1,2.349776745E0,-8.370134830E-1,7.110261917E-1
1.250269307E1,2.236464500E0,-1.020725727E0,6.352811456E-1
1.251183313E1,2.110935450E0,-1.122126460E0,5.042544007E-1
1.252099865E1,1.986017108E0,-1.169619799E0,3.947600424E-1
1.253015141E1,1.843078852E0,-1.199704051E0,3.199312389E-1
1.253930422E1,1.685785770E0,-1.236354828E0,2.535016239E-1
1.254845698E1,1.537807941E0,-1.269340634E0,2.053973973E-1
1.255760979E1,1.356233597E0,-1.235896707E0,1.974563748E-1
1.256676255E1,1.139077425E0,-1.135565042E0,2.012741715E-1
1.257591537E1,9.261971712E-1,-9.955283403E-1,2.235700935E-1
1.258506813E1,7.377507687E-1,-8.686248064E-1,2.360924631E-1
1.259422094E1,5.741963983E-1,-7.742488980E-1,2.189887464E-1
1.260337370E1,4.063661397E-1,-6.685723066E-1,1.969982386E-1
1.261252651E1,2.229592502E-1,-5.586197972E-1,1.907370538E-1
1.262167927E1,2.397575416E-2,-4.401154518E-1,2.142546773E-1
1.263083209E1,-2.186833173E-1,-3.434488773E-1,2.412846684E-1
1.263998484E1,-4.828747511E-1,-2.437280566E-1,2.606790662E-1
1.264913766E1,-7.149966955E-1,-1.206423342E-1,2.663294077E-1
1.265829042E1,-8.913788795E-1,2.977880463E-2,2.533488870E-1
1.266744323E1,-9.994988441E-1,2.102841735E-1,2.243336588E-1
1.267659599E1,-1.052031636E0,3.101576865E-1,2.049392611E-1
1.268574875E1,-1.072495103E0,2.528907657E-1,2.035648525E-1
1.269490156E1,-1.075091124E0,5.283828825E-2,2.061609477E-1
1.270405432E1,-1.104869962E0,-6.352811307E-2,2.170034945E-1
1.271320714E1,-1.131441832E0,-7.009471953E-2,2.333436459E-1
1.272235990E1,-1.115101695E0,4.672981426E-2,2.168507725E-1
1.273149995E1,-9.637642503E-1,1.936385781E-1,1.177408099E-1
1.274066547E1,-6.552863717E-1,-4.275930673E-2,-3.939964995E-2
1.274981828E1,-4.161396921E-1,-9.269607067E-1,-7.559234649E-2
1.275895828E1,-4.969242513E-1,-1.580109119E0,-9.009997360E-3
1.276812386E1,-1.181836724E0,-1.315917730E0,3.542914242E-2
1.277727662E1,-2.123457670E0,-1.186570823E-1,2.495311052E-1
1.278641667E1,-2.531198263E0,1.812994719E0,6.641436815E-1
1.279558219E1,-2.441251040E0,3.195800066E0,8.591566682E-1
1.280473500E1,-1.946922898E0,2.931150675E0,6.662816405E-1
1.281387500E1,-1.492910743E0,1.573084354E0,3.486410677E-1
1.282304057E1,-1.548650503E0,6.843016148E-1,2.528907657E-1
1.283219334E1,-1.810703993E0,4.863871336E-1,3.979669809E-1
1.284133339E1,-1.867970943E0,2.195995897E-1,5.112791657E-1
1.285049891E1,-1.643637300E0,5.344913341E-3,4.970769584E-1
1.285965172E1,-1.481915474E0,-1.308740228E-1,4.294256270E-1
1.286879172E1,-1.438239813E0,-4.280512035E-1,3.553603888E-1
1.287795724E1,-1.387539506E0,-7.490514517E-1,2.570139766E-1
1.288711005E1,-1.321262598E0,-8.590039611E-1,1.409530044E-1
1.289625011E1,-1.297439575E0,-7.316423059E-1,3.420744836E-2
1.290541563E1,-1.309656501E0,-4.198047817E-1,-4.321744293E-2
1.291456839E1,-1.317902923E0,-1.149920002E-1,-7.024743408E-2
1.292372120E1,-1.299577594E0,1.207950488E-1,-6.352811307E-2
1.293287396E1,-1.257581830E0,3.179459870E-1,-4.932591692E-2
1.294202677E1,-1.228413820E0,5.722111464E-1,-4.688252881E-2
1.295117953E1,-1.189777732E0,7.934905887E-1,-2.901524492E-2
1.296033235E1,-1.190693974E0,9.425373077E-1,1.160609815E-2
1.296948511E1,-1.205659747E0,1.013853788E0,7.986827940E-2
1.297866453E1,-1.170536041E0,8.993198872E-1,1.748550236E-1
1.298779068E1,-1.151447058E0,7.982246280E-1,2.435753495E-1
1.299694349E1,-1.171757698E0,7.838697433E-1,2.623589039E-1
1.300609625E1,-1.191152096E0,8.330429196E-1,2.237228155E-1
1.301524901E1,-1.214669824E0,9.269607067E-1,1.788255423E-1
1.302440182E1,-1.250709772E0,9.785773158E-1,1.339282542E-1
1.303355459E1,-1.273921967E0,1.047603011E0,8.490777016E-2
1.304270740E1,-1.302173615E0,1.210546613E0,1.679829881E-2
1.305186016E1,-1.301257372E0,1.351194143E0,-5.955760926E-2
1.306101297E1,-1.340046167E0,1.516122937E0,-1.186570823E-1
1.307016573E1,-1.431062460E0,1.659824729E0,-1.669140160E-1
1.307931854E1,-1.498408318E0,1.650967479E0,-2.406738251E-1
1.308845854E1,-1.507418275E0,1.505433083E0,-3.200839758E-1
1.309762412E1,-1.463742733E0,1.345543742E0,-3.941491842E-1
1.310677688E1,-1.427855492E0,1.211004734E0,-4.543176591E-1
1.311592969E1,-1.443890214E0,1.115559816E0,-5.129590034E-1
1.312508245E1,-1.487871170E0,1.006218195E0,-5.509842038E-1
1.313423526E1,-1.521467805E0,9.078717232E-1,-5.413633585E-1
1.314338802E1,-1.500393629E0,9.497147799E-1,-5.205945969E-1
1.315254084E1,-1.434727550E0,1.067302823E0,-5.366293192E-1
1.316169360E1,-1.376086116E0,1.143658757E0,-5.821374655E-1
1.317084636E1,-1.397465825E0,1.151294351E0,-6.433748603E-1
1.317999917E1,-1.463284612E0,1.228566527E0,-7.030851841E-1
1.318915193E1,-1.500851750E0,1.311641812E0,-7.266027927E-1
1.319830474E1,-1.408155680E0,1.355775476E0,-7.290462255E-1
1.320745750E1,-1.237118363E0,1.533226609E0,-7.175928354E-1
1.321661031E1,-1.155875683E0,1.680898905E0,-7.281299233E-1
1.322576307E1,-1.166718245E0,1.533684731E0,-7.805100679E-1
1.323491589E1,-1.168092728E0,1.247808218E0,-8.316685557E-1
1.324406865E1,-1.100746751E0,9.298622608E-1,-8.199097514E-1
1.325322146E1,-9.530744553E-1,6.507050395E-1,-7.637118101E-1
1.326237422E1,-8.264763355E-1,4.046863019E-1,-7.180509567E-1
1.327152703E1,-8.276980519E-1,2.443388999E-1,-6.875085831E-1
1.328067979E1,-9.106205702E-1,6.658235192E-2,-6.781931520E-1
1.328983255E1,-9.417737722E-1,-1.792836636E-1,-6.580352187E-1
1.329898537E1,-9.095515609E-1,-3.347443044E-1,-6.638382673E-1
1.330813813E1,-8.683193922E-1,-3.101576865E-1,-7.124006152E-1
1.331729094E1,-8.307522535E-1,-3.046600819E-1,-7.127060294E-1
1.332644370E1,-7.540909648E-1,-3.591781855E-1,-6.595623493E-1
1.333559651E1,-6.771242023E-1,-3.703261614E-1,-6.285618544E-1
1.334474927E1,-6.126797795E-1,-3.306210935E-1,-6.336013079E-1
1.335390209E1,-5.062396526E-1,-2.406738251E-1,-6.433748603E-1
1.336304208E1,-3.029802442E-1,-8.292251825E-2,-6.261184216E-1
1.337220766E1,-2.061609551E-2,8.414421231E-2,-5.448757410E-1
1.338136042E1,3.119902313E-1,1.003316641E-1,-3.794888556E-1
1.339051323E1,6.780404449E-1,1.863084175E-2,-1.881409585E-1
1.339966599E1,1.062874198E0,-7.605048269E-2,-4.001049697E-2
1.340881880E1,1.497644782E0,-3.168770075E-1,-1.603474095E-2
1.341795880E1,1.943257809E0,-5.992411375E-1,-1.305686086E-1
1.342712438E1,2.253873587E0,-5.544965863E-1,-2.272351831E-1
1.343627714E1,2.397881031E0,-1.269035190E-1,-1.911951900E-1
1.344542990E1,2.434837103E0,1.156028435E-1,-1.111742035E-1
1.345458271E1,2.485537529E0,-5.833591148E-2,7.559234649E-2
1.346373547E1,2.575484753E0,-4.937172830E-1,4.112529159E-1
1.347287552E1,2.728196621E0,-9.888089895E-1,7.522584200E-1
1.348204104E1,2.905647755E0,-1.441294074E0,9.810206890E-1
1.349119386E1,3.054541826E0,-1.718466043E0,1.064706802E0
1.350034662E1,3.122651100E0,-1.744885206E0,1.053558826E0
1.350949943E1,3.123261929E0,-1.657839417E0,1.002858520E0
1.351865219E1,3.075768709E0,-1.764279604E0,9.225320816E-1
1.352779224E1,2.956347942E0,-2.072299242E0,8.015843034E-1
1.353695776E1,2.836011171E0,-2.269450188E0,6.751389503E-1
1.354611057E1,2.800581932E0,-2.195079565E0,5.893148780E-1
1.355525057E1,2.856474400E0,-1.808260560E0,5.405998230E-1
1.356441615E1,2.946574450E0,-1.116323352E0,5.193728805E-1
1.357356891E1,2.953293800E0,-4.112529159E-1,5.366293192E-1
1.358270896E1,2.869760513E0,1.701209545E-1,5.581616759E-1
1.359187448E1,2.733541489E0,5.835118294E-1,5.783196688E-1
1.360102729E1,2.586021900E0,7.899782062E-1,6.106945276E-1
1.361018005E1,2.459270954E0,8.273926377E-1,6.623111367E-1
1.361933287E1,2.381082535E0,7.009472251E-1,7.204943299E-1
1.362848563E1,2.339239597E0,4.094203711E-1,7.539382577E-1
1.363762568E1,2.315263748E0,6.200099736E-2,7.272136807E-1
1.364679120E1,2.286248684E0,-2.473931462E-1,6.673506498E-1
1.365594396E1,2.217680931E0,-4.724903405E-1,5.894675851E-1
1.366508401E1,2.115516663E0,-6.555918455E-1,5.143333673E-1
1.367424953E1,1.986475229E0,-8.240329623E-1,4.605788291E-1
1.368340235E1,1.834068894E0,-1.003469348E0,4.259132445E-1
1.369254240E1,1.663489819E0,-1.141826272E0,3.863608837E-1
1.370170792E1,1.469545841E0,-1.149003744E0,3.336753249E-1
1.371086068E1,1.275907159E0,-1.101357579E0,2.718270421E-1
1.372001349E1,1.074633002E0,-1.042868972E0,2.043284029E-1
1.372916625E1,8.622109294E-1,-9.735378027E-1,1.533226669E-1
1.373831906E1,6.436802745E-1,-9.011524320E-1,1.078145429E-1
1.374747182E1,4.085040987E-1,-8.600729704E-1,6.642963737E-2
1.375662464E1,1.794363856E-1,-8.545753360E-1,4.214845970E-2
1.376577740E1,-4.443913698E-2,-8.452599049E-1,2.412846684E-2
1.377493021E1,-2.593046725E-1,-7.843278646E-1,6.108472589E-3
1.378408297E1,-4.628695250E-1,-6.948387623E-1,-4.581354558E-3
1.379323578E1,-6.737645268E-1,-6.180247068E-1,-1.832541777E-3
1.380238854E1,-8.799254894E-1,-4.561502039E-1,2.580829710E-2
1.381154136E1,-1.067608237E0,-1.719534993E-1,7.009471953E-2
1.382069412E1,-1.230857253E0,1.551551968E-1,9.071081877E-2
1.382983417E1,-1.361425877E0,3.616215885E-1,8.842013776E-2
1.383899969E1,-1.474432588E0,3.862081766E-1,8.887827396E-2
1.384815250E1,-1.651578307E0,4.123218954E-1,6.062658876E-2
1.385730526E1,-1.793600321E0,5.790832043E-1,-7.360709459E-2
1.386645807E1,-1.635085344E0,1.016602516E0,-3.017585576E-1
1.387561084E1,-1.240783453E0,1.351346850E0,-5.274665952E-1
1.388475089E1,-1.109604001E0,5.978667736E-1,-4.888305068E-1
1.389391641E1,-1.663184404E0,-5.465555787E-1,-4.301891923E-1
1.390306922E1,-2.578233480E0,-6.360446811E-1,-3.034383655E-1
1.391220922E1,-3.065689564E0,8.470924497E-1,2.299840003E-1
1.392137479E1,-2.592893839E0,2.160719395E0,6.879667044E-1
1.393052755E1,-2.112004280E0,2.550287247E0,7.185090780E-1
1.393966761E1,-1.771762490E0,1.841704488E0,4.326325655E-1
1.394883313E1,-1.380362034E0,3.058817685E-1,3.203893900E-1
1.395798594E1,-1.259872437E0,-4.894413650E-1,4.465293586E-1
1.396712594E1,-1.393648028E0,-6.093201637E-1,5.427377820E-1
1.397629151E1,-1.491536260E0,-8.054021001E-1,4.889832437E-1
1.398544427E1,-1.460383058E0,-1.011410356E0,3.813214004E-1
1.399458432E1,-1.441294074E0,-1.050657272E0,3.362714052E-1
1.400374985E1,-1.452594757E0,-9.506310225E-1,3.385621011E-1
1.401290266E1,-1.423274159E0,-8.446490765E-1,3.057290614E-1
1.402204266E1,-1.362800241E0,-7.543963790E-1,2.443388999E-1
1.403120823E1,-1.329050899E0,-5.407525301E-1,1.375933439E-1
1.404036099E1,-1.312252641E0,-2.237228155E-1,4.428642802E-3
1.404950104E1,-1.291025639E0,8.383878320E-2,-1.032331884E-1
1.405866656E1,-1.275754452E0,3.373403847E-1,-1.606528312E-1
1.406781938E1,-1.304769754E0,6.175665855E-1,-1.678302884E-1
1.407697214E1,-1.358982444E0,8.845068216E-1,-1.524063945E-1
1.408612495E1,-1.398534775E0,1.097234368E0,-1.218640283E-1
1.409527771E1,-1.409682751E0,1.314695954E0,-1.262926757E-1
1.410443052E1,-1.397313118E0,1.516428351E0,-1.495048702E-1
1.411358328E1,-1.411362648E0,1.654479742E0,-1.675248593E-1
1.412273610E1,-1.443279386E0,1.736791492E0,-2.075353563E-1
1.413188886E1,-1.480846524E0,1.840635538E0,-2.878617644E-1
1.414104167E1,-1.518413544E0,1.936080337E0,-3.504736125E-1
1.415019443E1,-1.544374585E0,1.952267885E0,-3.726168275E-1
1.415934724E1,-1.554453611E0,1.914853454E0,-3.854446113E-1
1.416850000E1,-1.559493065E0,1.867818236E0,-4.062134326E-1
1.417765281E1,-1.554606318E0,1.811620235E0,-4.353813827E-1
1.418680557E1,-1.549414039E0,1.803068399E0,-4.610369802E-1
1.419595839E1,-1.559340358E0,1.881867647E0,-4.917320311E-1
1.420511115E1,-1.552773714E0,1.933026195E0,-5.216635466E-1
1.421426396E1,-1.550788522E0,1.938829184E0,-5.661026835E-1
1.422341677E1,-1.575680494E0,1.922183633E0,-6.488724947E-1
1.423256953E1,-1.608208179E0,1.962041378E0,-7.601994276E-1
1.424172235E1,-1.607902646E0,2.024653196E0,-8.108997345E-1
1.425087511E1,-1.572626233E0,2.086043358E0,-8.205205798E-1
1.426002792E1,-1.507418275E0,2.094595194E0,-8.247964978E-1
1.426916792E1,-1.463437319E0,1.937912941E0,-8.452599049E-1
1.427833349E1,-1.457481503E0,1.676470280E0,-8.284615874E-1
1.428748625E1,-1.458092451E0,1.461604834E0,-7.863131166E-1
1.429663906E1,-1.386165142E0,1.307518601E0,-7.484406233E-1
1.430579182E1,-1.256512761E0,1.195275426E0,-6.954495907E-1
1.431494464E1,-1.120141149E0,1.002400398E0,-6.070294380E-1
1.432409740E1,-1.005149126E0,7.000309825E-1,-4.753918648E-1
1.433325021E1,-9.584193230E-1,3.834593594E-1,-3.788780272E-1
1.434240297E1,-9.429954290E-1,1.575985998E-1,-3.359659910E-1
1.435155578E1,-9.139801860E-1,7.085828483E-2,-3.252761662E-1
1.436070854E1,-8.603783846E-1,1.496575773E-2,-3.193204105E-1
1.436986136E1,-7.876875401E-1,-6.200099736E-2,-3.217637837E-1
1.437901412E1,-6.972821355E-1,-1.585148573E-1,-3.523061574E-1
1.438816693E1,-6.055023670E-1,-2.651077211E-1,-3.991886973E-1
1.439731969E1,-5.160132051E-1,-3.465031087E-1,-4.375193417E-1
1.440647250E1,-4.385883212E-1,-3.802524209E-1,-4.534013867E-1
1.441562526E1,-3.591781855E-1,-3.768927455E-1,-4.278984964E-1
1.442477807E1,-2.510582209E-1,-3.608580232E-1,-3.617742956E-1
1.443393089E1,-9.804098308E-2,-3.555130959E-1,-2.831276953E-1
1.444308365E1,8.765657991E-2,-3.266505599E-1,-2.134911120E-1
1.445223646E1,3.112266660E-1,-2.591519356E-1,-1.728697717E-1
1.446138922E1,5.622848868E-1,-2.333436459E-1,-1.301104724E-1
1.447054203E1,8.240329623E-1,-3.060344756E-1,-5.986303091E-2
1.447969479E1,1.099372387E0,-4.692834020E-1,3.390202299E-2
1.448884761E1,1.377155185E0,-6.563553810E-1,1.488940120E-1
1.449800037E1,1.609124422E0,-7.834116220E-1,2.354816198E-1
1.450715318E1,1.805053592E0,-7.566870451E-1,2.130329758E-1
1.451629318E1,1.991056681E0,-4.844018817E-1,1.122431830E-1
1.452545875E1,2.123457670E0,4.947862774E-2,4.199574888E-2
1.453461151E1,2.271893740E0,5.312843919E-1,6.887302548E-2
1.454375156E1,2.462172508E0,5.677825212E-1,1.989834905E-1
1.455291714E1,2.636416674E0,5.482354015E-2,4.479037523E-1
1.456206990E1,2.711550951E0,-7.795938253E-1,7.629482150E-1
1.457120995E1,2.651840687E0,-1.349819779E0,1.043174386E0
1.458037547E1,2.566627502E0,-1.551093936E0,1.241852522E0
1.458952828E1,2.563115120E0,-1.620119691E0,1.340198874E0
1.459868104E1,2.676274538E0,-1.665627718E0,1.347070932E0
1.460783386E1,2.847006321E0,-1.728086948E0,1.315917730E0
1.461698662E1,2.967495918E0,-1.808260560E0,1.281404853E0
1.462612667E1,2.981240034E0,-1.902331114E0,1.260941505E0
1.463529219E1,2.904578686E0,-1.982199311E0,1.217113137E0
1.464444500E1,2.783325434E0,-2.019461155E0,1.107466102E0
1.465358505E1,2.672151327E0,-1.993805408E0,9.307785034E-1
1.466275057E1,2.582509518E0,-1.916380525E0,7.133168578E-1
1.467190334E1,2.535932302E0,-1.797265291E0,5.407525301E-1
1.468104339E1,2.522493839E0,-1.580109119E0,4.819584787E-1
1.469020896E1,2.512109280E0,-1.242616057E0,4.895940721E-1
1.469936172E1,2.505389929E0,-8.380824327E-1,5.221216679E-1
1.470851453E1,2.493631124E0,-4.391991794E-1,5.468609929E-1
1.471766729E1,2.462172508E0,-9.025268257E-2,5.401417017E-1
1.472682011E1,2.396659136E0,1.517955512E-1,5.199837089E-1
1.473597287E1,2.318623543E0,2.124221325E-1,4.883723855E-1
1.474512568E1,2.255858898E0,1.351499557E-1,4.775298536E-1
1.475427844E1,2.187596798E0,-1.145338640E-2,4.705050886E-1
1.476341849E1,2.093373537E0,-1.670667231E-1,4.760027230E-1
1.477258401E1,1.987391591E0,-3.173351586E-1,4.711159468E-1
1.478173682E1,1.890419602E0,-4.712686539E-1,4.283566475E-1
1.479088964E1,1.806275368E0,-6.067240238E-1,3.527642787E-1
1.480004240E1,1.742899895E0,-7.317950130E-1,2.736595869E-1
1.480919521E1,1.669445515E0,-8.261709213E-1,2.035648525E-1
1.481834797E1,1.559340358E0,-8.970292211E-1,1.656923145E-1
1.482750078E1,1.399298310E0,-9.286405444E-1,1.443126649E-1
1.483665354E1,1.199398637E0,-9.622371197E-1,1.301104724E-1
1.484580636E1,1.003774762E0,-1.004691005E0,1.262926757E-1
1.485495912E1,8.234221339E-1,-1.024390817E0,1.171299592E-1
1.486411193E1,6.581879258E-1,-9.976662993E-1,7.696675509E-2
1.487326474E1,5.152496696E-1,-9.077190161E-1,2.092151903E-2
1.488241750E1,3.587200642E-1,-7.586722970E-1,-2.122694254E-2
1.489157031E1,1.856975704E-1,-6.163448691E-1,-4.947862774E-2
1.490072307E1,1.710372418E-2,-5.027272701E-1,-7.330167294E-2
1.490987589E1,-1.537808031E-1,-4.083513916E-1,-8.200624585E-2
1.491902865E1,-3.512371778E-1,-3.370349705E-1,-6.154286116E-2
1.492818146E1,-5.632011890E-1,-2.105895877E-1,-3.191677108E-2
1.493733422E1,-7.682931423E-1,-2.473931387E-2,-1.206423342E-2
1.494648703E1,-9.399412274E-1,2.082989216E-1,-0.000000000E0
1.495563979E1,-1.077076435E0,3.834593594E-1,1.832541777E-3
1.496479261E1,-1.191304922E0,4.013266563E-1,-7.482878864E-3
1.497394542E1,-1.270867705E0,2.661767006E-1,-1.832541777E-3
1.498309818E1,-1.308282137E0,8.857285231E-2,3.833066672E-2
1.499225099E1,-1.359440565E0,-2.443389036E-3,6.978929788E-2
1.500140375E1,-1.488787532E0,6.474980712E-2,4.321744293E-2
1.501055656E1,-1.609429836E0,2.377723008E-1,-4.688252881E-2
1.501970932E1,-1.453205585E0,6.847597957E-1,-1.866138428E-1
1.502886214E1,-9.903361201E-1,1.073869467E0,-3.973561525E-1
1.503800219E1,-5.212054253E-1,4.294256270E-1,-3.776563108E-1
1.504716771E1,-5.937435627E-1,-7.886037827E-1,-1.971509457E-1
1.505632052E1,-1.026986957E0,-1.236965656E0,-1.725643501E-2
1.506546052E1,-1.744732499E0,1.918060333E-1,2.880144715E-1
1.507462610E1,-2.028012991E0,1.790393353E0,3.520007432E-1
1.508377886E1,-1.765959382E0,1.665933132E0,1.554606259E-1
1.509291891E1,-1.410751700E0,6.603258848E-1,2.321219631E-2
1.510208443E1,-1.111742020E0,-1.340809762E-1,2.218902707E-1
1.511123724E1,-1.072647810E0,1.801999360E-1,4.222481549E-1
1.512037729E1,-1.241088867E0,6.902574301E-1,3.846810758E-1
1.512954281E1,-1.301715493E0,6.395570636E-1,2.334963679E-1
1.513869563E1,-1.250251651E0,1.678302884E-1,1.157555580E-1
1.514784839E1,-1.219403863E0,-3.571929336E-1,4.917320609E-2
1.515700120E1,-1.247197390E0,-5.555655956E-1,2.535016090E-2
1.516615396E1,-1.307671309E0,-3.918585181E-1,4.581354558E-3
1.517530677E1,-1.368603230E0,-1.667613089E-1,-3.939964995E-2
1.518445953E1,-1.405254126E0,2.229592577E-2,-6.719319522E-2
1.519361235E1,-1.399145603E0,1.440072358E-1,-4.840964451E-2
1.520276516E1,-1.391815424E0,2.009687424E-1,5.955760833E-3
1.521191792E1,-1.398382068E0,2.812951505E-1,6.444438547E-2
1.522107073E1,-1.398534775E0,3.689517379E-1,9.315420687E-2
1.523022349E1,-1.378071427E0,4.188885093E-1,8.903098851E-2
1.523937630E1,-1.334548593E0,3.217637837E-1,5.879404768E-2
1.524852906E1,-1.267508030E0,1.452289373E-1,1.908897609E-2
1.525768188E1,-1.286291599E0,1.412584335E-1,-3.909422457E-2
1.526683464E1,-1.308892965E0,1.423274130E-1,-8.368607610E-2
1.527598745E1,-1.349972486E0,2.837385535E-1,-1.385096163E-1
1.528514026E1,-1.365549088E0,4.129327536E-1,-2.095206082E-1
1.529429302E1,-1.344780207E0,5.037962794E-1,-2.455606014E-1
1.530344584E1,-1.345849276E0,6.436802745E-1,-2.560977042E-1
1.531259860E1,-1.363105655E0,7.928797603E-1,-2.837385535E-1
1.532175141E1,-1.391510010E0,1.013242841E0,-3.237490356E-1
1.533090417E1,-1.464964390E0,1.353790283E0,-2.719797492E-1
1.534005698E1,-1.484053373E0,1.378376842E0,-3.052709103E-1
1.534920979E1,-1.504364133E0,1.476265073E0,-3.718532622E-1
1.535836255E1,-1.502226114E0,1.603168607E0,-4.514161348E-1
1.536751537E1,-1.519940734E0,1.781688690E0,-5.323534012E-1
1.537666813E1,-1.525438309E0,1.941119909E0,-6.050441861E-1
1.538582094E1,-1.448624253E0,1.859113574E0,-6.728482842E-1
1.539497370E1,-1.294843435E0,1.618745208E0,-6.954495907E-1
1.540412651E1,-1.270867705E0,1.760461807E0,-6.826218367E-1
1.541327932E1,-1.321415305E0,1.912257314E0,-6.749862432E-1
1.542243208E1,-1.339740753E0,1.875606537E0,-6.445965767E-1
1.543158490E1,-1.269187927E0,1.752368093E0,-6.164975762E-1
1.544073766E1,-1.207797766E0,1.708539724E0,-5.728220344E-1
1.544989047E1,-1.195122719E0,1.639972210E0,-5.372401476E-1
1.545904323E1,-1.157097459E0,1.528034449E0,-5.367820263E-1
1.546819604E1,-1.077839971E0,1.499171853E0,-5.502206683E-1
1.547734880E1,-1.002858520E0,1.508334637E0,-5.387672782E-1
1.548650162E1,-9.611681700E-1,1.451983929E0,-5.036435723E-1
1.549565443E1,-9.610154629E-1,1.432131410E0,-4.902049303E-1
1.550480719E1,-9.802571535E-1,1.442363143E0,-5.007420182E-1
1.551396000E1,-9.542961121E-1,1.493063450E0,-4.767662883E-1
1.552311276E1,-8.377770185E-1,1.603168607E0,-3.997995257E-1
1.553226557E1,-7.253811359E-1,1.612178683E0,-3.109212518E-1
1.554141834E1,-6.700994372E-1,1.461299300E0,-2.579302490E-1
1.555057115E1,-6.316160560E-1,1.281099439E0,-2.325800955E-1
1.555972396E1,-5.865660906E-1,1.139688253E0,-2.235700935E-1
1.556887672E1,-5.604523420E-1,1.108993173E0,-2.354816198E-1
1.557802953E1,-5.551074743E-1,1.147476554E0,-2.586938143E-1
1.558718229E1,-5.476245880E-1,1.155112147E0,-2.971771955E-1
1.559633511E1,-5.497625470E-1,1.130831003E0,-3.478775024E-1
1.560548787E1,-5.395308137E-1,1.064248681E0,-4.265241027E-1
1.561464068E1,-5.173876286E-1,1.027292371E0,-4.744756222E-1
1.562379349E1,-5.230379701E-1,1.042868972E0,-4.898995161E-1
1.563294625E1,-5.470137000E-1,9.825478196E-1,-5.132644176E-1
1.564209906E1,-5.854970813E-1,8.674030900E-1,-5.213581324E-1
1.565125182E1,-6.586460471E-1,7.756233215E-1,-5.309789777E-1
1.566040464E1,-7.295043468E-1,6.369609833E-1,-5.381564498E-1
1.566955740E1,-7.774558663E-1,4.854708612E-1,-5.529694557E-1
1.567871021E1,-8.003626466E-1,3.613161445E-1,-5.596888065E-1
1.568786297E1,-8.247964978E-1,2.678565085E-1,-5.628957748E-1
1.569701578E1,-8.616000414E-1,1.827960461E-1,-5.667135715E-1
1.570616860E1,-8.930587173E-1,1.128540337E-1,-5.564818382E-1
1.571532136E1,-9.148964882E-1,6.413896382E-2,-5.364766121E-1
1.572447417E1,-9.385668039E-1,6.261184346E-3,-5.012001991E-1
1.573362693E1,-9.578084946E-1,-5.390727147E-2,-4.769189954E-1
1.574277974E1,-9.625425935E-1,-9.483403713E-2,-4.640912116E-1
1.575193250E1,-9.284878373E-1,-1.001789495E-1,-4.582881629E-1
1.576108531E1,-8.370134830E-1,-5.909947306E-2,-4.588989913E-1
1.577023813E1,-7.040014863E-1,1.527118124E-2,-4.563029110E-1
1.577937813E1,-5.202891231E-1,4.886778072E-3,-4.231644273E-1
1.578854370E1,-2.880144715E-1,-1.632489264E-1,-3.461976945E-1
1.579769646E1,-5.451811850E-2,-4.059080184E-1,-2.620534599E-1
1.580684927E1,1.275143623E-1,-6.113054156E-1,-1.623326540E-1
1.581600209E1,2.476985604E-1,-7.401941419E-1,-3.848337755E-2
1.582515484E1,3.213056624E-1,-8.167027831E-1,8.842013776E-2
1.583430766E1,3.878880143E-1,-8.698465228E-1,1.872246861E-1
1.584346042E1,4.976878166E-1,-9.182561636E-1,2.418955117E-1
1.585261323E1,6.603258848E-1,-9.830059409E-1,2.588465214E-1
1.586176599E1,8.729007244E-1,-1.047144890E0,2.793098986E-1
1.587091880E1,1.098761559E0,-1.097387075E0,3.072561622E-1
1.588007156E1,1.303548098E0,-1.123348117E0,3.269560039E-1
1.588921162E1,1.476875901E0,-1.142895222E0,3.501681983E-1
1.589837719E1,1.634779930E0,-1.170230627E0,3.984251320E-1
1.590752995E1,1.806733489E0,-1.276212692E0,4.778352678E-1
1.591667000E1,2.001135588E0,-1.491841674E0,5.825955868E-1
1.592583552E1,2.193399906E0,-1.753284335E0,6.946860552E-1
1.593498834E1,2.391314268E0,-2.033968687E0,8.171609044E-1
1.594412834E1,2.663141251E0,-2.366269588E0,9.298622608E-1
1.595329391E1,2.996205807E0,-2.636111259E0,1.002553105E0
1.596244667E1,3.222372055E0,-2.627254009E0,1.012784719E0
1.597159948E1,3.180376291E0,-2.199508190E0,1.006676316E0
1.598075229E1,2.894652367E0,-1.526812673E0,1.010188699E0
1.598990505E1,2.575026512E0,-1.004385591E0,9.874345660E-1
1.599905787E1,2.389023542E0,-7.849387527E-1,9.396358132E-1
1.600821063E1,2.364589691E0,-8.061656952E-1,9.217684865E-1
1.601736344E1,2.432393789E0,-9.546015263E-1,9.698727131E-1
1.602651620E1,2.508596897E0,-1.112047434E0,1.049893737E0
1.603566901E1,2.561435223E0,-1.259872437E0,1.115865231E0
1.604482182E1,2.582509518E0,-1.432131410E0,1.150225401E0
1.605397459E1,2.564489603E0,-1.600419760E0,1.111742020E0
1.606312740E1,2.531198263E0,-1.691894174E0,1.010799527E0
1.607228016E1,2.515010834E0,-1.695406556E0,8.874083757E-1
1.608142021E1,2.518523216E0,-1.613247633E0,7.768449783E-1
1.609058573E1,2.544636965E0,-1.456870675E0,6.829272509E-1
1.609973854E1,2.567085505E0,-1.254069448E0,6.230642200E-1
1.610887860E1,2.564642191E0,-1.032942772E0,5.807630420E-1
1.611804412E1,2.526158810E0,-8.241856694E-1,5.387672782E-1
1.612719693E1,2.457896709E0,-6.171084642E-1,4.898995161E-1
1.613634969E1,2.391314268E0,-4.559974670E-1,4.385883212E-1
1.614550250E1,2.335116386E0,-3.442124426E-1,3.825430870E-1
1.615465526E1,2.300756216E0,-2.661767006E-1,3.394783735E-1
1.616380807E1,2.296327591E0,-2.396048307E-1,3.138227761E-1
1.617296089E1,2.304421186E0,-2.487675399E-1,3.009949923E-1
1.618211365E1,2.295258522E0,-2.548760176E-1,2.899997234E-1
1.619126646E1,2.267617702E0,-2.693836391E-1,2.794626355E-1
1.620041922E1,2.239671469E0,-2.779355049E-1,2.432699203E-1
1.620957203E1,2.197828531E0,-2.686200738E-1,1.898207814E-1
1.621872479E1,2.138270855E0,-2.803788781E-1,1.424801201E-1
1.622787761E1,2.066954374E0,-3.486410677E-1,1.236965731E-1
1.623703037E1,1.992278337E0,-4.914266169E-1,1.403421611E-1
1.624618318E1,1.907065153E0,-6.288672686E-1,1.696628332E-1
1.625533599E1,1.799250603E0,-7.026270628E-1,1.782146841E-1
1.626448875E1,1.694337606E0,-7.600467205E-1,1.713426560E-1
1.627364156E1,1.579803705E0,-7.759287357E-1,1.614163816E-1
1.628279432E1,1.435032964E0,-7.725690603E-1,1.450762302E-1
1.629194714E1,1.274685502E0,-7.577560544E-1,1.281252056E-1
1.630109990E1,1.106855273E0,-7.291989326E-1,1.250709742E-1
1.631025271E1,9.362761378E-1,-6.890357137E-1,1.354553849E-1
1.631940552E1,7.675296068E-1,-6.482616663E-1,1.464506239E-1
1.632855828E1,6.096255779E-1,-6.203153729E-1,1.391204596E-1
1.633771110E1,4.508052766E-1,-5.748072863E-1,1.197260618E-1
1.634686386E1,2.864873707E-1,-5.233433843E-1,1.007898003E-1
1.635601667E1,1.171299592E-1,-4.543176591E-1,8.063183725E-2
1.636516943E1,-5.971032009E-2,-3.805578351E-1,6.887302548E-2
1.637432224E1,-2.374668717E-1,-2.874036431E-1,7.009471953E-2
1.638347505E1,-4.005630910E-1,-1.864611208E-1,7.375980914E-2
1.639262781E1,-5.639647245E-1,-1.101052165E-1,8.658760041E-2
1.640178063E1,-7.507312894E-1,-5.436540768E-2,1.151447073E-1
1.641093339E1,-9.362761378E-1,-1.038440317E-2,1.620272398E-1
1.642008620E1,-1.101204872E0,1.679830020E-3,2.273878902E-1
1.642923896E1,-1.253000498E0,-1.878355257E-2,2.971771955E-1
1.643839177E1,-1.411515355E0,-9.055810422E-2,3.547495604E-1
1.644754453E1,-1.580414534E0,-1.942494214E-1,4.025483429E-1
1.645669735E1,-1.739998460E0,-3.529170156E-1,4.436278343E-1
1.646583740E1,-1.890572309E0,-4.903576374E-1,4.738647640E-1
1.647500292E1,-2.025264025E0,-5.201364160E-1,4.888305068E-1
1.648415573E1,-2.125748396E0,-3.793361485E-1,4.585935771E-1
1.649329578E1,-2.015490532E0,-5.650337040E-2,3.810159862E-1
1.650246130E1,-1.279877663E0,3.304683566E-1,2.576248348E-1
1.651161412E1,2.707580328E-1,2.293731421E-1,8.124268800E-2
1.652075412E1,1.089751482E0,-9.570449591E-1,-3.054236248E-2
1.652991969E1,5.677825212E-1,-1.744732499E0,-1.687465608E-1
1.653907245E1,-2.081461996E-1,-1.404948719E-2,-4.672981501E-1
1.654821250E1,-1.359287858E0,1.033095479E0,-5.111264586E-1
1.655737802E1,-1.788560748E0,-6.077930331E-2,-2.031067163E-1
1.656653084E1,-1.442057610E0,-4.859289825E-1,2.144073844E-1
1.657567089E1,-1.424801230E0,8.971819282E-1,3.949127495E-1
1.658483641E1,-1.738929391E0,2.167286158E0,2.939702570E-1
1.659398922E1,-1.964026690E0,2.392230511E0,1.420219839E-1
1.660312922E1,-1.868734479E0,1.724879980E0,5.803049076E-3
1.661229479E1,-1.545443535E0,9.649859667E-1,-1.134648770E-1
1.662144755E1,-1.338060975E0,3.229855001E-1,-2.588465214E-1
1.663058761E1,-1.304158926E0,-1.461452097E-1,-3.387148082E-1
1.663975318E1,-1.346918225E0,-3.298575282E-1,-3.121429384E-1
1.664890594E1,-1.390746474E0,-3.723114133E-1,-2.067717910E-1
1.665804599E1,-1.422968745E0,-3.448232710E-1,-8.414421231E-2
1.666721151E1,-1.450762272E0,-3.185568452E-1,3.710897267E-2
1.667636432E1,-1.518566251E0,-2.302894145E-1,1.238492802E-1
1.668550438E1,-1.569724798E0,-3.985778242E-2,1.490467340E-1
1.669466990E1,-1.586523056E0,2.119639963E-1,1.291942000E-1
1.670382271E1,-1.578276634E0,4.245388508E-1,6.978929788E-2
1.671297547E1,-1.544679999E0,4.984513521E-1,-1.527118147E-4
1.672212828E1,-1.475806952E0,4.784461260E-1,-6.994201243E-2
1.673128104E1,-1.423579574E0,5.228852630E-1,-1.305686086E-1
1.674043386E1,-1.411362648E0,6.041279435E-1,-1.588202864E-1
1.674958662E1,-1.416402102E0,6.885775924E-1,-1.447708011E-1
1.675873943E1,-1.414264083E0,7.730271816E-1,-1.001789495E-1
1.676789224E1,-1.413653255E0,8.130376935E-1,-3.985778242E-2
1.677704500E1,-1.403268814E0,8.029587269E-1,3.054236295E-3
1.678619781E1,-1.373031974E0,7.879929543E-1,2.168507688E-2
1.679535057E1,-1.336075664E0,7.905890942E-1,3.344388679E-2
1.680450339E1,-1.296981454E0,7.605048418E-1,3.863608837E-2
1.681365615E1,-1.262468576E0,6.774296165E-1,4.016320780E-2
1.682280896E1,-1.218029380E0,6.152759194E-1,2.229592577E-2
1.683196172E1,-1.169008970E0,6.195518374E-1,-1.710372418E-2
1.684111453E1,-1.099525094E0,6.470399499E-1,-8.078455180E-2
1.685026735E1,-1.076771021E0,6.873558760E-1,-1.319430023E-1
1.685942011E1,-1.062416077E0,7.438592315E-1,-1.661504507E-1
1.686857292E1,-1.041800022E0,7.937960029E-1,-1.818797737E-1
1.687772568E1,-1.044090629E0,7.973083854E-1,-2.063136548E-1
1.688687849E1,-1.036455035E0,7.737907767E-1,-2.228065431E-1
1.689603125E1,-9.994988441E-1,7.834116220E-1,-2.292204350E-1
1.690518406E1,-9.642223716E-1,8.347227573E-1,-2.345653474E-1
1.691433682E1,-9.164236188E-1,8.649597168E-1,-2.128802687E-1
1.692348964E1,-8.501466513E-1,8.018897176E-1,-1.853921413E-1
1.693264245E1,-7.792884111E-1,6.671979427E-1,-1.737860441E-1
1.694179521E1,-7.220214605E-1,5.352548957E-1,-1.769929975E-1
1.695094802E1,-6.855233312E-1,4.514161348E-1,-1.827960461E-1
1.696010078E1,-6.511631608E-1,3.466558158E-1,-2.075353563E-1
1.696925360E1,-6.252021790E-1,2.634278834E-1,-2.078407854E-1
1.697840641E1,-6.355865598E-1,2.435753495E-1,-2.043284029E-1
1.698755917E1,-6.687250137E-1,3.084778786E-1,-2.180724740E-1
1.699671198E1,-6.954495907E-1,4.187358022E-1,-2.342599183E-1
1.700586474E1,-6.858287454E-1,5.054761171E-1,-2.402156889E-1
1.701501755E1,-6.549809575E-1,5.031854510E-1,-2.351761907E-1
1.702417031E1,-6.316160560E-1,4.340069890E-1,-2.197522968E-1
1.703332313E1,-6.476507783E-1,3.724641204E-1,-2.234173864E-1
1.704247594E1,-6.850652099E-1,3.704788685E-1,-2.567085624E-1
1.705162870E1,-7.122479081E-1,4.607315361E-1,-2.880144715E-1
1.706078151E1,-7.162184119E-1,5.644228458E-1,-2.869454920E-1
1.706993427E1,-7.036960125E-1,5.873296261E-1,-2.513636351E-1
1.707908708E1,-7.093463540E-1,5.134171247E-1,-2.134911120E-1
1.708823984E1,-7.469134927E-1,4.277457893E-1,-2.046338320E-1
1.709739266E1,-7.800519466E-1,4.187358022E-1,-2.115058601E-1
1.710654542E1,-7.838697433E-1,4.318690002E-1,-2.115058601E-1
1.711569823E1,-7.954758406E-1,4.175141156E-1,-2.024958730E-1
1.712485104E1,-8.064711094E-1,3.886515796E-1,-1.878355294E-1
1.713400380E1,-8.043331504E-1,3.645231128E-1,-1.860029846E-1
1.714315662E1,-8.017370105E-1,3.475720882E-1,-1.945548505E-1
1.715230938E1,-7.838697433E-1,3.565820754E-1,-2.096733153E-1
1.716146219E1,-7.528692484E-1,4.162923992E-1,-2.302894145E-1