"Time (s)","Gyroscope x (rad/s)","Gyroscope y (rad/s)","Gyroscope z (rad/s)"
8.409554531E0,4.413371533E-2,9.788827598E-2,-7.330167107E-3
8.418707135E0,4.642439261E-2,1.046075895E-1,-4.123218823E-3
8.427859739E0,4.398100078E-2,1.033858955E-1,-0.000000000E0
8.437012395E0,4.031591862E-2,9.727742523E-2,1.221694518E-3
8.446164999E0,3.863608837E-2,8.887827396E-2,6.108472589E-4
8.455317656E0,4.107947648E-2,7.986827940E-2,-4.886778072E-3
8.464470260E0,4.734066129E-2,7.681404054E-2,-7.177455351E-3
8.473622864E0,5.100574717E-2,7.803573459E-2,-9.009997360E-3
8.482775468E0,4.856235534E-2,8.582404256E-2,-9.620844387E-3
8.491928124E0,4.107947648E-2,9.361234307E-2,-1.282779220E-2
8.501080729E0,3.359659761E-2,1.020114943E-1,-1.771457121E-2
8.510233333E0,2.977880463E-2,1.093416587E-1,-2.076880634E-2
8.519385989E0,3.665083647E-2,1.117850468E-1,-2.076880634E-2
8.528538593E0,5.024218559E-2,1.056765765E-1,-1.695101149E-2
8.537691197E0,6.200099736E-2,1.009425074E-1,-1.267508045E-2
8.546843854E0,6.765133142E-2,9.009996802E-2,-9.468132630E-3
8.555996458E0,6.215370819E-2,7.864658535E-2,-7.788302377E-3
8.565149062E0,5.054761097E-2,6.536065787E-2,-9.620844387E-3
8.574301718E0,3.527642787E-2,5.818320066E-2,-1.588202827E-2
8.583454322E0,1.985253580E-2,6.047387794E-2,-2.397575416E-2
8.592606926E0,1.175880991E-2,6.765133142E-2,-2.947338112E-2
8.601759583E0,1.298050396E-2,7.253811508E-2,-3.252761811E-2
8.610912187E0,1.786728203E-2,7.314895838E-2,-3.252761811E-2
8.620064791E0,2.229592577E-2,7.070557028E-2,-3.726168349E-2
8.629217447E0,2.473931387E-2,6.398624927E-2,-4.031591862E-2
8.638370051E0,2.611372061E-2,5.619794875E-2,-4.153761268E-2
8.647522656E0,2.794626169E-2,5.085303262E-2,-4.092676565E-2
8.656675312E0,3.420744836E-2,4.902049154E-2,-4.031591862E-2
8.665827916E0,4.337015375E-2,5.024218559E-2,-4.016320780E-2
8.674980520E0,5.008947477E-2,5.497625470E-2,-4.077405483E-2
8.684133124E0,5.497625470E-2,6.413896382E-2,-3.955236077E-2
8.693285781E0,5.864133686E-2,7.131642103E-2,-3.833066672E-2
8.702438385E0,6.291726977E-2,7.910472155E-2,-3.695625812E-2
8.711591041E0,6.642963737E-2,8.399149776E-2,-3.512371704E-2
8.720743645E0,7.009471953E-2,8.704573661E-2,-3.573456407E-2
8.729896249E0,7.330167294E-2,8.643488586E-2,-3.756710514E-2
8.739048906E0,8.078455180E-2,7.849387079E-2,-3.878879920E-2
8.748201510E0,9.132166207E-2,6.887302548E-2,-4.046862945E-2
8.757354114E0,1.043021679E-1,6.047387794E-2,-3.985778242E-2
8.766506770E0,1.148392856E-1,5.207473040E-2,-4.214845970E-2
8.775659374E0,1.241547018E-1,5.207473040E-2,-4.947862774E-2
8.784811979E0,1.353026628E-1,5.024218559E-2,-5.787777901E-2
8.793964635E0,1.502684206E-1,3.695625812E-2,-5.894676223E-2
8.803117239E0,1.600419879E-1,3.588727489E-2,-5.589252338E-2
8.812269843E0,1.594311297E-1,4.184303805E-2,-4.978405312E-2
8.821422447E0,1.557660550E-1,3.771981969E-2,-4.856235534E-2
8.830575104E0,1.484358907E-1,2.687728032E-2,-4.917320609E-2
8.839727708E0,1.429382563E-1,2.260134928E-2,-5.039490014E-2
8.848880312E0,1.392731816E-1,2.199050039E-2,-4.871506989E-2
8.858032968E0,1.378987730E-1,2.504473738E-2,-4.688252881E-2
8.867185572E0,1.429382563E-1,1.771457121E-2,-4.260659590E-2
8.876338176E0,1.528645307E-1,9.926267900E-3,-3.878879920E-2
8.885490833E0,1.614163816E-1,7.635590620E-3,-3.451287001E-2
8.894643437E0,1.693574041E-1,1.191152167E-2,-3.130592033E-2
8.903796041E0,1.805053651E-1,1.557660475E-2,-2.580829710E-2
8.912948697E0,1.896680743E-1,2.092151903E-2,-2.321219631E-2
8.922101301E0,2.024958730E-1,2.397575416E-2,-2.015795931E-2
8.931253958E0,2.112004459E-1,2.107422985E-2,-1.817270555E-2
8.940406562E0,2.131856978E-1,1.435491070E-2,-1.817270555E-2
8.949559166E0,2.170034945E-1,4.734066315E-3,-2.183778957E-2
8.958711770E0,2.232646793E-1,-9.162709117E-3,-2.367033064E-2
8.967864426E0,2.363978922E-1,-2.244863659E-2,-2.473931387E-2
8.977017031E0,2.536543310E-1,-3.130592033E-2,-2.275406010E-2
8.986169635E0,2.715215981E-1,-3.252761811E-2,-2.031067200E-2
8.995322291E0,2.899997234E-1,-3.069507517E-2,-1.466033421E-2
9.004474895E0,3.066453338E-1,-3.420744836E-2,-7.177455351E-3
9.013627499E0,3.239017725E-1,-4.627167806E-2,2.137965523E-3
9.022780156E0,3.443651497E-1,-5.635065958E-2,1.450762246E-2
9.031932760E0,3.707842827E-1,-6.352811307E-2,2.504473738E-2
9.041085364E0,3.997995257E-1,-6.642963737E-2,3.619270027E-2
9.050238020E0,4.248442650E-1,-5.848862603E-2,4.688252881E-2
9.059390624E0,4.431696832E-1,-4.520269856E-2,5.665608495E-2
9.068543229E0,4.498890042E-1,-3.252761811E-2,6.047387794E-2
9.077695885E0,4.517215490E-1,-2.535016090E-2,6.047387794E-2
9.086848489E0,4.529432356E-1,-2.412846684E-2,6.291726977E-2
9.096001093E0,4.578300118E-1,-2.886253223E-2,6.536065787E-2
9.105153749E0,4.685198367E-1,-4.092676565E-2,6.841489673E-2
9.114306354E0,4.840964675E-1,-6.077930331E-2,7.101099193E-2
9.123458958E0,5.076140761E-1,-8.429691941E-2,7.421794534E-2
9.132611614E0,5.436540842E-1,-1.154501289E-1,7.452336699E-2
9.141764218E0,5.867187977E-1,-1.721062213E-1,7.238540053E-2
9.150916822E0,6.323796511E-1,-2.570139766E-1,7.528692484E-2
9.160069479E0,6.693359017E-1,-3.255815804E-1,9.025268257E-2
9.169222083E0,6.887302995E-1,-3.700207174E-1,1.087308154E-1
9.178374687E0,6.985038519E-1,-4.272876680E-1,1.211004704E-1
9.187527343E0,7.020162344E-1,-4.753918648E-1,1.302631795E-1
9.196679947E0,7.033905983E-1,-5.001311898E-1,1.473668963E-1
9.205832551E0,7.035433054E-1,-5.204418898E-1,1.675248593E-1
9.214985208E0,7.116370797E-1,-5.402944088E-1,1.847812980E-1
9.224137812E0,7.288935184E-1,-5.534276366E-1,1.934858710E-1
9.233290416E0,7.438592315E-1,-5.593833923E-1,1.922641695E-1
9.242443072E0,7.418739796E-1,-5.540384650E-1,1.916533262E-1
9.251595676E0,7.207997441E-1,-5.372401476E-1,1.982199401E-1
9.260748281E0,6.951441765E-1,-5.125008225E-1,2.127275616E-1
9.269900937E0,6.821636558E-1,-5.154023767E-1,2.290677279E-1
9.279053541E0,6.893411279E-1,-5.700731874E-1,2.444916219E-1
9.288206145E0,7.211052179E-1,-6.653653979E-1,2.641914487E-1
9.297358801E0,7.629482150E-1,-7.603521347E-1,2.903051674E-1
9.306511406E0,7.959339619E-1,-8.125795722E-1,3.217637837E-1
9.315664010E0,8.050966859E-1,-8.075400591E-1,3.565820754E-1
9.324816666E0,7.911999226E-1,-7.762341499E-1,3.888042867E-1
9.333969270E0,7.780666947E-1,-7.646280527E-1,4.150707126E-1
9.343121874E0,7.849387527E-1,-7.886037827E-1,4.321744442E-1
9.352274531E0,8.124268651E-1,-8.307522535E-1,4.402681589E-1
9.361427135E0,8.484668136E-1,-8.733588457E-1,4.442386627E-1
9.370579739E0,8.819107413E-1,-9.035958052E-1,4.494308829E-1
9.379732395E0,9.072608948E-1,-9.089407325E-1,4.489727318E-1
9.388884999E0,9.422318935E-1,-8.835905790E-1,4.375193417E-1
9.398037604E0,9.982771277E-1,-8.522846103E-1,4.141544402E-1
9.407190260E0,1.077076435E0,-8.516737819E-1,3.952181637E-1
9.416342864E0,1.166260123E0,-8.834378719E-1,3.823903799E-1
9.425495468E0,1.249182701E0,-9.278770089E-1,3.799470067E-1
9.434648124E0,1.308434844E0,-9.397885203E-1,3.828485310E-1
9.443800729E0,1.338366389E0,-8.976400495E-1,3.848337829E-1
9.452953333E0,1.335464835E0,-7.849387527E-1,3.834593594E-1
9.462105989E0,1.325996637E0,-6.300889254E-1,3.930802047E-1
9.471258593E0,1.335770249E0,-4.859289825E-1,4.107947946E-1
9.480411197E0,1.361425877E0,-4.043808877E-1,4.341596961E-1
9.489563854E0,1.382652760E0,-3.687990308E-1,4.433223903E-1
9.498716458E0,1.380362034E0,-3.092414141E-1,4.335488379E-1
9.507869062E0,1.382041931E0,-2.176143378E-1,4.225535989E-1
9.517021718E0,1.395785928E0,-1.724116355E-1,4.317162931E-1
9.526174322E0,1.418234587E0,-2.096733153E-1,4.508052766E-1
9.535326926E0,1.437476277E0,-3.029802442E-1,4.576773047E-1
9.544479583E0,1.443432093E0,-4.072824121E-1,4.504998624E-1
9.553632187E0,1.432589531E0,-5.050179958E-1,4.292729199E-1
9.562784791E0,1.419456363E0,-5.900784731E-1,3.973561525E-1
9.571937447E0,1.408308387E0,-6.516213417E-1,3.686463237E-1
9.581090051E0,1.398076653E0,-6.710157394E-1,3.484883606E-1
9.590242656E0,1.391204596E0,-6.525375843E-1,3.287885487E-1
9.599395312E0,1.376238823E0,-6.224533319E-1,3.061871827E-1
9.608547916E0,1.353332043E0,-5.876350403E-1,2.802261710E-1
9.617700520E0,1.328440070E0,-5.570927262E-1,2.617480457E-1
9.626853176E0,1.313627005E0,-5.497625470E-1,2.574721277E-1
9.636005781E0,1.304464340E0,-5.716003180E-1,2.646495700E-1
9.645158385E0,1.297897696E0,-5.955760479E-1,2.750339806E-1
9.654311041E0,1.288735032E0,-6.045860648E-1,2.805316150E-1
9.663463645E0,1.269493341E0,-5.835118294E-1,2.790044844E-1
9.672616249E0,1.248724461E0,-5.462501645E-1,2.733541429E-1
9.681768906E0,1.225054145E0,-5.048652887E-1,2.567085624E-1
9.690921510E0,1.194511771E0,-4.477510452E-1,2.331909388E-1
9.700074114E0,1.161984205E0,-3.894151151E-1,2.147128135E-1
9.709226770E0,1.126555085E0,-3.478775024E-1,2.034121305E-1
9.718379374E0,1.089904189E0,-3.286358118E-1,1.988307834E-1
9.727531979E0,1.054322362E0,-3.347443044E-1,1.966928244E-1
9.736684635E0,1.015075445E0,-3.607053161E-1,1.971509457E-1
9.745837239E0,9.697200060E-1,-3.872771561E-1,1.937913001E-1
9.754989843E0,9.174925685E-1,-3.994941115E-1,1.872246861E-1
9.764142499E0,8.681666851E-1,-4.002576768E-1,1.844758689E-1
9.773295104E0,8.182299137E-1,-3.894151151E-1,1.811162084E-1
9.782447708E0,7.685985565E-1,-3.636068404E-1,1.763821393E-1
9.791600312E0,7.209524512E-1,-3.359659910E-1,1.730224788E-1
9.800752968E0,6.652126908E-1,-3.064926267E-1,1.664558798E-1
9.809905572E0,6.070294380E-1,-2.790044844E-1,1.575985998E-1
9.819058229E0,5.531222224E-1,-2.495311052E-1,1.522536725E-1
9.828210833E0,5.016583204E-1,-2.183778882E-1,1.499630064E-1
9.837363437E0,4.534013867E-1,-1.925695986E-1,1.490467340E-1
9.846516093E0,4.020902216E-1,-1.763821393E-1,1.456870735E-1
9.855668697E0,3.471139669E-1,-1.565296054E-1,1.440072358E-1
9.864821301E0,2.870981991E-1,-1.307213157E-1,1.453816444E-1
9.873973958E0,2.258607745E-1,-1.114796251E-1,1.559187621E-1
9.883126562E0,1.635543555E-1,-1.181989461E-1,1.658450365E-1
9.892279166E0,9.651386738E-2,-1.327065676E-1,1.598892659E-1
9.901431822E0,2.076880634E-2,-1.160609797E-1,1.392731816E-1
9.910584426E0,-5.711421743E-2,-7.650861889E-2,1.178935245E-1
9.919737031E0,-1.301104724E-1,-4.535540938E-2,1.070509851E-1
9.928889687E0,-1.994416267E-1,-1.954711229E-2,9.666658193E-2
9.938042291E0,-2.611372173E-1,-2.290677279E-3,7.910472155E-2
9.947194895E0,-3.203893900E-1,1.679829881E-2,6.352811307E-2
9.956347551E0,-3.871244490E-1,4.443913698E-2,5.070032179E-2
9.965500156E0,-4.595098495E-1,6.719319522E-2,5.085303262E-2
9.974652760E0,-5.354076028E-1,7.437065244E-2,5.711421743E-2
9.983805416E0,-6.006155610E-1,6.642963737E-2,6.933116168E-2
9.992958020E0,-6.412369013E-1,5.314370990E-2,7.834116369E-2
1.000211062E1,-6.554391384E-1,4.718795046E-2,8.979454637E-2
1.001126328E1,-6.568135023E-1,5.680879578E-2,1.001789495E-1
1.002041588E1,-6.471926570E-1,7.253811508E-2,1.117850468E-1
1.002956849E1,-6.209262609E-1,3.405473381E-2,1.241547018E-1
1.003872114E1,-5.615213513E-1,-7.605048269E-2,1.345391124E-1
1.004786099E1,-4.500417113E-1,-2.000524700E-1,1.371352077E-1
1.005702635E1,-2.890834510E-1,-2.709107697E-1,1.243074164E-1
1.006617901E1,-1.125486046E-1,-2.930539846E-1,9.636115283E-2
1.007533161E1,4.062134400E-2,-3.194731176E-1,6.139015034E-2
1.008448422E1,1.491994411E-1,-3.706315756E-1,2.794626169E-2
1.009363687E1,2.142546773E-1,-3.958290219E-1,-2.137965523E-3
1.010278948E1,2.257080674E-1,-3.533751369E-1,-4.657710344E-2
1.011194214E1,1.899735034E-1,-1.800472289E-1,-1.232384369E-1
1.012109474E1,1.178935245E-1,7.498150319E-2,-2.021904439E-1
1.013023458E1,-4.214845970E-2,2.823641598E-1,-2.528907657E-1
1.013940000E1,-2.874036431E-1,4.115583301E-1,-2.699944973E-1
1.014855260E1,-5.216635466E-1,3.623851240E-1,-2.757975459E-1
1.015770521E1,-7.119424939E-1,2.058555335E-1,-2.880144715E-1
1.016685786E1,-8.939749599E-1,2.709107697E-1,-2.480039895E-1
1.017601047E1,-1.083795786E0,7.120952010E-1,-1.438545287E-1
1.018515031E1,-1.218945742E0,1.185196400E0,-4.932591692E-2
1.019431573E1,-1.187487125E0,1.354248405E0,6.872031838E-3
1.020346833E1,-1.014311910E0,1.123195410E0,4.917320609E-2
1.021260818E1,-8.686248064E-1,6.716265678E-1,6.948387623E-2
1.022177359E1,-8.231166601E-1,2.189887464E-1,4.504998401E-2
1.023092620E1,-9.104678631E-1,-6.978929788E-2,5.650337320E-3
1.024006609E1,-1.076465607E0,-3.118375242E-1,-1.435491070E-2
1.024923146E1,-1.146102190E0,-6.077930331E-1,-8.399149403E-3
1.025838406E1,-1.177713513E0,-7.366818190E-1,2.137965336E-2
1.026752396E1,-1.198940516E0,-7.913526297E-1,6.215370819E-2
1.027668932E1,-1.221541762E0,-7.159129977E-1,1.272089481E-1
1.028584193E1,-1.318361044E0,-4.518742561E-1,2.026485801E-1
1.029498182E1,-1.437018156E0,-1.728697717E-1,2.577775419E-1
1.030414719E1,-1.511236072E0,1.320957243E-1,2.809897363E-1
1.031329979E1,-1.521009684E0,4.025483429E-1,2.574721277E-1
1.032243969E1,-1.500546336E0,6.151232123E-1,2.098260373E-1
1.033160505E1,-1.465269804E0,7.131641507E-1,1.360662282E-1
1.034075766E1,-1.397007704E0,7.032378912E-1,6.765133142E-2
1.034991026E1,-1.341420531E0,6.905628443E-1,3.069507517E-2
1.035906292E1,-1.309961915E0,6.357392669E-1,9.009997360E-3
1.036821552E1,-1.271783948E0,5.741963983E-1,-1.267508045E-2
1.037736812E1,-1.199093223E0,4.585935771E-1,-4.199574888E-2
1.038652078E1,-1.117850542E0,3.428380191E-1,-8.276980370E-2
1.039567338E1,-1.055391312E0,2.166980654E-1,-1.360662282E-1
1.040482599E1,-1.005301833E0,1.414111406E-1,-1.869192570E-1
1.041397864E1,-9.886562824E-1,1.672194302E-1,-2.130329758E-1
1.042313125E1,-9.836167693E-1,2.153236568E-1,-2.173089087E-1
1.043228391E1,-9.671239257E-1,3.003841341E-1,-2.020377368E-1
1.044143651E1,-9.665130973E-1,4.253024161E-1,-1.685938388E-1
1.045058911E1,-9.938485026E-1,5.694623590E-1,-1.261399537E-1
1.045974177E1,-1.023932695E0,6.786513329E-1,-9.284878522E-2
1.046889437E1,-1.050809979E0,7.719582319E-1,-7.421794534E-2
1.047804698E1,-1.077076435E0,8.877137899E-1,-6.765133142E-2
1.048719964E1,-1.107160687E0,1.029735804E0,-7.345438004E-2
1.049635224E1,-1.121210098E0,1.151447058E0,-8.582404256E-2
1.050550484E1,-1.154654026E0,1.251320601E0,-9.910997003E-2
1.051465750E1,-1.194664478E0,1.327829242E0,-1.183516532E-1
1.052381010E1,-1.188250661E0,1.367534280E0,-1.377460510E-1
1.053296271E1,-1.161526084E0,1.421136141E0,-1.589729935E-1
1.054211536E1,-1.149614573E0,1.484969735E0,-1.895153672E-1
1.055126797E1,-1.166412830E0,1.584232330E0,-2.281514555E-1
1.056042057E1,-1.189014196E0,1.719076872E0,-2.596100867E-1
1.056957323E1,-1.190083146E0,1.849187374E0,-2.828222811E-1
1.057872583E1,-1.178935170E0,1.925085187E0,-2.901524603E-1
1.058787844E1,-1.154959440E0,1.929361105E0,-2.803788781E-1
1.059703109E1,-1.085322857E0,1.911951900E0,-2.589992285E-1
1.060618370E1,-1.019045949E0,1.875301123E0,-2.542651594E-1
1.061533630E1,-1.022711039E0,1.809635043E0,-2.762556672E-1
1.062448896E1,-1.061194420E0,1.726254344E0,-3.136700690E-1
1.063364156E1,-1.089904189E0,1.633252859E0,-3.399364948E-1
1.064279417E1,-1.062110662E0,1.499477267E0,-3.483356535E-1
1.065194682E1,-9.660549164E-1,1.294079900E0,-3.530697227E-1
1.066109943E1,-8.686248064E-1,1.101968408E0,-3.735330999E-1
1.067025208E1,-8.389987350E-1,9.645278454E-1,-4.165978432E-1
1.067940469E1,-8.535063267E-1,8.919897079E-1,-4.611896873E-1
1.068855729E1,-8.677085042E-1,8.309049606E-1,-4.770717025E-1
1.069770990E1,-8.041804433E-1,7.444701195E-1,-4.503471553E-1
1.070686255E1,-7.000309825E-1,5.819846988E-1,-4.085040987E-1
1.071601516E1,-6.760551929E-1,4.417952895E-1,-3.875826001E-1
1.072516781E1,-7.485933304E-1,4.169032574E-1,-3.923166394E-1
1.073432042E1,-7.776085734E-1,4.390464723E-1,-4.120164812E-1
1.074347302E1,-7.166765332E-1,4.543176591E-1,-4.182776511E-1
1.075262568E1,-6.730009913E-1,4.495835900E-1,-4.008685052E-1
1.076177828E1,-7.145385742E-1,4.037700295E-1,-3.779617548E-1
1.077093088E1,-7.751652002E-1,3.542914093E-1,-3.710896969E-1
1.078008354E1,-8.040276766E-1,3.391729295E-1,-3.883461356E-1
1.078923614E1,-8.226585388E-1,3.746020794E-1,-4.056025743E-1
1.079838875E1,-8.107470274E-1,4.282039404E-1,-4.165978432E-1
1.080754141E1,-8.052493930E-1,4.300364852E-1,-4.274403751E-1
1.081669401E1,-8.229639530E-1,3.599417508E-1,-4.434750974E-1
1.082584661E1,-8.434273601E-1,3.049654961E-1,-4.605788291E-1
1.083499927E1,-8.261709213E-1,3.104631305E-1,-4.666872919E-1
1.084415187E1,-8.081509471E-1,3.550549746E-1,-4.555393457E-1
1.085330448E1,-8.116632700E-1,3.852919042E-1,-4.251496792E-1
1.086245714E1,-7.879929543E-1,4.017847776E-1,-3.742966652E-1
1.087160974E1,-7.032378912E-1,4.257605374E-1,-3.150444627E-1
1.088076234E1,-5.971031785E-1,5.248705149E-1,-2.759502530E-1
1.088991500E1,-4.815003574E-1,6.775823236E-1,-2.525853515E-1
1.089906760E1,-3.397837877E-1,8.243383765E-1,-2.284568697E-1
1.090822021E1,-1.666085869E-1,8.826742768E-1,-1.907370538E-1
1.091737286E1,3.191677108E-2,8.415948153E-1,-1.227803007E-1
1.092652547E1,2.560977042E-1,7.386670709E-1,-2.397575416E-2
1.093567812E1,5.228852630E-1,5.618267655E-1,8.918370306E-2
1.094483073E1,8.302941322E-1,3.246653080E-1,1.922641695E-1
1.095398333E1,1.169008970E0,1.177408099E-1,2.687727809E-1
1.096313599E1,1.534142852E0,-5.650337320E-3,3.153499067E-1
1.097228859E1,1.891183138E0,-5.131116882E-2,3.594835997E-1
1.098142844E1,2.203478813E0,-2.290677279E-3,4.459185004E-1
1.099059385E1,2.455911398E0,3.298575059E-2,6.009209752E-1
1.099974646E1,2.603889227E0,-5.512896553E-2,7.936432958E-1
1.100888635E1,2.713078022E0,-2.506000996E-1,1.016907930E0
1.101805172E1,2.760724068E0,-8.063184023E-1,1.264912009E0
1.102720432E1,2.716437817E0,-1.622104883E0,1.478403091E0
1.103634422E1,2.641150951E0,-2.426896095E0,1.594464064E0
1.104550958E1,2.655047655E0,-2.795695305E0,1.578429341E0
1.105466219E1,2.800581932E0,-2.816005945E0,1.444348335E0
1.106380208E1,3.007964611E0,-2.637333155E0,1.269798756E0
1.107296745E1,3.175947666E0,-2.401851416E0,1.157860994E0
1.108212005E1,3.217027187E0,-2.295869350E0,1.117850542E0
1.109125995E1,3.140060425E0,-2.283347130E0,1.101357579E0
1.110042531E1,3.048127890E0,-2.124526739E0,1.077381849E0
1.110957792E1,2.981240034E0,-1.796959877E0,1.056002140E0
1.111871781E1,2.897401333E0,-1.531241417E0,1.061805248E0
1.112788318E1,2.791266441E0,-1.337908268E0,1.118919492E0
1.113703578E1,2.693836451E0,-1.159846187E0,1.200620294E0
1.114618844E1,2.619007587E0,-1.009119630E0,1.250098944E0
1.115534104E1,2.574568510E0,-7.971556783E-1,1.252084136E0
1.116449364E1,2.530434847E0,-5.297572613E-1,1.222305417E0
1.117364630E1,2.471335411E0,-3.124483824E-1,1.177102685E0
1.118279891E1,2.399560690E0,-1.831014603E-1,1.136786699E0
1.119195151E1,2.295716763E0,-1.424801201E-1,1.106091619E0
1.120109141E1,2.168507814E0,-1.698155403E-1,1.080130696E0
1.121025677E1,2.049850702E0,-2.556395829E-1,1.061652541E0
1.121940937E1,1.949213624E0,-3.645231128E-1,1.019504070E0
1.122854927E1,1.863542318E0,-4.590517282E-1,9.072608948E-1
1.123771464E1,1.781230569E0,-5.399889946E-1,7.412631512E-1
1.124686729E1,1.680288076E0,-6.203153729E-1,5.726693273E-1
1.125600714E1,1.572778940E0,-7.356128097E-1,4.352286756E-1
1.126517250E1,1.471683741E0,-8.360971808E-1,3.277195692E-1
1.127432516E1,1.374559045E0,-9.445225596E-1,2.263189107E-1
1.128347776E1,1.273769259E0,-1.079367161E0,1.415638477E-1
1.129263036E1,1.159388065E0,-1.211310148E0,6.688777357E-2
1.130178302E1,1.026070714E0,-1.311183691E0,6.719320081E-3
1.131093562E1,8.892409205E-1,-1.361120462E0,-4.428642616E-2
1.132008823E1,7.543963790E-1,-1.342184186E0,-1.007898003E-1
1.132924088E1,6.044333577E-1,-1.232995152E0,-1.702736765E-1
1.133839349E1,4.288147688E-1,-1.066539288E0,-2.290677279E-1
1.134754609E1,2.322746664E-1,-9.240592122E-1,-2.489202619E-1
1.135669875E1,4.642439261E-2,-8.315158486E-1,-2.228065431E-1
1.136583859E1,-1.094943732E-1,-7.177455425E-1,-1.835595965E-1
1.137500396E1,-2.405211031E-1,-5.436540842E-1,-1.572931707E-1
1.138415661E1,-3.611634374E-1,-3.648285270E-1,-1.380514801E-1
1.139329646E1,-5.172349215E-1,-2.162399292E-1,-1.294996142E-1
1.140246187E1,-7.679877281E-1,-8.521319181E-2,-1.349972486E-1
1.141161448E1,-1.061805248E0,3.176405653E-2,-1.481304616E-1
1.142076708E1,-1.238187432E0,6.749862432E-2,-1.805053651E-1
1.142991974E1,-1.158013701E0,3.115320951E-2,-2.501419485E-1
1.143907234E1,-8.134958148E-1,6.933116168E-2,-3.474193811E-1
1.144821224E1,-6.219952106E-1,2.580829561E-1,-3.961344361E-1
1.145737760E1,-9.145910740E-1,3.122956753E-1,-2.683146596E-1
1.146653021E1,-1.371962905E0,2.309002578E-1,-6.933116168E-2
1.147568281E1,-1.863542318E0,3.767400384E-1,-1.114796288E-2
1.148483547E1,-2.321372271E0,3.425326049E-1,-1.224748790E-1
1.149398807E1,-2.300908804E0,7.009472251E-1,-1.800472289E-1
1.150312797E1,-1.854532242E0,1.999303102E0,2.000524849E-2
1.151229333E1,-1.519177079E0,2.516537905E0,9.895725548E-2
1.152144594E1,-1.440988660E0,1.743052602E0,-1.673721522E-1
1.153058583E1,-1.391204596E0,8.948912621E-1,-4.136963189E-1
1.153975120E1,-1.408919215E0,3.193204105E-1,-4.237752855E-1
1.154890380E1,-1.654021621E0,1.180462316E-1,-3.246653080E-1
1.155804370E1,-1.911799192E0,-5.024218559E-2,-2.420482337E-1
1.156720906E1,-1.961583257E0,-3.915531039E-1,-1.682884246E-1
1.157636167E1,-1.811620235E0,-7.404996157E-1,-6.200099736E-2
1.158551432E1,-1.628976941E0,-9.541434050E-1,7.452336699E-2
1.159466693E1,-1.465575337E0,-1.077076435E0,1.722589284E-1
1.160381953E1,-1.312863469E0,-1.156181097E0,2.002051920E-1
1.161297219E1,-1.204285383E0,-1.210546613E0,1.675248593E-1
1.162212479E1,-1.145338655E0,-1.225206852E0,9.575030953E-2
1.163127740E1,-1.115254402E0,-1.172368646E0,1.481304597E-2
1.164041729E1,-1.147476554E0,-9.057337642E-1,-6.322269142E-2
1.164958266E1,-1.210699320E0,-5.022691488E-1,-1.169772521E-1
1.165873526E1,-1.244295835E0,-4.138490185E-2,-1.298050433E-1
1.166788792E1,-1.263384819E0,3.742966652E-1,-1.180462316E-1
1.167704052E1,-1.277434349E0,7.027797699E-1,-1.032331884E-1
1.168619318E1,-1.282626510E0,9.371923804E-1,-9.422318637E-2
1.169534578E1,-1.279114127E0,1.107771516E0,-8.750387281E-2
1.170449838E1,-1.256512761E0,1.198176861E0,-9.972081333E-2
1.171365104E1,-1.199245930E0,1.200620294E0,-1.127013192E-1
1.172280364E1,-1.141368151E0,1.147018433E0,-1.226275861E-1
1.173195625E1,-1.084406614E0,1.070509791E0,-1.490467340E-1
1.174110891E1,-1.029277682E0,9.897252917E-1,-1.931804419E-1
1.175026151E1,-1.020420313E0,9.701781869E-1,-2.402156889E-1
1.175941417E1,-1.053864241E0,9.520054460E-1,-2.867927849E-1
1.176856677E1,-1.099830508E0,1.005301833E0,-3.329117596E-1
1.177771937E1,-1.125180602E0,1.183516622E0,-3.692571819E-1
1.178687203E1,-1.125027895E0,1.373184681E0,-3.968980014E-1
1.179602464E1,-1.122431874E0,1.523300409E0,-4.275930822E-1
1.180517724E1,-1.165649295E0,1.689450860E0,-4.529432356E-1
1.181432990E1,-1.228719234E0,1.844758749E0,-4.627167881E-1
1.182348250E1,-1.232537031E0,1.993041873E0,-4.604261220E-1
1.183263510E1,-1.201689243E0,2.125595808E0,-4.419479966E-1
1.184178776E1,-1.205659747E0,2.229439735E0,-4.249969721E-1
1.185094036E1,-1.318208337E0,2.335727215E0,-4.410317242E-1
1.186008026E1,-1.435949206E0,2.428117752E0,-4.847072959E-1
1.186924562E1,-1.349819779E0,2.470418930E0,-5.146388412E-1
1.187839823E1,-1.130983710E0,2.462325335E0,-5.149442554E-1
1.188753812E1,-1.029888511E0,2.311293364E0,-5.025745630E-1
1.189670349E1,-1.076007485E0,1.957460046E0,-5.123481154E-1
1.190585609E1,-1.174353838E0,1.461757541E0,-5.523586273E-1
1.191499599E1,-1.212073684E0,9.975135922E-1,-5.877877474E-1
1.192416135E1,-1.113574505E0,6.752916574E-1,-5.972558856E-1
1.193331396E1,-9.700254202E-1,3.338280320E-1,-6.026008129E-1
1.194246661E1,-9.390249252E-1,-1.090362370E-1,-6.064186096E-1
1.195161922E1,-1.009425044E0,-5.201364160E-1,-5.919110179E-1
1.196077182E1,-1.030957460E0,-7.592831254E-1,-5.552601814E-1
1.196991172E1,-1.011257648E0,-8.367080092E-1,-5.062396526E-1
1.197907708E1,-1.033095479E0,-8.365553021E-1,-4.587462842E-1
1.198822969E1,-1.035386086E0,-7.255338430E-1,-4.308000207E-1
1.199736958E1,-9.932376146E-1,-4.737120569E-1,-4.379774928E-1
1.200653495E1,-9.495620728E-1,-1.554606259E-1,-4.726430774E-1
1.201568755E1,-9.292513728E-1,1.252236813E-1,-4.996730685E-1
1.202484021E1,-8.877137899E-1,3.897205591E-1,-5.013529062E-1
1.203399281E1,-7.983773947E-1,5.900784731E-1,-4.819584787E-1
1.204314547E1,-6.905628443E-1,7.348492742E-1,-4.685198367E-1
1.205228531E1,-5.717530251E-1,8.906152844E-1,-4.592044353E-1
1.206145068E1,-4.094203711E-1,1.048824787E0,-4.239279926E-1
1.207060333E1,-1.823379099E-1,1.114032745E0,-3.423798978E-1
1.207974318E1,1.027750522E-1,1.026376128E0,-2.212794125E-1
1.208890854E1,4.138490260E-1,7.766922712E-1,-9.071081877E-2
1.209806120E1,7.241594195E-1,4.106420577E-1,2.412846684E-2
1.210721380E1,1.001789451E0,6.368082762E-2,1.075091213E-1
1.211636646E1,1.240783453E0,-7.009471953E-2,1.582094431E-1
1.212551906E1,1.474890709E0,5.818320066E-2,1.823379099E-1
1.213465891E1,1.697544575E0,4.718795121E-1,1.867665499E-1
1.214382432E1,1.923557997E0,1.026223421E0,2.195995897E-1
1.215297693E1,2.151709557E0,1.329356313E0,2.942756712E-1
1.216211677E1,2.398797274E0,1.300646544E0,3.999522328E-1
1.217128219E1,2.557770252E0,8.072346449E-1,5.540384650E-1
1.218043479E1,2.551050901E0,-1.359135192E-2,8.104416132E-1
1.218957469E1,2.435447931E0,-1.131441832E0,1.171910524E0
1.219874005E1,2.329924107E0,-2.044505835E0,1.520551562E0
1.220789266E1,2.335116386E0,-2.580066204E0,1.710830450E0
1.221703255E1,2.449497461E0,-2.837690830E0,1.713732004E0
1.222619792E1,2.616716862E0,-2.927180052E0,1.572778940E0
1.223535052E1,2.812493563E0,-2.949934244E0,1.374864459E0
1.224449042E1,3.010407925E0,-3.010102510E0,1.187639832E0
1.225365578E1,3.167395830E0,-2.977269650E0,1.025154471E0
1.226280839E1,3.264214993E0,-2.776453495E0,8.871029615E-1
1.227194828E1,3.277959108E0,-2.545247793E0,7.893673778E-1
1.228111365E1,3.163883448E0,-2.333436489E0,7.730271816E-1
1.229026625E1,2.977116823E0,-2.071993828E0,8.594620824E-1
1.229940614E1,2.797527790E0,-1.509861708E0,1.027597785E0
1.230857151E1,2.693683624E0,-7.366818190E-1,1.242463350E0
1.231772411E1,2.682383060E0,-1.044548824E-1,1.420219898E0
1.232686401E1,2.682688475E0,3.225273490E-1,1.491994381E0
1.233602937E1,2.630308390E0,6.048914790E-1,1.470003963E0
1.234518203E1,2.499892473E0,7.676823139E-1,1.374406338E0
1.235432187E1,2.315416574E0,7.650861740E-1,1.253305912E0
1.236348724E1,2.143310308E0,6.377245188E-1,1.128845692E0
1.237263990E1,2.024500608E0,3.967452943E-1,1.014617324E0
1.238177974E1,1.928750277E0,1.195733473E-1,9.097042680E-1
1.239094510E1,1.854684949E0,-1.672194302E-1,8.086090684E-1
1.240009776E1,1.816506982E0,-4.008685052E-1,6.937697530E-1
1.240925036E1,1.791156888E0,-5.514423847E-1,5.770979524E-1
1.241840302E1,1.750230074E0,-6.838434935E-1,4.767662883E-1
1.242755562E1,1.679982662E0,-7.843278646E-1,3.883461356E-1
1.243670823E1,1.566823244E0,-8.559496999E-1,3.142809272E-1
1.244586088E1,1.406933904E0,-9.335273504E-1,2.510582209E-1
1.245501349E1,1.213142633E0,-1.005759954E0,1.910424829E-1
1.246415333E1,1.023016453E0,-1.077534556E0,1.250709742E-1
1.247331875E1,8.483141065E-1,-1.085933685E0,2.244863659E-2
1.248247135E1,6.482616663E-1,-1.004843712E0,-8.903098851E-2
1.249161125E1,4.031592011E-1,-9.042066336E-1,-1.707318127E-1
1.250077661E1,1.345391124E-1,-8.295305967E-1,-2.166980654E-1
1.250992922E1,-1.166718230E-1,-7.919634581E-1,-2.289150059E-1
1.251906911E1,-3.432961702E-1,-7.412631512E-1,-2.292204350E-1
1.252823448E1,-5.686988235E-1,-6.108472347E-1,-2.357870489E-1
1.253738708E1,-7.876875401E-1,-4.611896873E-1,-2.405211031E-1
1.254652698E1,-9.463551044E-1,-3.439069986E-1,-2.472404242E-1
1.255569234E1,-9.782719016E-1,-2.849602401E-1,-2.786990702E-1
1.256484495E1,-8.619054556E-1,-2.356343269E-1,-3.541387022E-1
1.257398484E1,-6.781931520E-1,-1.093416587E-1,-4.836383164E-1
1.258315021E1,-5.784723759E-1,1.831014603E-1,-6.224533319E-1
1.259230281E1,-6.931589246E-1,3.962871730E-1,-6.166502833E-1
1.260144271E1,-1.135259628E0,6.149705052E-1,-4.495835900E-1
1.261060807E1,-2.003731728E0,9.616262913E-1,-3.423798978E-1
1.261976073E1,-2.964136362E0,7.285880446E-1,-3.941491842E-1
1.262890057E1,-3.333698988E0,8.924478292E-1,-3.694098890E-1
1.263806594E1,-2.888849497E0,2.374516010E0,-4.245388508E-2
1.264721859E1,-2.350998402E0,3.357063770E0,2.866400778E-1
1.265635844E1,-2.001899242E0,2.234937429E0,9.941539168E-2
1.266552380E1,-1.802457571E0,7.163711190E-1,-2.887780368E-1
1.267467646E1,-1.754964232E0,7.116370648E-2,-4.242334068E-1
1.268381630E1,-1.824448109E0,-4.596625566E-1,-3.859027624E-1
1.269298172E1,-1.886449099E0,-9.833113551E-1,-3.535278440E-1
1.270213432E1,-1.900040388E0,-1.270104170E0,-3.277195692E-1
1.271127417E1,-1.774205923E0,-1.493063450E0,-2.076880634E-1
1.272043958E1,-1.605306625E0,-1.721520305E0,8.551862091E-3
1.272959219E1,-1.541014910E0,-1.767791986E0,1.930277348E-1
1.273873208E1,-1.557202339E0,-1.587133884E0,2.953446507E-1
1.274789745E1,-1.588813663E0,-1.283542752E0,3.038965166E-1
1.275705005E1,-1.577818513E0,-8.806890249E-1,2.116585821E-1
1.276620266E1,-1.553842664E0,-4.587462842E-1,6.429167092E-2
1.277535531E1,-1.552315593E0,-7.727217674E-2,-6.734590977E-2
1.278450792E1,-1.577665806E0,2.351761907E-1,-1.409530044E-1
1.279366057E1,-1.605459332E0,4.694361091E-1,-1.548497826E-1
1.280281318E1,-1.608971715E0,7.124006152E-1,-1.262926757E-1
1.281196578E1,-1.592631459E0,9.391776323E-1,-9.697200358E-2
1.282111844E1,-1.542083859E0,1.074785709E0,-9.132166207E-2
1.283027104E1,-1.447555304E0,1.119683027E0,-9.239064902E-2
1.283942364E1,-1.375017166E0,1.211920977E0,-8.719844371E-2
1.284857630E1,-1.326607585E0,1.237882018E0,-9.834641218E-2
1.285772891E1,-1.260177851E0,1.207645059E0,-1.394258887E-1
1.286688156E1,-1.200620294E0,1.129303813E0,-1.902789176E-1
1.287603417E1,-1.188708782E0,1.059819937E0,-2.359397560E-1
1.288518677E1,-1.233605981E0,1.067455530E0,-2.765611112E-1
1.289433943E1,-1.315459609E0,1.130372882E0,-3.144336343E-1
1.290349203E1,-1.367076159E0,1.210241079E0,-3.698680103E-1
1.291264464E1,-1.376697063E0,1.356997132E0,-4.230117202E-1
1.292179729E1,-1.348903418E0,1.560714722E0,-4.639385045E-1
1.293094990E1,-1.290567517E0,1.749771953E0,-5.088357925E-1
1.294010250E1,-1.239714503E0,1.879882455E0,-5.573981404E-1
1.294925516E1,-1.242005229E0,1.950282574E0,-5.942016840E-1
1.295840776E1,-1.285986185E0,2.038702726E0,-6.018372774E-1
1.296756042E1,-1.341573238E0,2.181641102E0,-5.725166202E-1
1.297671302E1,-1.326454878E0,2.195690393E0,-5.222744346E-1
1.298586562E1,-1.164733052E0,2.078560591E0,-4.825693369E-1
1.299501828E1,-9.662076235E-1,1.936080337E0,-4.840964675E-1
1.300417088E1,-9.219212532E-1,1.820935726E0,-5.247178078E-1
1.301331078E1,-9.856020808E-1,1.728392363E0,-5.677825212E-1
1.302247614E1,-9.895725846E-1,1.557813168E0,-5.798467398E-1
1.303162875E1,-9.017632604E-1,1.248724461E0,-5.754181147E-1
1.304078141E1,-8.165500760E-1,8.741224408E-1,-5.891621709E-1
1.304993401E1,-7.977665067E-1,5.853443742E-1,-6.100836992E-1
1.305908661E1,-8.118160367E-1,3.448232710E-1,-6.039752364E-1
1.306823927E1,-7.947123051E-1,1.414111406E-1,-5.757235289E-1
1.307739187E1,-7.415685654E-1,-1.634016447E-2,-5.525113344E-1
1.308654448E1,-7.032378912E-1,-1.603474021E-1,-5.570927262E-1
1.309568437E1,-7.505785823E-1,-2.455606014E-1,-5.916055441E-1
1.310484974E1,-7.947123051E-1,-2.486148328E-1,-6.198572516E-1
1.311400234E1,-7.899782062E-1,-1.594311297E-1,-6.088619828E-1
1.312315500E1,-7.719582319E-1,-6.047387794E-2,-5.667135715E-1
1.313230760E1,-7.270609736E-1,-5.955760833E-3,-5.152496696E-1
1.314146026E1,-6.395570636E-1,-9.315420873E-3,-4.828747511E-1
1.315061286E1,-5.323534012E-1,-1.985253580E-2,-4.692834020E-1
1.315976547E1,-4.184303582E-1,-2.260134928E-2,-4.422534108E-1
1.316891812E1,-2.696890533E-1,5.497625098E-3,-3.910949528E-1
1.317807073E1,-8.047912270E-2,1.096470803E-1,-3.275668323E-1
1.318722333E1,1.166718230E-1,3.049654961E-1,-2.567085624E-1
1.319637599E1,3.159607351E-1,5.158604980E-1,-1.779092699E-1
1.320551583E1,5.435013771E-1,6.027535200E-1,-9.025268257E-2
1.321468125E1,7.786775231E-1,4.709632397E-1,4.275931045E-3
1.322383385E1,9.924740791E-1,2.203631550E-1,9.636115283E-2
1.323298646E1,1.178782463E0,8.292251825E-2,1.834068894E-1
1.324213911E1,1.335770249E0,1.522536725E-1,2.527380586E-1
1.325129172E1,1.483442545E0,3.515425920E-1,3.190149665E-1
1.326044432E1,1.630351305E0,5.667135715E-1,4.205683470E-1
1.326959698E1,1.744579792E0,6.192464232E-1,5.630484819E-1
1.327874958E1,1.841704488E0,4.940227270E-1,7.281299233E-1
1.328788948E1,1.921878219E0,5.573981255E-2,9.249754548E-1
1.329705484E1,1.976854444E0,-7.001836896E-1,1.156181097E0
1.330620745E1,2.024806023E0,-1.716938972E0,1.404490590E0
1.331534734E1,2.117807388E0,-2.637333155E0,1.614774704E0
1.332451271E1,2.334963560E0,-3.194578409E0,1.721214890E0
1.333366536E1,2.637027502E0,-3.334615231E0,1.695253849E0
1.334280521E1,2.914657593E0,-3.167853832E0,1.568350315E0
1.335197057E1,3.102493286E0,-3.066911459E0,1.409377337E0
1.336112323E1,3.175336838E0,-3.224662781E0,1.264148355E0
1.337026307E1,3.162203550E0,-3.351108074E0,1.132205367E0
1.337942844E1,3.126010895E0,-3.168464661E0,1.002400398E0
1.338858109E1,3.049196720E0,-2.661003351E0,8.921424150E-1
1.339772094E1,2.949323177E0,-1.995485306E0,8.446490765E-1
1.340688635E1,2.866400719E0,-1.349972486E0,8.886300325E-1
1.341603896E1,2.812646151E0,-7.705838084E-1,9.972081780E-1
1.342519156E1,2.774010181E0,-2.235700935E-1,1.137550354E0
1.343434422E1,2.722698927E0,2.383831441E-1,1.246891975E0
1.344349682E1,2.662683249E0,5.210527182E-1,1.290872931E0
1.345263667E1,2.578538895E0,6.346703172E-1,1.258345366E0
1.346180208E1,2.456369638E0,6.281036735E-1,1.162747741E0
1.347095469E1,2.293884277E0,5.767925382E-1,1.042716265E0
1.348009458E1,2.157512426E0,4.530959427E-1,9.177979827E-1
1.348925995E1,2.066648960E0,2.531961799E-1,8.183826208E-1
1.349841255E1,2.005411625E0,2.932066843E-2,7.472189069E-1
1.350755245E1,1.954405785E0,-1.669140160E-1,6.627692580E-1
1.351671781E1,1.890877724E0,-3.116848171E-1,5.464028716E-1
1.352587042E1,1.809787750E0,-4.201101959E-1,4.188885093E-1
1.353502307E1,1.710372329E0,-5.557183027E-1,3.096995652E-1
1.354417568E1,1.606986403E0,-7.411104441E-1,2.192941606E-1
1.355332828E1,1.500699043E0,-9.477295280E-1,1.362189353E-1
1.356248094E1,1.388455868E0,-1.103648305E0,3.909422457E-2
1.357163354E1,1.273311138E0,-1.211768270E0,-6.551336497E-2
1.358078620E1,1.127013206E0,-1.284000993E0,-1.580567211E-1
1.358993880E1,9.365815520E-1,-1.314085126E0,-2.301367074E-1
1.359909141E1,6.975875497E-1,-1.246586561E0,-2.751866877E-1
1.360824401E1,4.141544402E-1,-1.049893737E0,-2.913741469E-1
1.361738391E1,9.086353332E-2,-7.424848676E-1,-2.725905776E-1
1.362654927E1,-2.408265322E-1,-3.373403847E-1,-2.470877171E-1
1.363570187E1,-5.225798488E-1,7.513421029E-2,-2.151709497E-1
1.364485453E1,-7.270609736E-1,3.190149665E-1,-1.600419879E-1
1.365400714E1,-8.556442857E-1,2.994678617E-1,-1.566823274E-1
1.366315979E1,-8.099834919E-1,1.798945218E-1,-2.557922900E-1
1.367229964E1,-5.897729993E-1,3.122956753E-1,-4.057552814E-1
1.368146500E1,-4.720322192E-1,7.945595980E-1,-5.537330508E-1
1.369061766E1,-8.512156606E-1,9.758284688E-1,-6.059604883E-1
1.369975750E1,-1.677081108E0,3.063398898E-1,-5.575508475E-1
1.370892286E1,-2.541429996E0,-2.325800955E-1,-5.358657837E-1
1.371807552E1,-3.139296770E0,4.489727318E-2,-4.120164812E-1
1.372721536E1,-2.847464561E0,1.338977218E0,-1.183516532E-1
1.373638078E1,-2.286401272E0,2.841814280E0,2.258607745E-1
1.374553339E1,-2.174921751E0,2.507375240E0,2.084516287E-1
1.375467323E1,-1.990140319E0,8.996253014E-1,-4.306473210E-2
1.376383865E1,-1.693726778E0,-2.319692522E-1,-1.218640283E-1
1.377299125E1,-1.590493560E0,-8.612946272E-1,-7.375980914E-2
1.378213115E1,-1.672652483E0,-1.510014415E0,-1.043021679E-1
1.379129651E1,-1.709608793E0,-2.024500608E0,-2.128802687E-1
1.380044911E1,-1.595685720E0,-2.277544022E0,-2.541124523E-1
1.380958901E1,-1.501920700E0,-2.247612476E0,-1.783674061E-1
1.381875437E1,-1.550788522E0,-1.798334360E0,-5.314370990E-2
1.382790698E1,-1.599656224E0,-1.183822036E0,3.756710514E-2
1.383704687E1,-1.595227599E0,-7.090409398E-1,2.137965336E-2
1.384621224E1,-1.573389769E0,-3.251234591E-1,-1.160609797E-1
1.385536490E1,-1.595685720E0,3.527642787E-2,-2.600682080E-1
1.386450474E1,-1.643484592E0,3.222219348E-1,-3.588727713E-1
1.387367010E1,-1.694184899E0,5.900784731E-1,-4.069769979E-1
1.388282276E1,-1.711288571E0,8.443436027E-1,-4.042281806E-1
1.389196260E1,-1.687160134E0,1.013395548E0,-3.492519259E-1
1.390112797E1,-1.663489819E0,1.069746256E0,-2.570139766E-1
1.391028062E1,-1.655243397E0,1.081046939E0,-1.543916464E-1
1.391943323E1,-1.628976941E0,1.059819937E0,-6.994201243E-2
1.392858588E1,-1.589424610E0,1.021489382E0,-8.551862091E-3
1.393773849E1,-1.530935884E0,8.716790676E-1,3.909422457E-2
1.394689109E1,-1.461757541E0,6.917845011E-1,7.391251624E-2
1.395604375E1,-1.403116107E0,5.328115225E-1,9.575030953E-2
1.396519635E1,-1.357455373E0,4.086568058E-1,6.810946763E-2
1.397433625E1,-1.319124699E0,3.639122546E-1,-1.527118124E-2
1.398350161E1,-1.312099934E0,4.489727318E-1,-1.307213157E-1
1.399265422E1,-1.314543247E0,6.383354068E-1,-2.408265322E-1
1.400179411E1,-1.324164152E0,9.387195110E-1,-3.381039500E-1
1.401095948E1,-1.365396380E0,1.252084136E0,-4.326325655E-1
1.402011208E1,-1.398382068E0,1.608055353E0,-5.204418898E-1
1.402926474E1,-1.429077148E0,2.043436766E0,-5.809157491E-1
1.403841740E1,-1.355317354E0,2.377112150E0,-6.227588058E-1
1.404756995E1,-1.202758312E0,2.619007587E0,-6.383354068E-1
1.405672260E1,-1.123500824E0,2.647564650E0,-6.164975762E-1
1.406587521E1,-1.126096964E0,2.496532679E0,-5.656445622E-1
1.407502786E1,-1.083643079E0,2.400935173E0,-5.085303187E-1
1.408416771E1,-9.622371197E-1,2.310987949E0,-4.624113739E-1
1.409333307E1,-8.495358229E-1,2.095511436E0,-4.346178174E-1
1.410248573E1,-7.864658237E-1,1.786422849E0,-4.259132445E-1
1.411162557E1,-7.837170362E-1,1.504974961E0,-4.526378214E-1
1.412079099E1,-7.860077024E-1,1.222152710E0,-5.091412067E-1
1.412994359E1,-7.556180358E-1,8.880192041E-1,-5.673243999E-1
1.413909620E1,-7.243121266E-1,6.355865598E-1,-6.006155610E-1
1.414824885E1,-7.153021693E-1,3.836120665E-1,-6.045860648E-1
1.415740146E1,-7.128587365E-1,8.307522535E-2,-5.829010010E-1
1.416655411E1,-7.406523228E-1,-1.916533262E-1,-5.450284481E-1
1.417570672E1,-7.779139876E-1,-3.935383558E-1,-5.097520351E-1
1.418485932E1,-8.128849864E-1,-4.958552718E-1,-4.781406820E-1
1.419399922E1,-8.139539957E-1,-4.619532526E-1,-4.512633979E-1
1.420316458E1,-8.092198968E-1,-3.613161445E-1,-4.410317242E-1
1.421231724E1,-8.092198968E-1,-2.269297540E-1,-4.544703662E-1
1.422145708E1,-8.072346449E-1,-8.964183182E-2,-4.790569544E-1
1.423062245E1,-8.000571728E-1,2.535016090E-2,-5.016583204E-1
1.423977510E1,-7.660024762E-1,7.834116369E-2,-5.125008225E-1
1.424892771E1,-6.598677635E-1,6.413896382E-2,-5.111264586E-1
1.425808036E1,-5.419742465E-1,4.214845970E-2,-4.931064546E-1
1.426723297E1,-4.320217371E-1,1.374406274E-3,-4.703523815E-1
1.427638557E1,-3.205420971E-1,-7.253811508E-2,-4.390464723E-1
1.428553823E1,-1.957765520E-1,-1.293469071E-1,-3.910949528E-1
1.429469083E1,-4.413371533E-2,-9.330692142E-2,-3.252761662E-1
1.430384349E1,1.325538605E-1,2.779355086E-2,-2.502946556E-1
1.431299609E1,3.210002482E-1,1.742441803E-1,-1.837123185E-1
1.432214870E1,5.259394646E-1,2.344126403E-1,-1.218640283E-1
1.433130135E1,7.487460375E-1,1.759240031E-1,-6.398624927E-2
1.434045396E1,9.871291518E-1,3.436015919E-2,-4.886778072E-3
1.434960661E1,1.245517612E0,-6.978929788E-2,5.879404768E-2
1.435875922E1,1.531546831E0,-5.100574717E-2,1.351499557E-1
1.436791182E1,1.815285325E0,8.719844371E-2,2.287622988E-1
1.437706448E1,2.061914921E0,3.139754832E-1,3.384093940E-1
1.438621708E1,2.254942656E0,5.244123936E-1,4.573718905E-1
1.439536974E1,2.361382723E0,5.583143830E-1,5.766398311E-1
1.440452234E1,2.400629759E0,3.906368315E-1,6.960604787E-1
1.441366224E1,2.438502312E0,-6.872031838E-3,8.852704167E-1
1.442282760E1,2.419718742E0,-5.807630420E-1,1.132358074E0
1.443198021E1,2.341377497E0,-1.328440070E0,1.391815424E0
1.444112010E1,2.276780367E0,-2.009840250E0,1.615996480E0
1.445028547E1,2.380013704E0,-2.371919870E0,1.736638784E0
1.445943812E1,2.681466818E0,-2.516232491E0,1.721214890E0
1.446857797E1,3.026289940E0,-2.560060978E0,1.592478752E0
1.447774333E1,3.262077093E0,-2.703151941E0,1.410904408E0
1.448689599E1,3.328812122E0,-2.994831324E0,1.224748731E0
1.449603583E1,3.259022951E0,-3.178849220E0,1.058903694E0
1.450520125E1,3.132272005E0,-3.075921297E0,9.229902029E-1
1.451435385E1,3.025068283E0,-2.759502411E0,8.420529366E-1
1.452349375E1,2.965968847E0,-2.349776745E0,8.431219459E-1
1.453265911E1,2.913435936E0,-1.815590739E0,9.333745837E-1
1.454181172E1,2.830055237E0,-1.093721986E0,1.083032131E0
1.455095161E1,2.699792147E0,-2.968717813E-1,1.212837219E0
1.456011698E1,2.546164036E0,3.081724346E-1,1.281557560E0
1.456926964E1,2.408876181E0,6.322268844E-1,1.298661232E0
1.457840948E1,2.277238607E0,6.843016148E-1,1.277587056E0
1.458757484E1,2.135216475E0,5.946598053E-1,1.228413820E0
1.459672750E1,2.003120899E0,4.370612204E-1,1.161678791E0
1.460586734E1,1.903094649E0,2.231119573E-1,1.066386580E0
1.461503276E1,1.842926145E0,-2.809897438E-2,9.538379908E-1
1.462418536E1,1.809024215E0,-2.480039895E-1,8.249492049E-1
1.463333797E1,1.788866162E0,-4.155288339E-1,6.923953891E-1
1.464249062E1,1.771609783E0,-5.737382770E-1,5.757235289E-1
1.465164323E1,1.731752038E0,-7.429429889E-1,4.772244096E-1
1.466079588E1,1.660435557E0,-8.724426031E-1,3.975088596E-1
1.466994849E1,1.559645772E0,-9.480349422E-1,3.327590525E-1
1.467910114E1,1.427397370E0,-1.019045949E0,2.762556672E-1
1.468825375E1,1.262315869E0,-1.065317631E0,2.189887464E-1
1.469740641E1,1.076312900E0,-1.049588323E0,1.296523362E-1
1.470655901E1,8.742751479E-1,-9.376505613E-1,2.305948362E-2
1.471569891E1,6.429167390E-1,-6.954495907E-1,-4.947862774E-2
1.472486427E1,3.849864900E-1,-4.272876680E-1,-8.261708915E-2
1.473401687E1,1.357607991E-1,-1.872246861E-1,-8.582404256E-2
1.474316953E1,-6.536065787E-2,2.886253223E-2,-6.780404598E-2
1.475232214E1,-2.324273884E-1,2.179197669E-1,-3.619270027E-2
1.476147479E1,-3.996468186E-1,3.666610718E-1,-1.527118147E-3
1.477061464E1,-5.894675851E-1,4.326325655E-1,7.482878864E-3
1.477978005E1,-7.795938253E-1,4.152234197E-1,-4.443913698E-2
1.478893266E1,-9.507837296E-1,3.127537966E-1,-1.385096163E-1
1.479807255E1,-1.098456025E0,1.180462316E-1,-2.443388999E-1
1.480723792E1,-1.199551344E0,-4.459185153E-2,-3.341334462E-1
1.481639052E1,-1.227344871E0,-1.527118147E-3,-4.167505503E-1
1.482554318E1,-1.187487125E0,2.759502530E-1,-5.051707029E-1
1.483469578E1,-1.225664973E0,4.364503622E-1,-5.783196688E-1
1.484384844E1,-1.478555799E0,-4.459185153E-2,-5.393781066E-1
1.485298828E1,-1.823684454E0,-6.192464232E-1,-3.674246371E-1
1.486215365E1,-2.130177021E0,-4.173613787E-1,-1.913478971E-1
1.487130630E1,-2.223331213E0,5.380037427E-1,-1.146865711E-1
1.488044620E1,-2.099787474E0,1.462062955E0,-7.101099193E-2
1.488961156E1,-1.910272121E0,1.504058719E0,-8.200624585E-2
1.489876417E1,-1.691436052E0,6.059604883E-1,-2.153236568E-1
1.490790406E1,-1.569572091E0,-2.451024652E-1,-3.206948042E-1
1.491706943E1,-1.699224353E0,-5.874823332E-1,-2.919849753E-1
1.492622203E1,-1.778481841E0,-6.952968836E-1,-2.467822880E-1
1.493536193E1,-1.684563994E0,-7.945595980E-1,-2.447970361E-1
1.494452729E1,-1.656006932E0,-7.452336550E-1,-2.470877171E-1
1.495367995E1,-1.658755779E0,-6.678087711E-1,-2.124221325E-1
1.496281979E1,-1.602099657E0,-6.760551929E-1,-1.521009654E-1
1.497198521E1,-1.579192877E0,-6.636855602E-1,-1.006370857E-1
1.498113781E1,-1.601030707E0,-5.515950918E-1,-8.567132801E-2
1.499029047E1,-1.601794243E0,-3.770454824E-1,-1.229330078E-1
1.499944307E1,-1.535517335E0,-2.518217862E-1,-1.788255423E-1
1.500859568E1,-1.506043911E0,-1.542389393E-1,-2.189887464E-1
1.501773557E1,-1.508487344E0,-2.061609551E-2,-2.324273884E-1
1.502690094E1,-1.475959659E0,1.374406368E-1,-2.128802687E-1
1.503605359E1,-1.438698053E0,2.913741469E-1,-1.687465608E-1
1.504519344E1,-1.396702290E0,3.988832533E-1,-1.154501289E-1
1.505435885E1,-1.349208832E0,4.292729199E-1,-5.894676223E-2
1.506351146E1,-1.281404853E0,4.103366435E-1,-1.191152167E-2
1.507266411E1,-1.232231617E0,4.014793634E-1,3.481829539E-2
1.508181672E1,-1.224290609E0,3.968980014E-1,6.291726977E-2
1.509096937E1,-1.204132676E0,4.136963189E-1,6.062658876E-2
1.510012198E1,-1.165496588E0,4.504998624E-1,4.611896724E-2
1.510927458E1,-1.111283898E0,4.650074840E-1,2.886253223E-2
1.511842724E1,-1.048213840E0,4.504998624E-1,1.404948719E-2
1.512757984E1,-1.039203882E0,4.805840850E-1,-7.330167107E-3
1.513673250E1,-1.100746751E0,6.418477297E-1,-6.642963737E-2
1.514588510E1,-1.166718245E0,8.167027831E-1,-1.464506239E-1
1.515503776E1,-1.202758312E0,9.561286569E-1,-2.267770469E-1
1.516419036E1,-1.267660737E0,1.151141644E0,-2.854183912E-1
1.517334302E1,-1.397923946E0,1.391815424E0,-3.048127890E-1
1.518249562E1,-1.514137626E0,1.503905892E0,-2.922904193E-1
1.519164828E1,-1.538113356E0,1.618439794E0,-2.620534599E-1
1.520080089E1,-1.405101418E0,1.748244882E0,-2.415900975E-1
1.520995354E1,-1.237271070E0,1.809940457E0,-2.490729690E-1
1.521910615E1,-1.200162172E0,1.822462797E0,-3.013004065E-1
1.522825880E1,-1.242921472E0,1.882325888E0,-3.712424338E-1
1.523739864E1,-1.191152096E0,1.840635538E0,-4.257605374E-1
1.524656406E1,-1.060889006E0,1.763668776E0,-4.566083252E-1
1.525571667E1,-9.704836011E-1,1.572778940E0,-4.760027230E-1
1.526485656E1,-9.654440880E-1,1.231926203E0,-5.184566379E-1
1.527402193E1,-9.952229261E-1,9.388722181E-1,-5.726693273E-1
1.528317453E1,-9.936957955E-1,7.617265582E-1,-5.934380889E-1
1.529232719E1,-9.504783154E-1,6.839962006E-1,-5.740436912E-1
1.530147979E1,-9.139801860E-1,6.511631608E-1,-5.396835804E-1
1.531063245E1,-8.864920735E-1,6.090146899E-1,-5.210527182E-1
1.531978505E1,-8.475505710E-1,5.212054253E-1,-5.201364160E-1
1.532893771E1,-8.593093753E-1,4.494308829E-1,-5.286883116E-1
1.533809031E1,-9.103151560E-1,4.366030693E-1,-5.338805318E-1
1.534724297E1,-8.718317747E-1,5.554128885E-1,-5.380037427E-1
1.535639557E1,-7.918107510E-1,6.482616663E-1,-5.589252710E-1
1.536554823E1,-7.507312894E-1,6.873558760E-1,-5.818319917E-1
1.537470083E1,-7.333221436E-1,7.368345261E-1,-5.799994469E-1
1.538385349E1,-6.748335361E-1,7.333221436E-1,-5.563291311E-1
1.539300609E1,-5.766398311E-1,6.329904795E-1,-5.219689608E-1
1.540215875E1,-4.990622103E-1,4.158342779E-1,-4.821111858E-1
1.541131135E1,-3.988832533E-1,2.069245130E-1,-4.434750974E-1
1.542046401E1,-2.883199155E-1,1.724116355E-1,-4.152234197E-1
1.542961661E1,-3.347443044E-1,1.885990947E-1,-4.014793634E-1
1.543876927E1,-4.929537475E-1,9.437590092E-2,-3.854446113E-1
1.544792187E1,-5.836645365E-1,1.420219894E-2,-3.671191931E-1
1.545706177E1,-5.525113344E-1,-1.710372418E-2,-3.552076817E-1
1.546622714E1,-4.501944184E-1,-2.535016090E-2,-3.507790267E-1
1.547537974E1,-3.327590525E-1,-9.162708884E-4,-3.054236174E-1
1.548453240E1,-1.858502775E-1,4.260659590E-2,-1.786728203E-1
1.549368505E1,2.748812549E-3,-3.833066672E-2,-1.664558798E-2
1.550283766E1,2.171562016E-1,-2.231119573E-1,1.058292910E-1
1.551199031E1,4.608842432E-1,-4.165978432E-1,1.772984117E-1
1.552114292E1,7.609629631E-1,-5.561764240E-1,2.229592502E-1
1.553029557E1,1.110978484E0,-5.790832043E-1,2.583884001E-1
1.553944818E1,1.467865944E0,-5.150969625E-1,2.883199155E-1
1.554860083E1,1.780925155E0,-3.862081766E-1,3.197785318E-1
1.555775344E1,2.037786484E0,-2.446443290E-1,3.458922505E-1
1.556690609E1,2.196759462E0,-1.838650256E-1,4.068242610E-1
1.557605870E1,2.303046942E0,-1.655396074E-1,5.602996349E-1
1.558521135E1,2.371003628E0,-2.677038014E-1,7.776085734E-1
1.559435120E1,2.393452168E0,-4.682144225E-1,9.677347541E-1
1.560351661E1,2.457591295E0,-9.000834227E-1,1.142589808E0
1.561266922E1,2.586021900E0,-1.215738773E0,1.303089857E0
1.562182187E1,2.785616159E0,-1.319888234E0,1.418081880E0
1.563097448E1,2.996969461E0,-1.541778445E0,1.439919710E0
1.564012714E1,3.136089802E0,-2.116433144E0,1.406628489E0
1.564927974E1,3.206490040E0,-2.522341013E0,1.324927688E0
1.565843240E1,3.201756001E0,-2.263647318E0,1.185501814E0
1.566758500E1,3.127996206E0,-1.720298648E0,1.023321867E0
1.567672490E1,3.049807549E0,-1.256971002E0,8.979454637E-1
1.568589026E1,2.985974073E0,-1.050504565E0,8.386932611E-1
1.569504292E1,2.914963007E0,-9.662076235E-1,8.429692388E-1
1.570419552E1,2.823641539E0,-6.933116317E-1,8.811471462E-1
1.571334818E1,2.712620020E0,-3.588727713E-1,9.087880254E-1
1.572250078E1,2.615342617E0,-1.553079188E-1,9.043593407E-1
1.573165344E1,2.527380466E0,-8.689302206E-2,8.890882134E-1
1.574080604E1,2.426590681E0,-4.672981426E-2,8.724426031E-1
1.574995870E1,2.322135925E0,-8.490777016E-2,8.504521251E-1
1.575911135E1,2.234173775E0,-2.099787444E-1,8.070819378E-1
1.576826396E1,2.160261393E0,-3.225273490E-1,7.308787704E-1
1.577741661E1,2.116891146E0,-4.054498672E-1,6.513158679E-1
1.578655646E1,2.074589968E0,-4.785988331E-1,5.887040496E-1
1.579572187E1,2.014879704E0,-5.230379701E-1,5.273138881E-1
1.580487448E1,1.940509081E0,-5.112791657E-1,4.492781460E-1
1.581401437E1,1.843689680E0,-4.691306949E-1,3.611634374E-1
1.582317974E1,1.721214890E0,-4.532486796E-1,2.846548259E-1
1.583233240E1,1.562547326E0,-4.598152637E-1,2.322746664E-1
1.584147229E1,1.381583810E0,-4.686725736E-1,1.679829955E-1
1.585063766E1,1.189472318E0,-4.627167881E-1,9.956810623E-2
1.585979026E1,9.880454540E-1,-4.355340898E-1,2.596100792E-2
1.586893016E1,7.429429889E-1,-3.500154912E-1,-3.558185324E-2
1.587809557E1,4.515688419E-1,-2.264716178E-1,-7.131642103E-2
1.588724818E1,1.505738497E-1,-1.317902952E-1,-6.322269142E-2
1.589640083E1,-1.127013192E-1,-6.810946763E-2,-3.206948191E-2
1.590555344E1,-2.893888950E-1,-3.817795217E-2,1.359135192E-2
1.591470609E1,-3.852919042E-1,-3.451287001E-2,5.573981255E-2
1.592385870E1,-4.474456310E-1,-1.122431830E-1,7.788302749E-2
1.593301135E1,-5.227325559E-1,-3.179459870E-1,6.169557199E-2
1.594216396E1,-6.245913506E-1,-6.189410090E-1,1.847812906E-2
1.595130385E1,-7.458444834E-1,-8.331956863E-1,-2.565558441E-2
1.596046927E1,-9.008470178E-1,-9.167290330E-1,-6.200099736E-2
1.596962187E1,-1.092958450E0,-8.533536196E-1,-1.093416587E-1
1.597876177E1,-1.265980959E0,-6.255075932E-1,-1.728697717E-1
1.598792714E1,-1.318666577E0,-1.890572309E-1,-2.725905776E-1
1.599707979E1,-1.208255887E0,3.223746419E-1,-3.539859951E-1
1.600621969E1,-1.224748731E0,3.585673273E-1,-3.364241421E-1
1.601538505E1,-1.690367103E0,-1.342336833E-1,-2.605263591E-1
1.602453771E1,-2.332214832E0,-8.918370306E-2,-1.905843467E-1
1.603367755E1,-2.764389277E0,6.844543815E-1,-1.661504507E-1
1.604284297E1,-2.699944973E0,1.462215662E0,-1.003316641E-1
1.605199557E1,-2.234021187E0,1.866749167E0,6.200099736E-2
1.606113547E1,-1.820172071E0,1.465880752E0,1.482831687E-1
1.607030083E1,-1.710219622E0,7.678350210E-1,7.818844914E-2
1.607945349E1,-1.682731509E0,2.753393948E-1,-1.359135192E-2
1.608860614E1,-1.516428351E0,-2.608317733E-1,-1.252236869E-2
1.609775875E1,-1.431673288E0,-8.506048322E-1,-8.551862091E-3
1.610691141E1,-1.482526302E0,-1.217265844E0,-6.841489673E-2
1.611605125E1,-1.477944970E0,-1.282015681E0,-1.191152185E-1
1.612521667E1,-1.458703279E0,-1.234980464E0,-1.159082651E-1
1.613436927E1,-1.492758036E0,-1.011257648E0,-1.033858955E-1
1.614352193E1,-1.513221383E0,-6.366555691E-1,-1.368297935E-1
1.615267453E1,-1.462368369E0,-3.559712470E-1,-2.087570578E-1
1.616182719E1,-1.389982939E0,-1.429382563E-1,-2.890834510E-1
1.617096708E1,-1.342489600E0,8.597674966E-2,-3.437542915E-1
1.618013245E1,-1.310572743E0,3.185568452E-1,-3.639122546E-1
1.618928510E1,-1.265675545E0,5.373928547E-1,-3.521534503E-1
1.619842500E1,-1.234216928E0,7.298097610E-1,-3.116848171E-1
1.620759036E1,-1.236660242E0,8.950439692E-1,-2.562504113E-1
1.621674302E1,-1.257887244E0,1.041647315E0,-2.064663768E-1
1.622589562E1,-1.240325332E0,1.138313890E0,-1.765348613E-1
1.623504828E1,-1.190999389E0,1.213142633E0,-1.646233350E-1
1.624420088E1,-1.145185947E0,1.260788798E0,-1.649287641E-1
1.625335354E1,-1.101204872E0,1.230093718E0,-1.805053651E-1
1.626250620E1,-1.068830013E0,1.140299082E0,-1.881409585E-1
1.627165880E1,-1.074480295E0,1.082421303E0,-1.887518018E-1
1.628081146E1,-1.087002754E0,1.029277682E0,-2.162399292E-1
1.628996406E1,-1.092500329E0,9.761339426E-1,-2.608317733E-1
1.629911672E1,-1.091431379E0,9.410101771E-1,-2.985515893E-1
1.630826937E1,-1.089293361E0,1.005454540E0,-3.323009014E-1
1.631742198E1,-1.097845197E0,1.152821541E0,-3.648285270E-1
1.632657464E1,-1.103801012E0,1.285222650E0,-3.978142738E-1
1.633572724E1,-1.086391807E0,1.415485859E0,-4.106420577E-1
1.634487990E1,-1.042563558E0,1.538418770E0,-4.025483429E-1
1.635403255E1,-1.003163934E0,1.608513594E0,-3.962871730E-1
1.636318516E1,-9.837695360E-1,1.648829460E0,-4.052971601E-1
1.637233781E1,-9.585720897E-1,1.675859451E0,-4.393518865E-1
1.638149047E1,-9.355126023E-1,1.745037913E0,-4.917320311E-1
1.639064307E1,-9.280297160E-1,1.827960372E0,-5.467082858E-1
1.639979573E1,-9.095515609E-1,1.853157878E0,-5.819846988E-1
1.640894833E1,-8.872556686E-1,1.777260065E0,-5.983248949E-1
1.641810099E1,-8.912261724E-1,1.603015900E0,-6.018372774E-1
1.642725364E1,-9.286405444E-1,1.434269309E0,-5.946598053E-1
1.643640625E1,-1.006370902E0,1.370893955E0,-5.865660906E-1
1.644555891E1,-1.097692490E0,1.366618037E0,-5.633538961E-1
1.645471151E1,-1.080130696E0,1.189014196E0,-5.363239050E-1
1.646386417E1,-8.890882134E-1,8.935168386E-1,-5.219689608E-1
1.647301682E1,-6.487197876E-1,6.213843822E-1,-5.364766121E-1
1.648216943E1,-4.825693369E-1,3.280249834E-1,-5.693096519E-1
1.649132208E1,-4.399627447E-1,-2.932066843E-2,-5.925218463E-1
1.650046198E1,-4.892886579E-1,-3.781144619E-1,-5.780141950E-1
1.650962734E1,-5.493044257E-1,-5.143333673E-1,-5.349494815E-1
1.651878000E1,-5.858024955E-1,-3.775036037E-1,-4.987567961E-1
1.652791984E1,-6.201626658E-1,-1.267508119E-1,-4.746283293E-1
1.653708526E1,-6.415423155E-1,4.688252881E-2,-4.578300118E-1
1.654623792E1,-6.476507783E-1,1.944021434E-1,-4.573718905E-1
1.655539052E1,-6.158867478E-1,4.439332485E-1,-4.738647640E-1
1.656454318E1,-5.225798488E-1,6.936170459E-1,-4.764608741E-1
1.657369583E1,-4.051444530E-1,7.818844914E-1,-4.500417113E-1
1.658284844E1,-3.153499067E-1,7.093463540E-1,-3.863608837E-1
1.659200109E1,-2.728960216E-1,6.132906675E-1,-3.066453338E-1
1.660115375E1,-2.319692522E-1,6.195518374E-1,-2.313583940E-1
1.661029359E1,-1.304158866E-1,6.688777208E-1,-1.731752008E-1
1.661945901E1,8.399149403E-3,7.108734846E-1,-1.301104724E-1
1.662861161E1,1.713426560E-1,7.956285477E-1,-8.628217876E-2
1.663775151E1,3.695625961E-1,8.625163436E-1,-2.580829710E-2
1.664691693E1,5.963396430E-1,8.431219459E-1,3.634541109E-2
1.665606953E1,8.289197087E-1,6.671979427E-1,9.926267713E-2
1.666522219E1,1.049130201E0,3.388675153E-1,1.718007922E-1
1.667437484E1,1.256207347E0,-5.635065958E-2,2.528907657E-1
1.668352745E1,1.432894945E0,-4.149180055E-1,3.472666740E-1
1.669268010E1,1.559034944E0,-6.607840061E-1,4.576773047E-1
1.670183276E1,1.619203329E0,-9.025267959E-1,5.761816502E-1
1.671098536E1,1.697239161E0,-1.191152096E0,6.861341596E-1
1.672013802E1,1.774664044E0,-1.577665806E0,7.811209559E-1
1.672929068E1,1.836054206E0,-1.995332599E0,8.721371889E-1
1.673844328E1,1.928444743E0,-2.467823029E0,9.750649333E-1
1.674758318E1,2.110477209E0,-2.805774212E0,1.075549364E0
1.675674854E1,2.388870955E0,-2.903357029E0,1.149614573E0
1.676590120E1,2.656727552E0,-2.726822138E0,1.174048424E0
1.677504109E1,2.817074776E0,-2.456675053E0,1.162136912E0
1.678420651E1,2.870218515E0,-2.319234371E0,1.142284393E0
1.679335911E1,2.851129532E0,-2.242114782E0,1.123042703E0
1.680249901E1,2.817380190E0,-2.110477209E0,1.092805743E0
1.681166437E1,2.771719456E0,-1.944479585E0,1.030193925E0
1.682081703E1,2.699792147E0,-1.721825719E0,9.604045749E-1
1.682995693E1,2.624352455E0,-1.399756551E0,9.309312105E-1
1.683912229E1,2.558381081E0,-9.258917570E-1,9.649859667E-1
1.684827495E1,2.492256880E0,-3.804051280E-1,1.050199151E0
1.685742760E1,2.421093225E0,2.244863659E-2,1.157555580E0
1.686658021E1,2.385511160E0,2.246390730E-1,1.257887244E0
1.687573286E1,2.395590305E0,3.122956753E-1,1.315306902E0
1.688487276E1,2.391619682E0,3.436015844E-1,1.316986680E0
1.689403812E1,2.323968410E0,2.890834510E-1,1.265370131E0
1.690319078E1,2.214168549E0,2.118112892E-1,1.147934675E0
1.691233068E1,2.096885920E0,8.338065445E-2,1.012326598E0
1.692149604E1,1.978992462E0,-1.262926757E-1,8.987090588E-1
1.693064870E1,1.875453830E0,-3.631486893E-1,7.991409302E-1
1.693978859E1,1.812383771E0,-5.708367825E-1,7.036960125E-1
1.694895396E1,1.784742951E0,-7.398887277E-1,6.149705052E-1
1.695810661E1,1.772067904E0,-8.854231238E-1,5.375455618E-1
1.696725927E1,1.728086948E0,-9.581139088E-1,4.645493329E-1
1.697641187E1,1.641651988E0,-9.892671108E-1,4.004103839E-1
1.698556453E1,1.530783176E0,-1.030652046E0,3.478775024E-1
1.699470443E1,1.406781197E0,-1.073258638E0,2.993151546E-1
1.700386979E1,1.272853017E0,-1.107924223E0,2.599155009E-1
1.701302245E1,1.144422293E0,-1.125791550E0,2.192941606E-1
1.702216234E1,1.022558331E0,-1.097997904E0,1.305686086E-1
1.703132771E1,8.802309036E-1,-9.907942414E-1,2.260134928E-2
1.704048036E1,7.003363967E-1,-8.153283596E-1,-6.184828654E-2
1.704963302E1,5.146388412E-1,-6.464291215E-1,-1.078145429E-1
1.705878562E1,3.475720882E-1,-5.047125220E-1,-1.304158866E-1
1.706793828E1,1.933331639E-1,-3.272614181E-1,-1.469087601E-1
1.707709094E1,3.115320951E-2,-4.367557913E-2,-1.466033459E-1
1.708624354E1,-1.450762302E-1,2.877090573E-1,-1.125486046E-1
1.709539620E1,-3.292466700E-1,5.154023767E-1,-4.871506989E-2
1.710454885E1,-4.982986450E-1,5.665608048E-1,2.764083818E-2
1.711370146E1,-6.201626658E-1,5.172349215E-1,8.857285231E-2
1.712285411E1,-6.894938350E-1,4.744756222E-1,1.221694499E-1
1.713200677E1,-7.605048418E-1,4.708105326E-1,1.412584335E-1
1.714115937E1,-8.854231238E-1,4.598152637E-1,1.385096163E-1
1.715031208E1,-1.044396043E0,3.881934285E-1,1.026223376E-1
1.715945193E1,-1.194969893E0,2.286095917E-1,3.756710514E-2
1.716861729E1,-1.317597508E0,7.803573459E-2,-6.139015034E-2
1.717776995E1,-1.387081385E0,5.085303262E-2,-2.157817930E-1
1.718690984E1,-1.375169873E0,1.241547018E-1,-4.283566475E-1
1.719607526E1,-1.305533290E0,2.241809368E-1,-6.152759194E-1
1.720522786E1,-1.275143623E0,2.484621257E-1,-7.287407517E-1
1.721436776E1,-1.211462855E0,3.301629424E-1,-8.028060198E-1
1.722353318E1,-1.151294351E0,4.231644273E-1,-7.853968740E-1
1.723268578E1,-1.327676535E0,1.786728203E-1,-6.783458591E-1
1.724182568E1,-1.641651988E0,-3.616215885E-1,-5.001311898E-1
1.725099109E1,-1.785506487E0,-3.927747905E-1,-2.318165302E-1
1.726014370E1,-1.822157383E0,2.919849753E-1,-4.123218823E-3
1.726928359E1,-1.931193590E0,8.330429196E-1,4.169032723E-2
1.727844901E1,-2.103299856E0,8.101361990E-1,-6.810946763E-2
1.728760161E1,-2.012130976E0,2.988570333E-1,-1.562241912E-1
1.729675427E1,-1.694490314E0,-3.107685447E-1,-9.254335612E-2
1.730590693E1,-1.622410297E0,-6.206207871E-1,1.679830020E-3
1.731505953E1,-1.787644506E0,-7.007945180E-1,4.504998401E-2
1.732421219E1,-1.889808655E0,-8.093726039E-1,8.414421231E-2
1.733336484E1,-1.856364846E0,-8.554915786E-1,1.265980899E-1
1.734251745E1,-1.765653968E0,-8.854231238E-1,1.681357026E-1
1.735167010E1,-1.712052107E0,-8.822161555E-1,1.806580722E-1
1.736082276E1,-1.690367103E0,-8.141067028E-1,1.466033459E-1
1.736997536E1,-1.641041160E0,-7.107207775E-1,7.666133344E-2
1.737912802E1,-1.537349820E0,-6.108472347E-1,-1.435491070E-2
1.738828068E1,-1.440072417E0,-4.892886579E-1,-1.107160673E-1
1.739743328E1,-1.400214672E0,-2.907632887E-1,-1.918060333E-1
1.740658594E1,-1.397160411E0,-3.665083647E-2,-2.481566966E-1
1.741573859E1,-1.402963400E0,2.669402659E-1,-2.814478874E-1
1.742489120E1,-1.413958669E0,6.139014959E-1,-2.866400778E-1
1.743404385E1,-1.393800735E0,9.129112363E-1,-2.750339806E-1
1.744319651E1,-1.337602735E0,1.104106426E0,-2.626643181E-1
1.745234911E1,-1.287971497E0,1.272853017E0,-2.586938143E-1
1.746150177E1,-1.249946237E0,1.446333647E0,-2.727433145E-1
1.747065443E1,-1.207186937E0,1.563921690E0,-2.834331393E-1
1.747980703E1,-1.145185947E0,1.594922185E0,-2.841966748E-1
1.748895969E1,-1.076007485E0,1.577513099E0,-2.922904193E-1
1.749811234E1,-1.030957460E0,1.576902151E0,-3.133646548E-1
1.750726495E1,-1.016602516E0,1.574306130E0,-3.449759781E-1
1.751641760E1,-1.015991688E0,1.592326045E0,-3.859027624E-1
1.752557026E1,-1.032789946E0,1.633558273E0,-4.324798584E-1
1.753472286E1,-1.014464617E0,1.614163876E0,-4.818057716E-1
1.754387552E1,-9.697200060E-1,1.585148692E0,-5.279247165E-1
1.755302818E1,-9.226847887E-1,1.579040170E0,-5.592306852E-1
1.756218078E1,-8.874083757E-1,1.564685225E0,-5.761816502E-1
1.757133344E1,-8.608365059E-1,1.554453611E0,-5.740436912E-1
1.758048609E1,-8.388460279E-1,1.570182920E0,-5.537330508E-1
1.758963875E1,-8.287670016E-1,1.616607308E0,-5.384618640E-1
1.759879135E1,-8.197570443E-1,1.647455096E0,-5.415160656E-1
1.760794401E1,-8.267817497E-1,1.673263311E0,-5.598415136E-1
1.761709667E1,-8.393041492E-1,1.712968469E0,-5.709894896E-1
1.762624927E1,-8.590039611E-1,1.705638289E0,-5.656445622E-1
1.763540193E1,-8.898517489E-1,1.629282355E0,-5.444176197E-1
1.764455458E1,-9.156600237E-1,1.539487839E0,-5.195255876E-1
1.765370719E1,-9.413156509E-1,1.433353066E0,-4.989095032E-1
1.766285984E1,-1.009119630E0,1.207950473E0,-4.918847680E-1
1.767201250E1,-1.074785709E0,8.974873424E-1,-4.798205197E-1
1.768116510E1,-1.008661509E0,5.854970813E-1,-4.566083252E-1
1.769031776E1,-8.950439692E-1,3.544441164E-1,-4.573718905E-1
1.769947042E1,-8.625163436E-1,1.024696305E-1,-4.888305068E-1
1.770862302E1,-8.386932611E-1,-5.848862603E-2,-5.227325559E-1
1.771777568E1,-7.835643291E-1,-1.006370857E-1,-5.296045542E-1
1.772692833E1,-7.154548764E-1,-2.686200738E-1,-5.088357925E-1
1.773608094E1,-6.665870547E-1,-5.123481154E-1,-4.637857676E-1
1.774523359E1,-6.337540150E-1,-6.302416325E-1,-4.188885093E-1
1.775438625E1,-6.488724947E-1,-6.018372774E-1,-3.976615667E-1
1.776352614E1,-6.697940230E-1,-5.435013771E-1,-4.100312293E-1
1.777269151E1,-6.497887969E-1,-4.103366435E-1,-4.369085133E-1
1.778184417E1,-5.558710098E-1,-2.174616307E-1,-4.588989913E-1
1.779099677E1,-4.234698713E-1,-5.711421743E-2,-4.734066129E-1
1.780014943E1,-3.064926267E-1,2.382304333E-2,-4.763081372E-1
1.780930208E1,-1.980672181E-1,2.947338112E-2,-4.602734149E-1
1.781845474E1,-7.910472155E-2,5.803049076E-3,-4.129327536E-1
1.782760734E1,5.940489471E-2,-1.908897609E-2,-3.289412558E-1
1.783676000E1,2.324273884E-1,-3.878879920E-2,-2.293731421E-1
1.784591266E1,4.495835900E-1,-3.985778242E-2,-1.392731816E-1
1.785506526E1,7.105680704E-1,-2.367033064E-2,-6.963659078E-2
1.786421792E1,9.943066239E-1,-4.275931045E-3,-7.788302377E-3
1.787337057E1,1.264301062E0,1.771457121E-2,8.444963396E-2
1.788252318E1,1.507112861E0,-2.611372061E-2,2.003578991E-1
1.789167583E1,1.702431321E0,2.748812549E-3,2.823641598E-1
1.790081573E1,1.858350039E0,2.116585821E-1,3.071034551E-1
1.790998109E1,1.958070874E0,6.409314871E-1,3.061871827E-1
1.791913375E1,1.986933470E0,1.052795291E0,3.642176688E-1
1.792827364E1,1.975174665E0,1.255749226E0,5.007420182E-1
1.793743901E1,2.010756493E0,1.119683027E0,6.910209656E-1
1.794659167E1,2.054279327E0,6.951441765E-1,9.058864713E-1
1.795573156E1,2.101009130E0,-3.405473381E-2,1.155875683E0
1.796489693E1,2.146211863E0,-9.358180165E-1,1.391968250E0
1.797404958E1,2.226691008E0,-1.666238666E0,1.515206575E0
1.798318948E1,2.395132065E0,-2.143921137E0,1.479472041E0
1.799235490E1,2.613204479E0,-2.423841953E0,1.336533785E0
1.800150750E1,2.797527790E0,-2.554868698E0,1.186418056E0
1.801064740E1,2.903509617E0,-2.584036589E0,1.078603506E0
1.801981281E1,2.945047379E0,-2.573346853E0,1.015380859E0
1.802896542E1,2.914810419E0,-2.478359938E0,9.686510563E-1
1.803810531E1,2.832956791E0,-2.336338043E0,9.191724062E-1
1.804727073E1,2.757975340E0,-2.194468737E0,8.837432861E-1
1.805642333E1,2.694141865E0,-1.956543803E0,8.806890249E-1
1.806556323E1,2.625116110E0,-1.544374585E0,9.133693576E-1
1.807472864E1,2.518828630E0,-9.730796814E-1,9.672766328E-1
1.808388125E1,2.381540775E0,-4.036173224E-1,1.026834249E0
1.809303391E1,2.263036489E0,7.971556485E-2,1.094027400E0
1.810218656E1,2.211114407E0,4.066715539E-1,1.167329073E0
1.811133917E1,2.209281921E0,5.236487985E-1,1.227192163E0
1.812047906E1,2.193857908E0,5.092939138E-1,1.242921472E0
1.812964448E1,2.119181871E0,4.727957845E-1,1.202147365E0
1.813879714E1,1.997775912E0,4.158342779E-1,1.139535546E0
1.814793698E1,1.868276358E0,3.278722763E-1,1.078908920E0
1.815710240E1,1.733126402E0,2.400629669E-1,9.973608851E-1
1.816625505E1,1.598892689E0,1.394258887E-1,8.958075047E-1
1.817539490E1,1.492299795E0,-1.725643501E-2,7.876875401E-1
1.818456031E1,1.425870180E0,-2.034121305E-1,6.719319820E-1
1.819371297E1,1.382958174E0,-3.773508966E-1,5.557183027E-1
1.820286557E1,1.322026134E0,-5.508314967E-1,4.588989913E-1
1.821201823E1,1.233453274E0,-7.525638342E-1,3.936910629E-1
1.822117088E1,1.125791550E0,-9.625425935E-1,3.480302393E-1
1.823032354E1,1.014311910E0,-1.145033240E0,2.825168669E-1
1.823947614E1,8.999307156E-1,-1.285986185E0,2.153236568E-1
1.824862880E1,7.863131166E-1,-1.375475287E0,1.546970755E-1
1.825778141E1,6.839962006E-1,-1.420525312E0,9.116895497E-2
1.826693406E1,5.725166202E-1,-1.404643297E0,2.244863659E-2
1.827608672E1,4.340069890E-1,-1.332257867E0,-3.527642787E-2
1.828523937E1,2.695363462E-1,-1.251778722E0,-6.276455522E-2
1.829439198E1,1.027750522E-1,-1.150683522E0,-5.604523420E-2
1.830354464E1,-5.344913527E-2,-9.851438999E-1,-3.038965166E-2
1.831268453E1,-2.179197669E-1,-7.269082665E-1,-9.162709117E-3
1.832184990E1,-4.158342779E-1,-3.764346242E-1,2.596100792E-3
1.833100255E1,-6.279509664E-1,-1.695101149E-2,3.359660041E-3
1.834015516E1,-8.128849864E-1,2.699944973E-1,-1.282779220E-2
1.834930781E1,-9.765920639E-1,4.474456310E-1,-3.115320951E-2
1.835846047E1,-1.114796281E0,5.477772951E-1,-5.803048983E-2
1.836761312E1,-1.211462855E0,5.625903010E-1,-9.345962852E-2
1.837676573E1,-1.269646049E0,5.393781066E-1,-1.452289373E-1
1.838591838E1,-1.346001983E0,4.961606860E-1,-2.206685692E-1
1.839505828E1,-1.418845415E0,4.227063060E-1,-3.237490356E-1
1.840422365E1,-1.357455373E0,4.266768098E-1,-4.314108789E-1
1.841337630E1,-1.130678296E0,5.532749295E-1,-5.245651007E-1
1.842251620E1,-9.159654379E-1,6.768187881E-1,-5.702258945E-1
1.843168161E1,-9.208522439E-1,5.245651007E-1,-5.474718809E-1
1.844083422E1,-1.136023164E0,1.090362370E-1,-5.273138881E-1
1.844997411E1,-1.445722699E0,-7.223268598E-2,-5.263976455E-1
1.845913953E1,-1.665475011E0,-7.788302377E-3,-4.546230733E-1
1.846829219E1,-1.624548316E0,3.176405728E-1,-3.000787199E-1
1.847743203E1,-1.512152433E0,6.473453641E-1,-1.725643575E-1
1.848659745E1,-1.686549306E0,7.069029808E-1,-1.420219839E-1
1.849575005E1,-1.947533727E0,5.376983285E-1,-1.504211426E-1
1.850488995E1,-1.892557502E0,2.812951505E-1,-9.132166207E-2
1.851405536E1,-1.733584523E0,1.638597846E-1,1.191152167E-2
1.852320797E1,-1.675554037E0,-1.546970755E-1,7.299624383E-2
1.853236062E1,-1.676928401E0,-4.902049303E-1,9.513945878E-2
1.854151328E1,-1.688229084E0,-7.021689415E-1,1.409530044E-1
1.855066588E1,-1.633863688E0,-8.814526200E-1,2.069245130E-1
1.855981854E1,-1.544069171E0,-9.581139088E-1,2.637332976E-1
1.856897120E1,-1.448471546E0,-9.784246087E-1,2.785463631E-1
1.857812380E1,-1.372726560E0,-9.500201941E-1,2.551814318E-1
1.858726370E1,-1.305075169E0,-8.585458398E-1,2.232646793E-1
1.859642911E1,-1.227344871E0,-7.180509567E-1,1.858502775E-1
1.860558177E1,-1.187945247E0,-5.260922313E-1,1.261399537E-1
1.861473437E1,-1.213906169E0,-2.793098986E-1,3.848337755E-2
1.862388703E1,-1.240630746E0,4.581354442E-4,-5.421269313E-2
1.863303969E1,-1.253458619E0,3.045073450E-1,-1.241547018E-1
1.864219229E1,-1.283390045E0,5.627430081E-1,-1.574458778E-1
1.865134495E1,-1.297744989E0,7.971556783E-1,-1.656923145E-1
1.866049760E1,-1.292094707E0,9.900307059E-1,-1.589729935E-1
1.866965021E1,-1.273616552E0,1.129914761E0,-1.571404636E-1
1.867880286E1,-1.248571754E0,1.239561796E0,-1.693574041E-1
1.868795552E1,-1.199398637E0,1.259414315E0,-1.927223057E-1
1.869709542E1,-1.111436605E0,1.230399132E0,-2.232646793E-1
1.870626078E1,-1.019504070E0,1.224596024E0,-2.440334857E-1
1.871541344E1,-9.631534219E-1,1.205812454E0,-2.680092454E-1
1.872456609E1,-9.614735842E-1,1.176186442E0,-2.991624475E-1
1.873371870E1,-9.736905098E-1,1.168245435E0,-3.284831047E-1
1.874287135E1,-9.571976662E-1,1.200162172E0,-3.486410677E-1
1.875202401E1,-9.011524320E-1,1.287513256E0,-3.646758199E-1
1.876117661E1,-8.247964978E-1,1.373795509E0,-3.813214004E-1
1.877032927E1,-7.693621516E-1,1.393648028E0,-4.140017331E-1
1.877948193E1,-7.754706144E-1,1.404185176E0,-4.647020400E-1
1.878863453E1,-8.150229454E-1,1.371962905E0,-5.132644176E-1
1.879778719E1,-8.573241234E-1,1.358677030E0,-5.402944088E-1
1.880693984E1,-8.672503829E-1,1.371810198E0,-5.416688323E-1
1.881609245E1,-8.309049606E-1,1.353942990E0,-5.279247165E-1
1.882524510E1,-7.702783942E-1,1.324011445E0,-5.158604980E-1
1.883439776E1,-7.398887277E-1,1.301104665E0,-5.094466209E-1
1.884355042E1,-7.615737915E-1,1.310725451E0,-5.018110275E-1
1.885270302E1,-8.093726039E-1,1.345085621E0,-4.764608741E-1
1.886185568E1,-8.388460279E-1,1.384943485E0,-4.388937652E-1
1.887100833E1,-8.443436027E-1,1.364632726E0,-3.973561525E-1
1.888016094E1,-8.501466513E-1,1.309351087E0,-3.662029207E-1
1.888931359E1,-8.649597168E-1,1.221999884E0,-3.625378609E-1
1.889846625E1,-8.964183331E-1,1.112658262E0,-3.865135908E-1
1.890761885E1,-9.101623893E-1,9.944593310E-1,-4.188885093E-1
1.891677151E1,-9.002361298E-1,8.034168482E-1,-4.407263100E-1
1.892592417E1,-8.814526200E-1,5.593833923E-1,-4.483618736E-1
1.893507677E1,-8.196043372E-1,3.900259733E-1,-4.550811946E-1
1.894422943E1,-6.980457306E-1,3.161134422E-1,-4.602734149E-1
1.895338208E1,-6.006155610E-1,2.313583940E-1,-4.552339315E-1
1.896253469E1,-5.833591223E-1,1.560714692E-1,-4.404208660E-1
1.897168734E1,-5.827482939E-1,1.634016484E-1,-4.300364852E-1
1.898084000E1,-5.844281316E-1,2.820587158E-1,-4.320217371E-1
1.898999260E1,-5.694623590E-1,5.381564498E-1,-4.356867969E-1
1.899914526E1,-5.360184908E-1,7.966975570E-1,-4.295783341E-1
1.900829792E1,-4.982986450E-1,9.161182046E-1,-4.147652984E-1
1.901745057E1,-4.482091665E-1,8.759549856E-1,-3.910949528E-1
1.902660318E1,-3.923166394E-1,7.519529462E-1,-3.692571819E-1
1.903575583E1,-3.477247953E-1,5.942016840E-1,-3.622324169E-1
1.904490849E1,-3.324536085E-1,4.665345848E-1,-3.710896969E-1
1.905406109E1,-3.304683566E-1,4.043808877E-1,-3.953709006E-1
1.906321375E1,-3.371876776E-1,3.373403847E-1,-4.259132445E-1
1.907236641E1,-3.405473530E-1,2.348707765E-1,-4.460712075E-1
1.908151901E1,-3.309265077E-1,1.956238300E-1,-4.479037523E-1
1.909067167E1,-2.874036431E-1,2.156290859E-1,-4.317162931E-1
1.909982432E1,-1.995943487E-1,2.345653474E-1,-4.060607255E-1
1.910897693E1,-8.292251825E-2,2.125748396E-1,-3.790307343E-1
1.911812958E1,4.688252881E-2,1.453816444E-1,-3.529170156E-1
1.912728224E1,1.826433241E-1,4.993676394E-2,-3.245126009E-1
1.913643490E1,3.028275371E-1,-2.748812735E-2,-2.906105816E-1
1.914558750E1,3.865135908E-1,-3.802524135E-2,-2.435753495E-1
1.915474016E1,4.605788291E-1,-1.175880991E-2,-1.855448484E-1
1.916389281E1,5.897729993E-1,-1.130067464E-2,-1.084253863E-1
1.917304542E1,8.003626466E-1,-9.972081333E-2,-1.282779220E-2
1.918219807E1,1.044548869E0,-3.026748300E-1,8.002099395E-2
1.919135073E1,1.286138892E0,-6.195518374E-1,1.730224788E-1
1.920050333E1,1.507112861E0,-9.773555994E-1,2.748812735E-1
1.920965599E1,1.698460817E0,-1.258039951E0,3.796415627E-1
1.921879589E1,1.839872003E0,-1.343100429E0,4.717268050E-1
1.922796125E1,1.907217860E0,-1.184127450E0,5.459447503E-1
1.923711391E1,1.913173556E0,-9.109259844E-1,6.093201637E-1
1.924626656E1,1.921420097E0,-6.888830066E-1,6.745280623E-1
1.925541917E1,1.931346297E0,-5.879405141E-1,7.551599145E-1
1.926457182E1,1.945090413E0,-5.983248949E-1,8.669449687E-1
1.927371172E1,1.969829679E0,-7.562289238E-1,1.011410356E0
1.928287714E1,1.999761224E0,-9.804098606E-1,1.133885264E0
1.929202974E1,2.033510447E0,-1.187487125E0,1.176491857E0
1.930118240E1,2.108644724E0,-1.309961915E0,1.149003744E0
1.931033505E1,2.247307062E0,-1.359898686E0,1.097539783E0
1.931948766E1,2.418038845E0,-1.391815424E0,1.039509296E0
1.932864031E1,2.583731174E0,-1.494132400E0,9.857547879E-1
1.933779297E1,2.721477270E0,-1.644095421E0,9.355126023E-1
1.934694557E1,2.812798977E0,-1.769013643E0,8.654178381E-1
1.935608547E1,2.839981556E0,-1.806122661E0,7.722636461E-1
1.936525089E1,2.794626236E0,-1.716786265E0,6.754443645E-1
1.937440354E1,2.686658859E0,-1.523758531E0,6.055023670E-1
1.938354339E1,2.547080278E0,-1.275754452E0,5.810684562E-1
1.939270880E1,2.395895720E0,-9.903361201E-1,6.000047326E-1
1.940186146E1,2.257996798E0,-6.697940230E-1,6.519267559E-1
1.941101406E1,2.126970053E0,-3.345915973E-1,7.233958840E-1
1.942016672E1,1.988002419E0,2.275406010E-2,7.844805717E-1
1.942931937E1,1.864305854E0,3.336753249E-1,8.284615874E-1
1.943847198E1,1.805359125E0,5.066977739E-1,8.664868474E-1
1.944762464E1,1.814674497E0,5.567872524E-1,9.019159675E-1
1.945677729E1,1.839566469E0,5.792359114E-1,9.112313986E-1
1.946591719E1,1.838344812E0,5.923691392E-1,8.922951221E-1
1.947508255E1,1.783063173E0,5.163186193E-1,8.730534315E-1
1.948423521E1,1.680135369E0,3.738385141E-1,8.614473343E-1
1.949337510E1,1.559340358E0,2.379250079E-1,8.496885300E-1
1.950254047E1,1.457634330E0,1.117850468E-1,8.185353279E-1
1.951169312E1,1.399909258E0,-1.328592747E-2,7.430956960E-1
1.952084578E1,1.379293084E0,-1.276670843E-1,6.270347238E-1
1.952999839E1,1.351499557E0,-2.258607745E-1,5.163186193E-1
1.953915104E1,1.301410079E0,-3.599417508E-1,4.237752855E-1
1.954830370E1,1.237882018E0,-5.352548957E-1,3.362714052E-1
1.955745630E1,1.156333804E0,-6.897992492E-1,2.802261710E-1
1.956660896E1,1.058903694E0,-8.081509471E-1,2.447970361E-1
1.957576161E1,9.591829181E-1,-8.826742768E-1,2.105895877E-1
1.958491422E1,8.660287261E-1,-9.124531150E-1,1.562241912E-1
1.959406687E1,7.626428008E-1,-8.967237473E-1,9.437590092E-2
1.960321953E1,6.502469182E-1,-8.603783846E-1,3.374931216E-2
1.961237214E1,5.363239050E-1,-8.365553021E-1,-2.214321308E-2
1.962152479E1,4.224008918E-1,-8.272398710E-1,-6.994201243E-2
1.963067745E1,3.188622594E-1,-8.138012886E-1,-1.157555580E-1
1.963983010E1,2.127275616E-1,-7.682931423E-1,-1.606528312E-1
1.964898271E1,7.986827940E-2,-6.493306160E-1,-2.043284029E-1
1.965813536E1,-7.696675509E-2,-4.624113739E-1,-2.342599183E-1
1.966728802E1,-2.466295809E-1,-2.409792393E-1,-2.362451702E-1
1.967644062E1,-4.013266563E-1,-3.802524135E-2,-2.148655206E-1
1.968559328E1,-5.212054253E-1,1.293469071E-1,-1.994416267E-1
1.969474594E1,-6.061131954E-1,2.486148328E-1,-2.000524700E-1
1.970389854E1,-6.598677635E-1,3.329117596E-1,-2.047865391E-1
1.971305120E1,-6.876612902E-1,4.062134326E-1,-2.008160353E-1
1.972220385E1,-7.105680704E-1,4.779879749E-1,-1.789782494E-1
1.973135651E1,-7.579087615E-1,5.329642296E-1,-1.452289373E-1
1.974049635E1,-8.223531246E-1,5.413633585E-1,-1.047603041E-1
1.974966177E1,-8.719844818E-1,4.830274582E-1,-5.497625470E-2
1.975881443E1,-8.826742768E-1,3.477247953E-1,6.108472589E-4
1.976796703E1,-8.657232523E-1,1.418692768E-1,6.322269142E-2
1.977711969E1,-8.318212628E-1,-1.035386100E-1,1.307213157E-1
1.978627234E1,-8.113578558E-1,-3.576510847E-1,1.890572309E-1
1.979541224E1,-7.887565494E-1,-6.154286265E-1,2.125748396E-1
1.980457760E1,-7.774558663E-1,-8.481613994E-1,2.000524700E-1
1.981373026E1,-7.956285477E-1,-1.013395548E0,1.737860441E-1
1.982287016E1,-8.374716043E-1,-1.066539288E0,1.398840249E-1
1.983203552E1,-8.574768305E-1,-9.373451471E-1,6.398624927E-2
1.984118818E1,-8.157865405E-1,-6.322268844E-1,-8.185353130E-2
1.985034083E1,-6.638382673E-1,-2.916795611E-1,-2.751866877E-1
1.985949344E1,-4.610369802E-1,-1.664558798E-2,-4.295783341E-1
1.986864609E1,-3.061871827E-1,1.400367320E-1,-4.744756222E-1
1.987778599E1,-2.464768738E-1,2.585411072E-1,-4.136963189E-1
1.988695135E1,-3.642176688E-1,5.002838969E-1,-3.469612300E-1
1.989610401E1,-6.632274389E-1,4.957025647E-1,-3.293993771E-1
1.990525667E1,-1.000262380E0,1.884463727E-1,-3.023693860E-1
1.991440932E1,-1.166718245E0,1.710372269E-1,-2.290677279E-1
1.992356193E1,-1.196649790E0,7.191199064E-1,-1.368297935E-1
1.993270182E1,-1.261552334E0,1.109145880E0,-6.062658876E-2
1.994186724E1,-1.365243673E0,1.259719729E0,-2.489202656E-2
1.995101984E1,-1.463437319E0,1.343405843E0,-1.939439960E-2
1.996015974E1,-1.383110881E0,1.066233873E0,-5.772506446E-2
1.996932516E1,-1.221541762E0,6.768187881E-1,-1.461452097E-1
1.997847776E1,-1.253458619E0,4.175141156E-1,-2.090624720E-1
1.998761766E1,-1.372268319E0,5.085303262E-2,-2.034121305E-1
1.999678307E1,-1.308740258E0,-4.097257853E-1,-1.417165697E-1
2.000593568E1,-1.144269586E0,-6.478035450E-1,-6.337540597E-2
2.001508833E1,-1.041647315E0,-7.035433054E-1,-3.359660041E-3
2.002424099E1,-9.900307059E-1,-7.098045349E-1,3.909422457E-2
2.003339364E1,-9.440644383E-1,-7.656970620E-1,7.727217674E-2
2.004254625E1,-9.074136019E-1,-7.522584200E-1,1.087308154E-1
2.005169891E1,-9.051229358E-1,-5.919110179E-1,1.116323397E-1
2.006085156E1,-9.306257963E-1,-4.095730782E-1,7.773031294E-2
2.007000417E1,-9.358180165E-1,-2.837385535E-1,2.275406010E-2
2.007915682E1,-9.384140968E-1,-1.713426560E-1,-2.870982140E-2
2.008830948E1,-9.097042680E-1,-5.512896553E-2,-7.131642103E-2
2.009746208E1,-8.699992299E-1,6.413896382E-2,-1.017060652E-1
2.010661474E1,-8.451071978E-1,1.995943487E-1,-1.247655526E-1
2.011576740E1,-8.585458398E-1,3.297048211E-1,-1.353026628E-1
2.012492000E1,-8.823688626E-1,4.563029110E-1,-1.404948682E-1
2.013407266E1,-9.156600237E-1,5.809157491E-1,-1.462979168E-1
2.014322531E1,-9.472714067E-1,6.838434935E-1,-1.435490996E-1
2.015237797E1,-9.556705356E-1,7.779139876E-1,-1.369825006E-1
2.016153057E1,-9.535325766E-1,8.280034661E-1,-1.302631795E-1
2.017068323E1,-9.512419105E-1,8.322793841E-1,-1.265980899E-1
2.017983589E1,-9.387195110E-1,8.112051487E-1,-1.178935245E-1
2.018898849E1,-9.304730892E-1,7.809682488E-1,-1.203369126E-1
2.019814114E1,-9.368869662E-1,7.568397522E-1,-1.398840249E-1
2.020729380E1,-9.341381788E-1,7.398887277E-1,-1.637070626E-1
2.021644641E1,-9.174925685E-1,7.404996157E-1,-1.763821393E-1
2.022559906E1,-9.016105533E-1,7.459971905E-1,-1.707318127E-1
2.023475172E1,-8.964183331E-1,7.218687534E-1,-1.658450365E-1
2.024390437E1,-9.034430981E-1,6.850652099E-1,-1.731752008E-1
2.025305703E1,-9.271134138E-1,6.415423155E-1,-1.849340051E-1
2.026220964E1,-9.532271624E-1,6.131379604E-1,-1.979145110E-1
2.027136229E1,-9.510892034E-1,5.763344169E-1,-2.101314515E-1
2.028051490E1,-9.268079996E-1,4.967715442E-1,-2.189887464E-1
2.028966755E1,-9.229902029E-1,3.968980014E-1,-2.188360244E-1
2.029882021E1,-9.329164624E-1,3.503209054E-1,-2.353289127E-1
2.030797281E1,-9.287932515E-1,3.219164908E-1,-2.756448388E-1
2.031712547E1,-9.220739603E-1,2.861819267E-1,-3.287885487E-1
2.032627812E1,-9.875873327E-1,2.425063550E-1,-3.657447994E-1
2.033543078E1,-1.095554590E0,2.693836391E-1,-3.836120665E-1
2.034458338E1,-1.149156451E0,3.457395434E-1,-3.901786804E-1
2.035373604E1,-1.115407109E0,3.626905680E-1,-3.869717419E-1
2.036288870E1,-1.029888511E0,3.002314270E-1,-3.771981895E-1
2.037204130E1,-9.561286569E-1,1.805053651E-1,-3.680354655E-1
2.038119396E1,-9.326110482E-1,1.003316641E-1,-3.732276857E-1
2.039034661E1,-9.211576581E-1,1.388150454E-1,-3.878880143E-1
2.039949922E1,-8.851176500E-1,1.075091213E-1,-3.961344361E-1
2.040865187E1,-8.168554902E-1,-1.710372418E-2,-3.888042867E-1
2.041780453E1,-7.478297353E-1,-1.740914732E-1,-3.668137789E-1
2.042695714E1,-7.172874212E-1,-3.504736125E-1,-3.365768492E-1
2.043610979E1,-7.168292403E-1,-4.943281412E-1,-3.058817685E-1
2.044526245E1,-7.290462255E-1,-5.798467398E-1,-2.816005945E-1
2.045441510E1,-7.319477201E-1,-5.496098399E-1,-2.651077211E-1
2.046356771E1,-6.985038519E-1,-4.291202128E-1,-2.399102598E-1
2.047272036E1,-6.719319820E-1,-3.113794029E-1,-2.067717910E-1
2.048187302E1,-6.671979427E-1,-1.696628332E-1,-1.916533262E-1
2.049102562E1,-6.436802745E-1,4.001049697E-2,-2.038702667E-1
2.050017828E1,-6.070294380E-1,3.051182032E-1,-2.354816198E-1
2.050933094E1,-5.899257660E-1,5.393781066E-1,-2.643441558E-1
2.051848354E1,-6.073349118E-1,7.001836896E-1,-2.742704153E-1
2.052763620E1,-6.375718117E-1,8.490777016E-1,-2.672456801E-1
2.053678885E1,-6.697940230E-1,9.900307059E-1,-2.524326444E-1
2.054594151E1,-6.807892919E-1,1.050962687E0,-2.377723008E-1
2.055509411E1,-6.566607952E-1,1.022711039E0,-2.125748396E-1
2.056423401E1,-6.268820167E-1,9.181034565E-1,-1.750077456E-1
2.057339943E1,-6.441384554E-1,6.988092661E-1,-1.401894391E-1
2.058255203E1,-7.088882327E-1,4.735593498E-1,-1.050657257E-1
2.059170469E1,-7.792884111E-1,3.295520842E-1,-8.353336155E-2
2.060085734E1,-8.428165317E-1,2.684673667E-1,-8.582404256E-2
2.061001000E1,-8.851176500E-1,2.629697323E-1,-1.091889441E-1
2.061916260E1,-9.110786915E-1,2.777827978E-1,-1.453816444E-1
2.062831526E1,-9.287932515E-1,2.751866877E-1,-1.889045089E-1
2.063746792E1,-9.413156509E-1,2.580829561E-1,-2.377723008E-1
2.064662052E1,-9.555178285E-1,2.205158621E-1,-2.916795611E-1
2.065577318E1,-9.776610136E-1,1.702736765E-1,-3.436015844E-1
2.066492583E1,-9.779664874E-1,1.369825006E-1,-3.820849657E-1
2.067407844E1,-9.268079996E-1,8.215895295E-2,-3.956763148E-1
2.068323109E1,-8.278507590E-1,-2.794626169E-2,-3.846810758E-1
2.069238375E1,-7.131641507E-1,-1.945548505E-1,-3.593308926E-1
2.070153641E1,-6.085565686E-1,-3.822376728E-1,-3.290939629E-1
2.071068901E1,-5.056288242E-1,-5.398362875E-1,-2.904578745E-1
2.071984167E1,-4.013266563E-1,-6.526902914E-1,-2.351761907E-1
2.072899432E1,-3.042019308E-1,-7.227849960E-1,-1.721062213E-1
2.073814693E1,-2.211267054E-1,-7.345438004E-1,-1.148392856E-1
2.074729958E1,-1.571404636E-1,-6.733064055E-1,-7.360709459E-2
2.075645224E1,-1.061347127E-1,-5.358657837E-1,-4.092676565E-2
2.076560484E1,-8.582404256E-2,-3.319954872E-1,-2.076880634E-2
2.077475750E1,-8.811471611E-2,-8.124268800E-2,-9.926267900E-3
2.078391016E1,-9.987352788E-2,2.049392611E-1,-1.206423342E-2
2.079306281E1,-1.169772521E-1,4.802786708E-1,-2.275406010E-2
2.080221542E1,-1.392731816E-1,7.084301114E-1,-3.588727489E-2
2.081136807E1,-1.678302884E-1,8.626690507E-1,-5.085303262E-2
2.082052073E1,-1.997470558E-1,9.402466416E-1,-7.192726433E-2
2.082967338E1,-2.243336588E-1,9.449806809E-1,-9.590301663E-2
2.083882599E1,-2.304421216E-1,8.857285380E-1,-1.209477559E-1
2.084797864E1,-2.173089087E-1,7.995990515E-1,-1.409530044E-1
2.085713130E1,-1.916533262E-1,6.928535104E-1,-1.510319859E-1
2.086628391E1,-1.517955512E-1,5.657972693E-1,-1.513374150E-1
2.087543656E1,-1.097997949E-1,4.176668227E-1,-1.386623234E-1
2.088458922E1,-7.452336699E-2,2.521272004E-1,-1.279724985E-1
2.089374182E1,-5.375456065E-2,5.986303091E-2,-1.227803007E-1
2.090289448E1,-5.772506446E-2,-1.226275861E-1,-1.140757278E-1
2.091204714E1,-7.941014320E-2,-2.455606014E-1,-9.712471068E-2
2.092119979E1,-1.128540337E-1,-3.141281903E-1,-7.284353673E-2
2.093035245E1,-1.592784226E-1,-3.646758199E-1,-5.238015205E-2
2.093950505E1,-2.082989216E-1,-4.153761268E-1,-3.741439432E-2
2.094865771E1,-2.391466945E-1,-4.691306949E-1,-3.390202299E-2
2.095781031E1,-2.388412803E-1,-5.082249045E-1,-3.390202299E-2
2.096696297E1,-2.104368806E-1,-5.292991400E-1,-3.069507517E-2
2.097611562E1,-1.617218107E-1,-5.322006941E-1,-3.145863488E-2
2.098526828E1,-1.156028435E-1,-5.074613690E-1,-3.603998944E-2
2.099442088E1,-8.368607610E-2,-4.350759685E-1,-4.077405483E-2
2.100357354E1,-5.772506446E-2,-3.000787199E-1,-4.184303805E-2
2.101272620E1,-3.268032894E-2,-1.223221645E-1,-3.695625812E-2
2.102187880E1,-1.710372418E-2,6.765133142E-2,-3.023693897E-2
2.103103146E1,-1.313321572E-2,2.399102598E-1,-2.855710872E-2
2.104018411E1,-1.130067464E-2,3.839175105E-1,-3.115320951E-2
2.104933677E1,-6.108472589E-4,4.876088202E-1,-3.649812192E-2
2.105848937E1,1.878355257E-2,5.352548957E-1,-4.443913698E-2
2.106764203E1,4.489727318E-2,5.158604980E-1,-5.161659420E-2
2.107679469E1,6.642963737E-2,4.442386627E-1,-4.825693369E-2
2.108594729E1,7.864658535E-2,3.793361485E-1,-3.466558084E-2
2.109509995E1,8.368607610E-2,3.527642787E-1,-1.084253844E-2
2.110425260E1,9.605573118E-2,3.463504016E-1,1.847812906E-2
2.111340526E1,1.047603041E-1,3.252761662E-1,3.573456407E-2
2.112255786E1,9.712471068E-2,2.880144715E-1,4.184303805E-2
2.113171052E1,6.841489673E-2,2.440334857E-1,4.092676565E-2
2.114086318E1,3.695625812E-2,1.957765520E-1,3.710897267E-2
2.115001578E1,1.954711229E-2,1.438545287E-1,2.916795574E-2
2.115916844E1,1.252236869E-2,9.132166207E-2,2.305948362E-2
2.116832109E1,1.068982668E-2,2.626643144E-2,1.756185852E-2
2.117747370E1,6.413896102E-3,-4.734066129E-2,1.084253844E-2
2.118662635E1,8.857285604E-3,-1.136175916E-1,8.551862091E-3
2.119577901E1,2.214321308E-2,-1.510319859E-1,7.941014133E-3
2.120493167E1,3.268032894E-2,-1.514901221E-1,6.872031838E-3
2.121408427E1,4.413371533E-2,-1.189625040E-1,6.261184346E-3
2.122323693E1,5.405998230E-2,-6.536065787E-2,7.024743594E-3
2.123238958E1,5.482354015E-2,-8.093725890E-3,5.650337320E-3
2.124154219E1,4.566083103E-2,5.390727147E-2,3.665083554E-3
2.125069484E1,3.527642787E-2,1.142284349E-1,-0.000000000E0
2.125984750E1,3.054236248E-2,1.623326540E-1,-1.374406274E-3
2.126900016E1,2.718270384E-2,1.936385781E-1,1.068982761E-3
2.127815276E1,2.519745007E-2,2.118112892E-1,4.734066315E-3
2.128730542E1,3.069507517E-2,2.142546773E-1,1.267508045E-2
2.129645807E1,4.260659590E-2,1.944021434E-1,2.015795931E-2
2.130561068E1,5.085303262E-2,1.571404636E-1,2.504473738E-2
2.131476333E1,6.047387794E-2,1.221694499E-1,2.519745007E-2
2.132391599E1,6.734590977E-2,9.865183383E-2,2.519745007E-2
2.133306864E1,7.986827940E-2,7.879929990E-2,2.535016090E-2
2.134222125E1,9.254335612E-2,4.810422286E-2,2.550287358E-2
2.135137391E1,9.651386738E-2,8.399149403E-3,2.489202656E-2
2.136052656E1,9.437590092E-2,-2.840439789E-2,2.244863659E-2
2.136967922E1,9.269607067E-2,-4.657710344E-2,2.489202656E-2
2.137883182E1,9.513945878E-2,-5.436540768E-2,3.038965166E-2
2.138798448E1,9.758284688E-2,-5.787777901E-2,3.542914242E-2
2.139713714E1,9.407047927E-2,-6.994201243E-2,3.710897267E-2
2.140628974E1,8.200624585E-2,-9.223793447E-2,3.344388679E-2
2.141544240E1,6.719319522E-2,-9.834641218E-2,2.718270384E-2
2.142459505E1,5.986303091E-2,-9.116895497E-2,2.107422985E-2
2.143374771E1,6.658235192E-2,-8.933641016E-2,1.801999472E-2
2.144290031E1,8.322793990E-2,-8.506047726E-2,1.328592747E-2
2.145205297E1,1.039967462E-1,-7.131642103E-2,1.038440317E-2
2.146120562E1,1.156028435E-1,-5.024218559E-2,6.108472589E-3
2.147035823E1,1.191152185E-1,-3.329117596E-2,3.206948051E-3
2.147951088E1,1.146865711E-1,-1.649287529E-2,1.221694518E-3
2.148866354E1,1.029277667E-1,-3.817795310E-3,5.344913341E-3
2.149781614E1,8.368607610E-2,1.298050396E-2,1.191152167E-2
2.150696880E1,6.795676053E-2,3.833066672E-2,1.740914769E-2
2.151612146E1,6.093201414E-2,5.589252338E-2,2.397575416E-2
2.152527411E1,5.543438718E-2,5.405998230E-2,3.008422814E-2
2.153442672E1,4.627167806E-2,4.504998401E-2,3.252761811E-2
2.154357937E1,4.138490185E-2,3.909422457E-2,3.069507517E-2
2.155273203E1,4.581354558E-2,3.054236248E-2,2.580829710E-2
2.156188464E1,5.772506446E-2,1.175880991E-2,1.603474095E-2
2.157103729E1,6.658235192E-2,-9.315420873E-3,4.581354558E-3
2.158018995E1,6.795676053E-2,-2.443389036E-2,-2.748812549E-3
2.158934260E1,7.238540053E-2,-3.038965166E-2,-2.748812549E-3
2.159849521E1,8.032641560E-2,-2.855710872E-2,4.581354442E-4
2.160764786E1,8.444963396E-2,-1.404948719E-2,4.123218823E-3
2.161680052E1,8.002099395E-2,-7.635590737E-4,6.413896102E-3
2.162595312E1,6.826218218E-2,7.635590620E-3,9.468132630E-3
2.163510578E1,6.139015034E-2,1.374406368E-2,1.557660475E-2
2.164425844E1,6.200099736E-2,1.130067464E-2,1.679829881E-2
2.165341109E1,6.261184067E-2,5.192201585E-3,1.740914769E-2
2.166256370E1,6.383354217E-2,4.581354558E-3,1.496575773E-2
2.167171635E1,7.375980914E-2,1.068982668E-2,1.740914769E-2
2.168086901E1,9.086353332E-2,1.985253580E-2,2.061609551E-2
2.169002167E1,1.032331884E-1,2.229592577E-2,2.367033064E-2
2.169917427E1,1.068982705E-1,2.107422985E-2,2.504473738E-2
2.170832693E1,1.081199646E-1,2.046338283E-2,2.565558441E-2
2.171747958E1,1.099525094E-1,1.740914769E-2,2.993151546E-2
2.172663219E1,1.088835225E-1,5.955760833E-3,3.298575059E-2
2.173578484E1,1.021642014E-1,-1.221694518E-3,3.466558084E-2
2.174493750E1,8.551861346E-2,-1.221694518E-3,3.588727489E-2
2.175409010E1,7.131642103E-2,4.123218823E-3,3.451287001E-2
2.176324276E1,6.627693027E-2,1.068982761E-3,3.329117596E-2
2.177239542E1,7.192726433E-2,-4.275931045E-3,3.023693897E-2
2.178154807E1,7.941014320E-2,-9.773556143E-3,2.535016090E-2
2.179070068E1,8.933641016E-2,-1.389677543E-2,1.878355257E-2
2.179985333E1,9.987352788E-2,-1.511846948E-2,1.450762246E-2
2.180900599E1,1.059819981E-1,-2.061609551E-2,1.160609815E-2
2.181815864E1,1.000262350E-1,-2.367033064E-2,7.177455351E-3
2.182731125E1,8.582404256E-2,-2.122694254E-2,7.177455351E-3
2.183646391E1,7.528692484E-2,-1.832541823E-2,6.413896102E-3
2.184561656E1,7.024743408E-2,-9.773556143E-3,1.007897966E-2
2.185476917E1,6.215370819E-2,-5.650337320E-3,1.496575773E-2
2.186392182E1,4.672981426E-2,-6.872031838E-3,1.542389300E-2
2.187307448E1,2.947338112E-2,-3.206948051E-3,1.282779220E-2
2.188222714E1,1.649287529E-2,2.748812549E-3,6.566607859E-3
2.189137974E1,6.566607859E-3,9.926267900E-3,4.581354442E-4
2.190053240E1,-4.581354558E-3,1.527118124E-2,-5.650337320E-3
2.190968505E1,-1.068982668E-2,2.015795931E-2,-9.468132630E-3
2.191883766E1,-1.374406368E-2,1.832541823E-2,-7.024743594E-3
2.192799031E1,-1.435491070E-2,1.221694518E-2,-2.748812549E-3
2.193714297E1,-1.420219894E-2,1.527118147E-4,-2.137965523E-3
2.194629562E1,-1.542389300E-2,-1.236965694E-2,-2.137965523E-3
2.195544823E1,-1.527118124E-2,-2.382304333E-2,3.054236295E-4
2.196460089E1,-1.038440317E-2,-2.687728032E-2,5.803049076E-3
2.197375354E1,7.635590737E-4,-2.916795574E-2,9.620844387E-3
2.198290620E1,1.557660475E-2,-3.588727489E-2,1.282779220E-2