"Time (s)","Gyroscope x (rad/s)","Gyroscope y (rad/s)","Gyroscope z (rad/s)"
8.945900014E0,3.817795310E-3,3.054236248E-2,1.084253844E-2
8.955052358E0,8.093725890E-3,2.641914412E-2,8.399149403E-3
8.964204754E0,1.618745178E-2,2.764083818E-2,7.788302377E-3
8.973357097E0,2.229592577E-2,2.702999115E-2,9.620844387E-3
8.982509441E0,2.840439789E-2,2.580829710E-2,1.221694518E-2
8.991661837E0,2.962609194E-2,2.825168520E-2,1.466033421E-2
9.000814181E0,2.596100792E-2,3.252761811E-2,1.710372418E-2
9.009966524E0,2.275406010E-2,3.252761811E-2,1.817270555E-2
9.019118920E0,1.908897609E-2,3.191677108E-2,1.572931744E-2
9.028271264E0,2.046338283E-2,2.947338112E-2,1.145338640E-2
9.037423608E0,2.412846684E-2,2.886253223E-2,9.162709117E-3
9.046576004E0,3.161134571E-2,2.825168520E-2,6.719320081E-3
9.055728347E0,3.649812192E-2,2.702999115E-2,7.330167107E-3
9.064880743E0,3.771981969E-2,2.825168520E-2,7.941014133E-3
9.074033087E0,3.390202299E-2,2.886253223E-2,9.773556143E-3
9.083185431E0,2.718270384E-2,3.008422814E-2,1.160609815E-2
9.092337774E0,2.168507688E-2,3.069507517E-2,1.145338640E-2
9.101490170E0,1.786728203E-2,3.115320951E-2,1.267508045E-2
9.110642514E0,1.603474095E-2,3.481829539E-2,1.389677543E-2
9.119794910E0,1.481304597E-2,4.092676565E-2,1.511846948E-2
9.128947254E0,1.099525020E-2,4.566083103E-2,1.328592747E-2
9.138099597E0,7.330167107E-3,5.161659420E-2,1.145338640E-2
9.147251993E0,6.719320081E-3,5.161659420E-2,5.344913341E-3
9.156404337E0,9.162709117E-3,5.405998230E-2,1.679830020E-3
9.165556681E0,1.527118124E-2,5.344913527E-2,1.068982761E-3
9.174709024E0,2.260134928E-2,5.528167635E-2,1.068982761E-3
9.183861420E0,2.886253223E-2,5.528167635E-2,-0.000000000E0
9.193013764E0,3.069507517E-2,5.589252338E-2,-0.000000000E0
9.202166160E0,2.947338112E-2,5.833591148E-2,-1.221694518E-3
9.211318504E0,2.321219631E-2,6.184828654E-2,-3.206948051E-3
9.220470847E0,1.771457121E-2,6.490252167E-2,-5.039489828E-3
9.229623243E0,1.466033421E-2,6.734590977E-2,-6.261184346E-3
9.238775587E0,1.511846948E-2,7.146912813E-2,-7.482878864E-3
9.247927931E0,1.893626526E-2,7.269082218E-2,-9.315420873E-3
9.257080327E0,2.382304333E-2,7.391251624E-2,-8.093725890E-3
9.266232670E0,2.748812735E-2,7.513421029E-2,-4.886778072E-3
9.275385014E0,2.809897438E-2,7.269082218E-2,-4.275931045E-3
9.284537410E0,2.687728032E-2,7.040014863E-2,-4.886778072E-3
9.293689754E0,2.504473738E-2,7.085828483E-2,-7.330167107E-3
9.302842097E0,2.809897438E-2,7.330167294E-2,-7.941014133E-3
9.311994493E0,3.054236248E-2,8.063183725E-2,-7.330167107E-3
9.321146837E0,3.222219273E-2,9.147437662E-2,-5.497625098E-3
9.330299181E0,3.222219273E-2,9.620844573E-2,-4.275931045E-3
9.339451577E0,2.916795574E-2,9.681928903E-2,-9.773556143E-3
9.348603920E0,2.489202656E-2,9.559759498E-2,-1.664558798E-2
9.357756264E0,2.794626169E-2,9.071081877E-2,-2.260134928E-2
9.366908608E0,3.542914242E-2,8.475505561E-2,-2.687728032E-2
9.376061004E0,4.779879749E-2,8.108997345E-2,-2.626643144E-2
9.385213347E0,5.894676223E-2,8.170082420E-2,-2.367033064E-2
9.394365691E0,6.261184067E-2,8.246438205E-2,-2.000524849E-2
9.403518087E0,6.505523622E-2,8.063183725E-2,-1.817270555E-2
9.412670431E0,6.704048812E-2,7.635590434E-2,-1.939439960E-2
9.421822827E0,7.452336699E-2,6.490252167E-2,-2.473931387E-2
9.430975170E0,8.750387281E-2,5.650337040E-2,-2.962609194E-2
9.440127514E0,1.085781008E-1,5.283828825E-2,-2.764083818E-2
9.449279858E0,1.287360638E-1,5.833591148E-2,-2.076880634E-2
9.458432254E0,1.427855492E-1,6.810946763E-2,-9.620844387E-3
9.467584597E0,1.408002973E-1,8.017370105E-2,-2.901524538E-3
9.476736941E0,1.247655526E-1,8.674030751E-2,-2.443389036E-3
9.485889337E0,1.087308154E-1,9.208522737E-2,-6.261184346E-3
9.495041681E0,9.819369763E-2,1.029277667E-1,-1.359135192E-2
9.504194024E0,1.029277667E-1,1.149920002E-1,-2.092151903E-2
9.513346420E0,1.159082651E-1,1.264453828E-1,-2.397575416E-2
9.522498764E0,1.368297935E-1,1.331647038E-1,-2.199050039E-2
9.531651108E0,1.534753740E-1,1.307213157E-1,-1.939439960E-2
9.540803504E0,1.646233350E-1,1.247655526E-1,-1.985253580E-2
9.549955847E0,1.708845198E-1,1.149920002E-1,-2.535016090E-2
9.559108191E0,1.728697717E-1,1.053711548E-1,-3.268032894E-2
9.568260587E0,1.698155403E-1,9.880454093E-2,-4.062134400E-2
9.577412931E0,1.685938388E-1,9.697200358E-2,-4.489727318E-2
9.586565274E0,1.728697717E-1,1.010952219E-1,-4.734066129E-2
9.595717670E0,1.814216375E-1,1.065928489E-1,-4.840964451E-2
9.604870014E0,1.895153672E-1,1.096470803E-1,-4.963133857E-2
9.614022358E0,1.931804419E-1,1.041494608E-1,-4.657710344E-2
9.623174702E0,1.913478971E-1,9.269607067E-2,-4.046862945E-2
9.632327097E0,1.872246861E-1,7.589777559E-2,-3.863608837E-2
9.641479441E0,1.885990947E-1,6.261184067E-2,-3.924693540E-2
9.650631785E0,1.966928244E-1,4.871506989E-2,-3.542914242E-2
9.659784181E0,2.102841735E-1,4.031591862E-2,-3.176405653E-2
9.668936524E0,2.226538211E-1,3.374931216E-2,-2.550287358E-2
9.678088868E0,2.325800955E-1,2.351761982E-2,-2.122694254E-2
9.687241264E0,2.302894145E-1,6.719320081E-3,-2.061609551E-2
9.696393608E0,2.212794125E-1,-1.863084175E-2,-1.939439960E-2
9.705545952E0,2.096733153E-1,-2.886253223E-2,-1.221694518E-2
9.714698295E0,2.136438340E-1,-2.901524538E-3,3.817795310E-3
9.723850691E0,2.354816198E-1,3.695625812E-2,2.641914412E-2
9.733003035E0,2.651077211E-1,7.269082218E-2,5.222744122E-2
9.742155379E0,2.938175201E-1,9.284878522E-2,7.803573459E-2
9.751307774E0,3.176405728E-1,1.169772521E-1,9.895725548E-2
9.760460118E0,3.350497186E-1,1.568350345E-1,1.174353883E-1
9.769612462E0,3.487937748E-1,1.876828223E-1,1.334701329E-1
9.778764858E0,3.704788685E-1,1.751604527E-1,1.481304616E-1
9.787917202E0,3.988832533E-1,9.254335612E-2,1.545443535E-1
9.797069545E0,4.167505503E-1,-3.512371704E-2,1.432436854E-1
9.806221889E0,4.054498672E-1,-1.328592747E-1,1.090362370E-1
9.815374285E0,3.516952991E-1,-1.615691036E-1,6.047387794E-2
9.824526629E0,2.432699203E-1,-1.456870735E-1,1.527118147E-3
9.833678972E0,9.773556143E-2,-1.099525094E-1,-5.680879578E-2
9.842831316E0,-3.619270027E-2,-6.581879407E-2,-1.061347127E-1
9.851983712E0,-1.270562261E-1,-2.382304333E-2,-1.281252056E-1
9.861136056E0,-1.852394342E-1,3.817795310E-3,-1.267508119E-1
9.870288399E0,-2.339545041E-1,1.374406274E-3,-1.136175916E-1
9.879440743E0,-2.843494117E-1,-2.993151546E-2,-1.004843712E-1
9.888593139E0,-3.338280320E-1,-7.345438004E-2,-9.666658193E-2
9.897745483E0,-3.629959822E-1,-1.156028435E-1,-9.605573118E-2
9.906897827E0,-3.603998721E-1,-1.440072358E-1,-9.910997003E-2
9.916050222E0,-3.300102353E-1,-1.608055383E-1,-1.038440317E-1
9.925202566E0,-2.829749882E-1,-1.698155403E-1,-1.151447073E-1
9.934354910E0,-2.336490750E-1,-1.692046970E-1,-1.299577504E-1
9.943507254E0,-1.800472289E-1,-1.624853760E-1,-1.357607991E-1
9.952659649E0,-1.217113137E-1,-1.449235082E-1,-1.261399537E-1
9.961811993E0,-5.909947306E-2,-1.249182671E-1,-1.056765765E-1
9.970964337E0,-3.970507067E-3,-1.006370857E-1,-8.322793990E-2
9.980116681E0,3.955236077E-2,-7.452336699E-2,-6.276455522E-2
9.989269077E0,7.360709459E-2,-3.817795217E-2,-4.306473210E-2
9.998421420E0,1.113269106E-1,2.901524538E-3,-1.847812906E-2
1.000757376E1,1.591257155E-1,3.084778599E-2,6.413896102E-3
1.001672611E1,2.200577259E-1,2.489202656E-2,3.008422814E-2
1.002587850E1,3.034383655E-1,-9.773556143E-3,5.207473040E-2
1.003503085E1,4.149180055E-1,-6.856760383E-2,7.299624383E-2
1.004418319E1,5.512896776E-1,-1.658450365E-1,9.544488788E-2
1.005333554E1,7.079719901E-1,-3.197785318E-1,1.241547018E-1
1.006248788E1,8.765658140E-1,-5.242596865E-1,1.595838517E-1
1.007164027E1,1.045312405E0,-7.401941419E-1,2.134911120E-1
1.008079262E1,1.190235853E0,-9.294040799E-1,2.878617644E-1
1.008994496E1,1.301104665E0,-1.086086392E0,3.736858070E-1
1.009909731E1,1.385554314E0,-1.209172130E0,4.555393457E-1
1.010824970E1,1.485580564E0,-1.314848781E0,5.173876286E-1
1.011740204E1,1.630504012E0,-1.415791273E0,5.454866290E-1
1.012655439E1,1.822310090E0,-1.492758036E0,5.369347334E-1
1.013570673E1,2.054279327E0,-1.511694312E0,5.094466209E-1
1.014485913E1,2.299076319E0,-1.492758036E0,4.738647640E-1
1.015401147E1,2.509207726E0,-1.458245158E0,4.240806997E-1
1.016316382E1,2.655200243E0,-1.365396380E0,3.712424338E-1
1.017231616E1,2.721629858E0,-1.255138397E0,3.344388604E-1
1.018146850E1,2.692156553E0,-1.184890985E0,2.877090573E-1
1.019060814E1,2.561588049E0,-1.164274931E0,2.330382317E-1
1.019977324E1,2.381082535E0,-1.171299577E0,2.116585821E-1
1.020892559E1,2.218750000E0,-1.139535546E0,2.141019702E-1
1.021807793E1,2.113531590E0,-1.019809484E0,2.163926363E-1
1.022723027E1,2.064816475E0,-8.741224408E-1,2.121167034E-1
1.023638267E1,2.030608892E0,-7.006418109E-1,2.118112892E-1
1.024553501E1,1.992125630E0,-5.349494815E-1,2.186833173E-1
1.025468736E1,1.955322027E0,-4.355340898E-1,2.330382317E-1
1.026383970E1,1.937607527E0,-3.811686933E-1,2.432699203E-1
1.027299204E1,1.950587988E0,-3.860554695E-1,2.464768738E-1
1.028214444E1,1.984642744E0,-4.763081372E-1,2.480039895E-1
1.029129678E1,2.004647970E0,-5.685460567E-1,2.469350100E-1
1.030044913E1,1.980519533E0,-6.366555691E-1,2.504473627E-1
1.030960147E1,1.919282079E0,-6.891884208E-1,2.623589039E-1
1.031875382E1,1.836817741E0,-7.065975666E-1,2.825168669E-1
1.032790621E1,1.768860936E0,-7.139277458E-1,3.083251417E-1
1.033705856E1,1.725796223E0,-7.331694365E-1,3.373403847E-1
1.034621090E1,1.690825224E0,-7.434011102E-1,3.345915973E-1
1.035536324E1,1.652189136E0,-7.574505806E-1,3.106158376E-1
1.036451559E1,1.608819008E0,-7.823426127E-1,2.852656841E-1
1.037366793E1,1.560256600E0,-7.861604095E-1,2.617480457E-1
1.038282033E1,1.518566251E0,-7.380561829E-1,2.417428046E-1
1.039197267E1,1.484206080E0,-6.826218367E-1,2.305948436E-1
1.040112501E1,1.445875406E0,-6.575770974E-1,2.192941606E-1
1.041027736E1,1.389219403E0,-6.552863717E-1,1.986780763E-1
1.041942970E1,1.317750216E0,-6.613948941E-1,1.823379099E-1
1.042858204E1,1.247197390E0,-6.797202826E-1,1.629435122E-1
1.043773444E1,1.179545999E0,-6.997255087E-1,1.368297935E-1
1.044688678E1,1.106549859E0,-7.120952010E-1,1.033858955E-1
1.045603913E1,1.020420313E0,-7.154548764E-1,7.284353673E-2
1.046519147E1,9.243646264E-1,-7.127060294E-1,5.207473040E-2
1.047434382E1,8.251019120E-1,-7.056813240E-1,3.970507160E-2
1.048349616E1,7.299624681E-1,-6.821636558E-1,3.603998944E-2
1.049264850E1,6.430694461E-1,-6.178719997E-1,3.405473381E-2
1.050180090E1,5.607577562E-1,-5.083776116E-1,3.405473381E-2
1.051095324E1,4.694361091E-1,-3.645231128E-1,3.023693897E-2
1.052010559E1,3.776563108E-1,-2.182251811E-1,2.275406010E-2
1.052925793E1,2.889307439E-1,-8.521319181E-2,1.221694518E-2
1.053841027E1,2.133384049E-1,2.901524492E-2,7.941014133E-3
1.054756262E1,1.540862173E-1,9.773556143E-2,1.786728203E-2
1.055671496E1,9.269607067E-2,8.032641560E-2,3.817795217E-2
1.056586736E1,1.023169141E-2,3.680354729E-2,5.787777901E-2
1.057501970E1,-8.948912472E-2,2.214321308E-2,7.116370648E-2
1.058417204E1,-1.997470558E-1,1.603474095E-2,9.116895497E-2
1.059332439E1,-3.115321100E-1,-5.146388337E-2,1.215586066E-1
1.060247673E1,-4.037700295E-1,-1.592784226E-1,1.630962193E-1
1.061162908E1,-4.653128982E-1,-2.628170252E-1,2.084516287E-1
1.062078142E1,-5.123481154E-1,-3.356605768E-1,2.504473627E-1
1.062993376E1,-5.657972693E-1,-3.753656447E-1,2.878617644E-1
1.063908616E1,-6.452074051E-1,-3.976615667E-1,3.161134422E-1
1.064823850E1,-7.582141757E-1,-3.924693763E-1,3.396310806E-1
1.065739085E1,-8.817580342E-1,-3.684936166E-1,3.529170156E-1
1.066654319E1,-9.582666159E-1,-3.445178568E-1,3.486410677E-1
1.067569554E1,-9.268079996E-1,-3.264978528E-1,3.135173619E-1
1.068484788E1,-7.835643291E-1,-3.277195692E-1,2.350234836E-1
1.069400022E1,-5.835118294E-1,-3.104631305E-1,1.185043678E-1
1.070315257E1,-3.781144619E-1,-2.570139766E-1,-2.657185495E-2
1.071229220E1,-1.893626451E-1,-2.790044844E-1,-1.791309565E-1
1.072145731E1,3.298575059E-2,-4.665345848E-1,-3.159607351E-1
1.073060965E1,3.187095523E-1,-5.441122055E-1,-3.846810758E-1
1.073974923E1,4.840964675E-1,-2.441861928E-1,-3.165715933E-1
1.074891434E1,3.794888556E-1,1.330119967E-1,-1.496575773E-1
1.075806668E1,1.078145429E-1,3.182514310E-1,2.412846684E-2
1.076720626E1,-9.773556143E-2,4.347705245E-1,1.550024897E-1
1.077637137E1,-1.646233350E-1,7.043069005E-1,2.435753495E-1
1.078552371E1,-2.638860047E-1,1.114796281E0,2.846548259E-1
1.079466335E1,-5.015056133E-1,1.421136141E0,2.797680497E-1
1.080382840E1,-7.875348330E-1,1.518566251E0,2.397575527E-1
1.081298080E1,-9.950701594E-1,1.445264578E0,2.047865391E-1
1.082212038E1,-1.054627776E0,1.285375357E0,1.971509457E-1
1.083128548E1,-1.009577751E0,1.062568784E0,2.067717910E-1
1.084043783E1,-9.660549164E-1,6.697940230E-1,1.927223057E-1
1.084957741E1,-9.323056340E-1,1.501157135E-1,1.438545287E-1
1.085874251E1,-8.835905790E-1,-3.826957941E-1,1.049130186E-1
1.086789486E1,-8.353336453E-1,-7.650861740E-1,1.385096163E-1
1.087703444E1,-7.763868570E-1,-9.506310225E-1,2.655658424E-1
1.088619954E1,-6.931589246E-1,-9.752176404E-1,4.504998624E-1
1.089535189E1,-6.229115129E-1,-8.370134830E-1,6.255075932E-1
1.090449147E1,-6.719319820E-1,-6.510104537E-1,7.472189069E-1
1.091365658E1,-8.525900841E-1,-4.558447599E-1,8.006680608E-1
1.092280892E1,-1.071731567E0,-1.404948682E-1,8.020424247E-1
1.093194856E1,-1.229024649E0,2.339545041E-1,7.780666947E-1
1.094111366E1,-1.316681266E0,5.435013771E-1,7.417212725E-1
1.095026600E1,-1.320957184E0,6.969767213E-1,6.933116317E-1
1.095940559E1,-1.244753957E0,6.818582416E-1,6.316160560E-1
1.096857069E1,-1.133885264E0,5.954233408E-1,5.580089688E-1
1.097772304E1,-9.999569654E-1,4.042281806E-1,4.637857676E-1
1.098686262E1,-8.487722874E-1,1.027750522E-1,3.332171738E-1
1.099602772E1,-7.156075835E-1,-1.820324808E-1,1.774511337E-1
1.100518007E1,-6.346703172E-1,-3.542914093E-1,4.138490185E-2
1.101433241E1,-5.958815217E-1,-3.756710589E-1,-5.299099907E-2
1.102348475E1,-5.922164321E-1,-2.690782249E-1,-1.030804738E-1
1.103263710E1,-6.148177385E-1,-1.496575773E-2,-1.224748790E-1
1.104178944E1,-6.424586177E-1,3.321481943E-1,-1.168245375E-1
1.105094179E1,-6.673506498E-1,7.040014863E-1,-9.513945878E-2
1.106009413E1,-7.143858671E-1,9.801044464E-1,-6.520794332E-2
1.106924647E1,-7.395833135E-1,1.178935170E0,-4.474456236E-2
1.107839882E1,-7.682931423E-1,1.276518106E0,-4.627167806E-2
1.108755116E1,-8.360971808E-1,1.214364409E0,-2.840439789E-2
1.109669080E1,-8.719844818E-1,1.063332319E0,2.336490713E-2
1.110585590E1,-8.194515705E-1,8.846595287E-1,7.391251624E-2
1.111500824E1,-7.508839965E-1,6.933116317E-1,1.203369126E-1
1.112416059E1,-7.321004272E-1,5.253286362E-1,1.505738497E-1
1.113331293E1,-7.675296068E-1,3.956763148E-1,1.595838517E-1
1.114246527E1,-8.040276766E-1,2.877090573E-1,1.533226669E-1
1.115161762E1,-7.977665067E-1,2.672456801E-1,1.490467340E-1
1.116076996E1,-7.980719209E-1,3.116848171E-1,1.331647038E-1
1.116992231E1,-8.176190853E-1,3.796415627E-1,8.475505561E-2
1.117907465E1,-8.391514421E-1,4.196520746E-1,1.496575773E-2
1.118822699E1,-8.577822447E-1,4.645493329E-1,-6.276455522E-2
1.119737934E1,-8.747332692E-1,5.848862529E-1,-1.107160673E-1
1.120653168E1,-9.113841057E-1,7.076665759E-1,-1.336228400E-1
1.121568402E1,-9.530744553E-1,8.179244995E-1,-1.375933439E-1
1.122483637E1,-9.495620728E-1,9.222266674E-1,-1.259872466E-1
1.123398871E1,-9.300149679E-1,1.057834744E0,-1.052184403E-1
1.124314106E1,-9.126058221E-1,1.182142138E0,-8.628217876E-2
1.125229340E1,-8.958075047E-1,1.289498568E0,-7.528692484E-2
1.126144574E1,-8.924478292E-1,1.390135646E0,-7.101099193E-2
1.127059809E1,-9.171871543E-1,1.473821759E0,-7.681404054E-2
1.127975043E1,-9.620844126E-1,1.469545841E0,-8.628217876E-2
1.128890277E1,-1.050046444E0,1.384332657E0,-9.407047927E-2
1.129805512E1,-1.124569774E0,1.243226886E0,-9.819369763E-2
1.130720746E1,-1.110978484E0,1.164885759E0,-9.376505762E-2
1.131635981E1,-1.008814216E0,1.106091619E0,-9.239064902E-2
1.132551215E1,-8.898517489E-1,9.796462655E-1,-1.030804738E-1
1.133466449E1,-8.299887180E-1,8.458707333E-1,-1.356080920E-1
1.134381684E1,-8.350282311E-1,7.395833135E-1,-1.824906170E-1
1.135296918E1,-8.906152844E-1,7.116370797E-1,-2.249445021E-1
1.136212152E1,-9.680401683E-1,7.595885396E-1,-2.536543310E-1
1.137127387E1,-9.990406632E-1,8.516737819E-1,-2.625116110E-1
1.138042621E1,-9.575030804E-1,9.723161459E-1,-2.605263591E-1
1.138957856E1,-8.838959932E-1,1.073105931E0,-2.655658424E-1
1.139873090E1,-8.264763355E-1,1.068830013E0,-2.846548259E-1
1.140788324E1,-7.725690603E-1,9.831586480E-1,-3.116848171E-1
1.141703559E1,-7.073611021E-1,9.327637553E-1,-3.252761662E-1
1.142618793E1,-6.696413159E-1,9.333745837E-1,-3.261924386E-1
1.143534027E1,-6.488724947E-1,8.791618943E-1,-3.345915973E-1
1.144449262E1,-6.213843822E-1,8.550334573E-1,-3.600944579E-1
1.145364496E1,-5.909947157E-1,9.181034565E-1,-3.958290219E-1
1.146279731E1,-5.812211633E-1,1.004843712E0,-4.251496792E-1
1.147194965E1,-5.957288146E-1,1.063179612E0,-4.424061179E-1
1.148110199E1,-6.064186096E-1,1.087918997E0,-4.492781460E-1
1.149025434E1,-6.245913506E-1,1.113116384E0,-4.518742561E-1
1.149940668E1,-6.510104537E-1,1.109909415E0,-4.660764635E-1
1.150855902E1,-6.371136904E-1,1.026834249E0,-4.909684956E-1
1.151771137E1,-5.787777901E-1,9.086353183E-1,-5.123481154E-1
1.152686371E1,-4.787515402E-1,8.310576677E-1,-5.209000111E-1
1.153601606E1,-3.559712470E-1,8.125795722E-1,-5.224271417E-1
1.154516840E1,-2.512109280E-1,7.476770282E-1,-5.288410187E-1
1.155432074E1,-1.692046970E-1,6.120689511E-1,-5.508314967E-1
1.156347309E1,-9.804098308E-2,5.241069198E-1,-5.606050491E-1
1.157262543E1,-4.001049697E-2,5.021164417E-1,-5.205945969E-1
1.158177777E1,-1.313321572E-2,4.790569544E-1,-4.262186885E-1
1.159093012E1,1.252236869E-2,3.788780272E-1,-3.136700690E-1
1.160008246E1,9.605573118E-2,1.659977436E-1,-2.304421216E-1
1.160923481E1,2.368560284E-1,-1.102579311E-1,-1.827960461E-1
1.161838715E1,4.048390090E-1,-3.695625961E-1,-1.516428292E-1
1.162753949E1,5.990884304E-1,-5.920637250E-1,-1.165191159E-1
1.163669184E1,8.090671897E-1,-7.951704264E-1,-7.207997888E-2
1.164584418E1,1.023932695E0,-1.001942158E0,-2.031067200E-2
1.165499652E1,1.239867210E0,-1.197871447E0,3.802524135E-2
1.166414887E1,1.453052878E0,-1.343100429E0,9.468132257E-2
1.167330121E1,1.661962628E0,-1.428771734E0,1.322484314E-1
1.168245356E1,1.857128382E0,-1.467102408E0,1.372879148E-1
1.169160590E1,2.047865391E0,-1.427702785E0,1.130067408E-1
1.170075824E1,2.217528343E0,-1.367228866E0,8.047912270E-2
1.170991059E1,2.355579853E0,-1.415791273E0,6.627693027E-2
1.171906293E1,2.442320108E0,-1.613400340E0,7.864658535E-2
1.172820251E1,2.480956078E0,-1.913173556E0,1.585148573E-1
1.173736757E1,2.526006222E0,-2.141935825E0,3.471139669E-1
1.174651991E1,2.636264086E0,-2.248070717E0,5.952706337E-1
1.175567225E1,2.827611923E0,-2.233715773E0,8.011261821E-1
1.176482460E1,3.022472143E0,-2.082989216E0,8.939749599E-1
1.177397694E1,3.139449596E0,-1.921878219E0,8.837432861E-1
1.178311652E1,3.169228315E0,-1.975174665E0,7.930324674E-1
1.179228163E1,3.171519041E0,-2.157207012E0,6.374191046E-1
1.180143397E1,3.184957504E0,-2.270061016E0,4.524851143E-1
1.181057356E1,3.215652704E0,-2.246543407E0,2.756448388E-1
1.181973866E1,3.250929117E0,-2.045727491E0,1.188097894E-1
1.182889100E1,3.269712687E0,-1.670819998E0,-1.007897966E-2
1.183803059E1,3.262382507E0,-1.283084631E0,-1.020114943E-1
1.184719569E1,3.234894276E0,-1.012784719E0,-1.464506239E-1
1.185634804E1,3.236421585E0,-7.769976854E-1,-1.227803007E-1
1.186548762E1,3.273377657E0,-4.030064642E-1,-1.588202827E-2
1.187465272E1,3.270170689E0,8.887827396E-2,1.601946950E-1
1.188380507E1,3.199617863E0,5.172349215E-1,3.297048211E-1
1.189294465E1,3.104784012E0,7.308787704E-1,4.413371384E-1
1.190210975E1,3.033620119E0,7.966975570E-1,5.121954083E-1
1.191126210E1,2.972229958E0,7.569924593E-1,5.642701387E-1
1.192040168E1,2.923667669E0,5.935907960E-1,5.598415136E-1
1.192956673E1,2.878923178E0,3.304683566E-1,4.894413650E-1
1.193871913E1,2.801956415E0,-3.649812192E-2,3.761292100E-1
1.194785871E1,2.671845913E0,-3.950654566E-1,2.411319613E-1
1.195702376E1,2.538223028E0,-6.881194115E-1,1.073564067E-1
1.196617611E1,2.434073687E0,-9.051229358E-1,-2.397575416E-2
1.197532845E1,2.338628769E0,-1.023169160E0,-1.246128380E-1
1.198448080E1,2.210198164E0,-1.036913276E0,-1.969982386E-1
1.199363314E1,2.035648584E0,-9.891144037E-1,-2.422009408E-1
1.200277272E1,1.845827699E0,-9.171871543E-1,-2.539597452E-1
1.201193783E1,1.658755779E0,-8.222004175E-1,-2.437280566E-1
1.202109017E1,1.461146593E0,-7.098045349E-1,-2.281514555E-1
1.203024251E1,1.246891975E0,-6.076403260E-1,-2.188360244E-1
1.203939486E1,1.024696231E0,-5.019637346E-1,-2.044811249E-1
1.204854720E1,7.970029712E-1,-3.466558158E-1,-1.768402755E-1
1.205768679E1,5.615213513E-1,-1.708845198E-1,-1.285833418E-1
1.206685189E1,3.243598938E-1,-7.788302377E-3,-6.383354217E-2
1.207600423E1,8.735115826E-2,1.403421611E-1,4.581354558E-3
1.208514382E1,-1.217113137E-1,2.600682080E-1,7.070557028E-2
1.209430892E1,-3.023693860E-1,3.662029207E-1,1.378987730E-1
1.210346126E1,-4.497362971E-1,4.286620617E-1,1.592784226E-1
1.211261356E1,-5.595360994E-1,3.545968235E-1,1.989834905E-1
1.212176590E1,-6.474980712E-1,1.600419879E-1,2.753393948E-1
1.213091824E1,-7.259919643E-1,-6.810946763E-2,3.640649617E-1
1.214005783E1,-8.341119289E-1,-2.185306102E-1,4.508052766E-1
1.214922293E1,-1.021336675E0,-2.710634768E-1,5.202891231E-1
1.215837527E1,-1.265828252E0,-2.368560284E-1,5.638120174E-1
1.216752762E1,-1.452594757E0,-1.870719790E-1,5.734328628E-1
1.217667996E1,-1.441904902E0,-1.716480851E-1,5.306735635E-1
1.218583231E1,-1.165038466E0,-8.292251825E-2,4.556920528E-1
1.219497189E1,-7.806627750E-1,1.779092699E-1,4.063661397E-1
1.220413699E1,-5.515950918E-1,2.739650011E-1,4.005630910E-1
1.221328934E1,-5.176930428E-1,-7.009471953E-2,3.845283389E-1
1.222242892E1,-5.661026835E-1,-6.326850653E-1,3.058817685E-1
1.223159402E1,-6.978929639E-1,-6.459710002E-1,1.937913001E-1
1.224074637E1,-8.490777016E-1,1.931804419E-1,1.908897758E-1
1.224988595E1,-8.805363178E-1,9.359707236E-1,2.744231224E-1
1.225905100E1,-9.445225596E-1,9.830059409E-1,3.141281903E-1
1.226820335E1,-1.149461865E0,7.516475320E-1,2.634278834E-1
1.227734293E1,-1.334090471E0,7.290462255E-1,2.481566966E-1
1.228650804E1,-1.453816533E0,9.732323885E-1,3.545968235E-1
1.229566038E1,-1.639819503E0,1.229635477E0,5.245651007E-1
1.230479996E1,-1.735111594E0,1.002094984E0,6.242858768E-1
1.231396507E1,-1.520551562E0,3.315373361E-1,5.835118294E-1
1.232311741E1,-1.210699320E0,-1.498102844E-1,4.700469673E-1
1.233225699E1,-1.253611326E0,-2.834331393E-1,3.727695346E-1
1.234142210E1,-1.515206575E0,-4.304946065E-1,3.051182032E-1
1.235057444E1,-1.508029222E0,-5.132644176E-1,2.544178963E-1
1.235971402E1,-1.201536536E0,-5.128062963E-1,2.212794125E-1
1.236887913E1,-9.941539168E-1,-4.395045936E-1,2.611372173E-1
1.237803142E1,-1.016297102E0,-3.414636254E-1,3.665083647E-1
1.238717106E1,-1.105022669E0,-1.983726472E-1,4.701996744E-1
1.239633611E1,-1.136481285E0,-7.238540053E-2,5.242596865E-1
1.240548845E1,-1.151599765E0,-2.611372061E-2,4.850127101E-1
1.241462804E1,-1.179698825E0,2.443389036E-2,3.425326049E-1
1.242379314E1,-1.185959935E0,5.741964281E-2,1.305686086E-1
1.243294548E1,-1.177255392E0,7.482878864E-2,-7.635590434E-2
1.244208507E1,-1.189930439E0,1.850867122E-1,-2.145601064E-1
1.245125017E1,-1.198176861E0,3.614688516E-1,-2.507528067E-1
1.246040251E1,-1.170077920E0,4.526378214E-1,-2.104368806E-1
1.246954210E1,-1.133274436E0,4.993676245E-1,-1.374406368E-1
1.247870720E1,-1.145338655E0,5.743491650E-1,-6.612421572E-2
1.248785955E1,-1.151447058E0,5.546492934E-1,-2.275406010E-2
1.249701184E1,-1.133121610E0,4.871506989E-1,-1.771457121E-2
1.250616418E1,-1.119835734E0,4.081986845E-1,-5.726693198E-2
1.251531652E1,-1.079061627E0,2.922904193E-1,-1.374406368E-1
1.252446887E1,-1.042410851E0,2.400629669E-1,-2.348707765E-1
1.253362121E1,-1.082421303E0,3.455868363E-1,-3.310792148E-1
1.254277356E1,-1.146254897E0,4.886777997E-1,-4.135435820E-1
1.255192590E1,-1.149919987E0,6.705575585E-1,-4.772244096E-1
1.256107824E1,-1.157860994E0,9.492566586E-1,-5.244123936E-1
1.257023059E1,-1.219403863E0,1.176797271E0,-5.549547076E-1
1.257938288E1,-1.307213187E0,1.471989155E0,-5.552601814E-1
1.258853522E1,-1.384332657E0,1.754658699E0,-5.125008225E-1
1.259768757E1,-1.444959164E0,1.936843991E0,-4.385883212E-1
1.260683991E1,-1.501157165E0,2.122694254E0,-3.280249834E-1
1.261599225E1,-1.537044406E0,2.275100708E0,-1.843231618E-1
1.262514460E1,-1.545290828E0,2.355885267E0,-2.199050039E-2
1.263428418E1,-1.536280870E0,2.315569162E0,1.356080920E-1
1.264344928E1,-1.495201349E0,2.059471607E0,2.728960216E-1
1.265260163E1,-1.429993391E0,1.690367103E0,3.695625961E-1
1.266174121E1,-1.368297815E0,1.189319611E0,3.923166394E-1
1.267090632E1,-1.342642307E0,7.379034758E-1,3.451287150E-1
1.268005866E1,-1.368603230E0,4.396573007E-1,2.615953386E-1
1.268921095E1,-1.395327806E0,2.200577259E-1,1.791309565E-1
1.269836330E1,-1.382805467E0,9.391776472E-2,1.218640283E-1
1.270751564E1,-1.341878772E0,9.468132630E-3,8.551861346E-2
1.271665522E1,-1.330730796E0,-5.283828825E-2,5.451811850E-2
1.272582033E1,-1.376849771E0,-4.031591862E-2,1.756185852E-2
1.273497267E1,-1.438239813E0,-6.108472496E-2,-3.054236248E-2
1.274411225E1,-1.465269804E0,-1.078145429E-1,-9.590301663E-2
1.275327736E1,-1.471378326E0,-7.482878864E-3,-1.663031727E-1
1.276242970E1,-1.468476772E0,1.194206402E-1,-2.408265322E-1
1.277158204E1,-1.432436824E0,1.687465608E-1,-2.834331393E-1
1.278073439E1,-1.361120462E0,2.032594234E-1,-2.835858464E-1
1.278988668E1,-1.304769754E0,3.038965166E-1,-2.777827978E-1
1.279903902E1,-1.256054640E0,3.732276857E-1,-3.000787199E-1
1.280819137E1,-1.196497083E0,4.900522232E-1,-3.260397315E-1
1.281734371E1,-1.127471328E0,6.420004964E-1,-3.591781855E-1
1.282649606E1,-1.052795291E0,7.227849960E-1,-4.069769979E-1
1.283564840E1,-9.768974781E-1,6.737645268E-1,-4.741701782E-1
1.284480074E1,-9.165763259E-1,4.523324072E-1,-5.602996349E-1
1.285395309E1,-9.048175216E-1,2.043284029E-1,-6.516213417E-1
1.286310543E1,-9.223793745E-1,7.437065244E-2,-7.371399403E-1
1.287225772E1,-9.138274789E-1,1.175880954E-1,-8.017370105E-1
1.288141007E1,-8.594620824E-1,3.223746419E-1,-8.437327743E-1
1.289056241E1,-7.576032877E-1,5.375455618E-1,-8.626690507E-1
1.289971475E1,-6.047387719E-1,6.675033569E-1,-8.609892130E-1
1.290885434E1,-3.872771561E-1,6.642963886E-1,-8.252546191E-1
1.291801944E1,-1.004843712E-1,5.372401476E-1,-7.621846795E-1
1.292717178E1,2.473931462E-1,2.589992285E-1,-6.807892919E-1
1.293632413E1,6.494833231E-1,-6.291726977E-2,-5.861079693E-1
1.294547647E1,1.087613583E0,-1.667613089E-1,-5.041016936E-1
1.295462882E1,1.531546831E0,-6.047387794E-2,-4.680617154E-1
1.296376840E1,1.940661788E0,4.382828996E-2,-4.909684956E-1
1.297293345E1,2.274795294E0,7.773031294E-2,-5.740436912E-1
1.298208580E1,2.504168272E0,1.055238619E-1,-6.713211536E-1
1.299122538E1,2.630155563E0,2.506000996E-1,-7.476770282E-1
1.300039048E1,2.664210320E0,2.420482337E-1,-7.644753456E-1
1.300954283E1,2.719797373E0,-7.635590620E-3,-7.003363967E-1
1.301868241E1,2.852809429E0,-3.837648034E-1,-4.830274582E-1
1.302784751E1,3.048127890E0,-8.141067028E-1,-1.313321590E-1
1.303699986E1,3.239781141E0,-1.256054640E0,2.073826492E-1
1.304613944E1,3.328812122E0,-1.646080613E0,4.268295169E-1
1.305530449E1,3.275973797E0,-1.916991353E0,5.140279531E-1
1.306445684E1,3.199159861E0,-2.026943922E0,5.068505406E-1
1.307359642E1,3.192593098E0,-2.092304468E0,4.396573007E-1
1.308276152E1,3.231381893E0,-2.172172785E0,3.513898849E-1
1.309191387E1,3.256884813E0,-2.163315535E0,2.863346636E-1
1.310105345E1,3.278722763E0,-1.969829679E0,2.509055138E-1
1.311021856E1,3.290939569E0,-1.601794243E0,2.183778882E-1
1.311937090E1,3.270781755E0,-1.124569774E0,2.160872221E-1
1.312851048E1,3.197327375E0,-5.792359114E-1,2.701472044E-1
1.313767559E1,3.071340084E0,-1.197260618E-1,3.726168275E-1
1.314682788E1,2.949323177E0,1.722589284E-1,5.034908652E-1
1.315598022E1,2.890987396E0,2.889307439E-1,6.317687631E-1
1.316513257E1,2.894499779E0,2.669402659E-1,7.295043468E-1
1.317428491E1,2.927790880E0,1.748550236E-1,7.701256871E-1
1.318343725E1,2.942145824E0,8.170082420E-2,7.734853625E-1
1.319258960E1,2.911145210E0,-3.420744836E-2,7.530219555E-1
1.320174194E1,2.861361265E0,-1.519482583E-1,7.046123147E-1
1.321088152E1,2.810050011E0,-2.463241518E-1,6.328377724E-1
1.322004658E1,2.750950575E0,-3.480302393E-1,5.427377820E-1
1.322919892E1,2.642678022E0,-4.756973088E-1,4.578300118E-1
1.323833856E1,2.484621286E0,-6.064186096E-1,3.652866483E-1
1.324750361E1,2.287470341E0,-7.137750387E-1,2.692309320E-1
1.325665595E1,2.084516287E0,-8.083036542E-1,1.982199401E-1
1.326579554E1,1.895459056E0,-8.703046441E-1,1.597365588E-1
1.327496064E1,1.705485582E0,-8.513683677E-1,1.400367320E-1
1.328411298E1,1.511541486E0,-7.295043468E-1,1.299577504E-1
1.329326533E1,1.325080395E0,-5.549547076E-1,1.261399537E-1
1.330241767E1,1.154959440E0,-4.106420577E-1,1.395785958E-1
1.331156996E1,9.918632507E-1,-3.293993771E-1,1.737860441E-1
1.332072231E1,8.403730989E-1,-2.823641598E-1,2.183778882E-1
1.332987465E1,6.873558760E-1,-2.180724740E-1,2.631224692E-1
1.333902699E1,5.234960914E-1,-1.253764033E-1,3.174878657E-1
1.334817934E1,3.507790267E-1,-1.023169141E-2,3.881934285E-1
1.335733168E1,1.727170646E-1,9.987352788E-2,4.234698713E-1
1.336648402E1,4.123218823E-3,9.284878522E-2,3.782671690E-1
1.337562361E1,-1.403421611E-1,-8.154810965E-2,3.671191931E-1
1.338478871E1,-2.658712566E-1,-3.126010895E-1,3.712424338E-1
1.339394100E1,-4.028537571E-1,-4.572191834E-1,4.045335948E-1
1.340308064E1,-6.180247068E-1,-4.743228853E-1,4.561502039E-1
1.341224569E1,-9.694145918E-1,-4.228590131E-1,5.007420182E-1
1.342139804E1,-1.355622768E0,-3.739912212E-1,4.979932308E-1
1.343053762E1,-1.526507258E0,-3.211529553E-1,3.996468186E-1
1.343970272E1,-1.339435339E0,-4.260659590E-2,2.070772201E-1
1.344885507E1,-1.016907930E0,6.438329816E-1,3.848337755E-2
1.345799465E1,-8.121214509E-1,1.203674555E0,-1.542389300E-2
1.346715975E1,-6.807892919E-1,4.277457893E-1,-2.290677279E-3
1.347631210E1,-8.522846103E-1,-1.253611326E0,5.818320066E-2
1.348545168E1,-1.305838704E0,-1.903247356E0,2.166980654E-1
1.349461673E1,-1.391510010E0,-1.066997409E0,5.268557668E-1
1.350376908E1,-1.004232883E0,6.006155610E-1,9.252808690E-1
1.351290866E1,-1.008356094E0,1.436407328E0,1.193290114E0
1.352207376E1,-1.347529054E0,7.782194018E-1,1.141978979E0
1.353122611E1,-1.131441832E0,2.883199155E-1,9.130639434E-1
1.354037845E1,-9.753703475E-1,3.416163325E-1,7.559235096E-1
1.354953080E1,-1.290414810E0,7.834116369E-2,5.841227174E-1
1.355868309E1,-1.446333647E0,-1.093416587E-1,4.182776511E-1
1.356782272E1,-1.327371120E0,2.515163720E-1,3.767400384E-1
1.357698777E1,-1.311641812E0,7.424848676E-1,4.527905285E-1
1.358614012E1,-1.408613801E0,7.831062078E-1,5.546492934E-1
1.359527970E1,-1.416707516E0,6.296308041E-1,6.079457402E-1
1.360444481E1,-1.332257867E0,4.318690002E-1,5.751127005E-1
1.361359715E1,-1.294843435E0,3.121429384E-1,4.385883212E-1
1.362273673E1,-1.330425382E0,3.083251417E-1,2.570139766E-1
1.363190184E1,-1.321262598E0,3.252761662E-1,8.674030751E-2
1.364105418E1,-1.256665468E0,2.675510943E-1,-3.069507517E-2
1.365019371E1,-1.207339644E0,2.137965411E-1,-8.887827396E-2
1.365935882E1,-1.174811959E0,2.254026383E-1,-8.933641016E-2
1.366851116E1,-1.140146375E0,2.648022771E-1,-3.909422457E-2
1.367766350E1,-1.089598775E0,2.252499312E-1,3.649812192E-2
1.368681585E1,-1.047908425E0,2.105895877E-1,1.143811494E-1
1.369596819E1,-1.056307673E0,2.266243398E-1,1.850867122E-1
1.370512054E1,-1.097845197E0,2.374668717E-1,2.263189107E-1
1.371427288E1,-1.104259133E0,2.544178963E-1,2.367033064E-1
1.372342517E1,-1.069898963E0,3.393256664E-1,2.240282297E-1
1.373257751E1,-1.042410851E0,3.808632791E-1,1.979145110E-1
1.374172986E1,-1.044243336E0,3.970507085E-1,1.569877416E-1
1.375088220E1,-1.014770031E0,4.468347728E-1,1.009425074E-1
1.376003455E1,-9.500201941E-1,4.642439187E-1,3.176405653E-2
1.376918689E1,-9.174925685E-1,4.483618736E-1,-3.084778599E-2
1.377833923E1,-9.524635673E-1,5.041016936E-1,-6.902574003E-2
1.378749158E1,-9.952229261E-1,6.149705052E-1,-8.765657991E-2
1.379664387E1,-9.988879561E-1,7.600467205E-1,-1.043021679E-1
1.380579621E1,-9.759812355E-1,9.112313986E-1,-1.310267299E-1
1.381494856E1,-9.915578365E-1,1.014159203E0,-1.704263836E-1
1.382410090E1,-1.036149621E0,1.117086887E0,-2.018850148E-1
1.383325324E1,-1.049741030E0,1.212226391E0,-2.221956849E-1
1.384240559E1,-1.059972763E0,1.318208337E0,-2.339545041E-1
1.385155793E1,-1.075091124E0,1.431978703E0,-2.367033064E-1
1.386071027E1,-1.088224411E0,1.512763262E0,-2.324273884E-1
1.386986257E1,-1.107618809E0,1.542236567E0,-2.276933193E-1
1.387901491E1,-1.112963676E0,1.451220393E0,-2.313583940E-1
1.388816725E1,-1.101662993E0,1.376391530E0,-2.489202619E-1
1.389731960E1,-1.097081661E0,1.418540001E0,-2.751866877E-1
1.390647194E1,-1.116017938E0,1.495506763E0,-3.072561622E-1
1.391562429E1,-1.130372882E0,1.523758531E0,-3.359659910E-1
1.392477663E1,-1.160762548E0,1.410293579E0,-3.691044450E-1
1.393392897E1,-1.206881523E0,1.285986185E0,-4.011739492E-1
1.394308126E1,-1.257429123E0,1.231009960E0,-4.210264683E-1
1.395223361E1,-1.287971497E0,1.127165914E0,-4.320217371E-1
1.396138595E1,-1.267508030E0,9.837695360E-1,-4.306473136E-1
1.397053830E1,-1.232842445E0,8.724426031E-1,-4.175141156E-1
1.397969064E1,-1.236812949E0,8.454126120E-1,-4.132381678E-1
1.398884298E1,-1.284306407E0,8.391514421E-1,-4.227063060E-1
1.399799533E1,-1.319124699E0,7.510367036E-1,-4.362976551E-1
1.400714767E1,-1.356386304E0,7.143858671E-1,-4.347705245E-1
1.401630001E1,-1.409224629E0,7.545490861E-1,-4.320217371E-1
1.402545231E1,-1.440225124E0,7.828007340E-1,-4.463766217E-1
1.403460465E1,-1.423426867E0,7.965448499E-1,-4.877615273E-1
1.404375699E1,-1.422510505E0,7.240067124E-1,-5.493044257E-1
1.405290934E1,-1.485122442E0,6.500942111E-1,-6.163448691E-1
1.406206168E1,-1.561172843E0,6.303943992E-1,-6.846070886E-1
1.407121402E1,-1.595074892E0,5.909947157E-1,-7.427902818E-1
1.408036637E1,-1.557202339E0,5.239542127E-1,-7.931851745E-1
1.408951871E1,-1.491078138E0,3.744493723E-1,-8.396095634E-1
1.409867106E1,-1.446944475E0,2.223484069E-1,-8.893936276E-1
1.410782335E1,-1.430146098E0,2.205158621E-1,-9.318475127E-1
1.411696293E1,-1.420525312E0,3.222219348E-1,-9.429954290E-1
1.412612804E1,-1.328592777E0,3.594835997E-1,-8.874083757E-1
1.413528038E1,-1.148545504E0,3.190149665E-1,-8.255600929E-1
1.414441996E1,-9.345963001E-1,2.290677279E-1,-7.886037827E-1
1.415358507E1,-6.801784039E-1,1.632489264E-1,-7.598940134E-1
1.416273741E1,-3.736858070E-1,5.299099907E-2,-7.258392572E-1
1.417188970E1,-4.367557913E-2,-1.337755471E-1,-6.897992492E-1
1.418104205E1,3.028275371E-1,-2.819060087E-1,-6.763606071E-1
1.419019439E1,7.098045349E-1,-2.843494117E-1,-6.997255087E-1
1.419934673E1,1.186418056E0,-1.403421611E-1,-7.496622801E-1
1.420849908E1,1.678455591E0,6.872031838E-2,-8.037222624E-1
1.421765142E1,2.144990206E0,3.013004065E-1,-8.359444737E-1
1.422679100E1,2.522035599E0,5.435013771E-1,-8.408312798E-1
1.423595611E1,2.771566629E0,7.496622801E-1,-8.165500760E-1
1.424510845E1,2.914046764E0,7.055285573E-1,-7.472189069E-1
1.425424804E1,3.034230947E0,3.489464819E-1,-5.841227174E-1
1.426341309E1,3.156095028E0,-2.620534599E-1,-2.910687327E-1
1.427256543E1,3.295062780E0,-9.587247968E-1,1.000262350E-1
1.428170501E1,3.394936323E0,-1.478250384E0,4.755446017E-1
1.429087012E1,3.377374411E0,-1.916075110E0,7.259919643E-1
1.430002246E1,3.248485804E0,-2.360771894E0,7.950177193E-1
1.430916204E1,3.115168333E0,-2.718728542E0,7.021689415E-1
1.431832715E1,3.087832928E0,-2.962303877E0,5.396835804E-1
1.432747949E1,3.209238768E0,-3.106005669E0,4.008685052E-1
1.433661908E1,3.414788961E0,-3.024152040E0,3.063398898E-1
1.434578413E1,3.581855536E0,-2.649855375E0,2.535016239E-1
1.435493647E1,3.628432751E0,-1.984490037E0,2.441861928E-1
1.436407606E1,3.559101582E0,-1.146102190E0,3.133646548E-1
1.437324116E1,3.412039995E0,-3.425326049E-1,4.497362971E-1
1.438239350E1,3.205420971E0,2.403683960E-1,5.729747415E-1
1.439154585E1,3.010102510E0,5.470137000E-1,6.380299330E-1
1.440069819E1,2.909770966E0,6.650599241E-1,6.700994372E-1
1.440985054E1,2.891292810E0,6.537593007E-1,6.865923405E-1
1.441900283E1,2.897859335E0,5.218162537E-1,7.116370797E-1
1.442815517E1,2.887475014E0,3.513898849E-1,7.484406233E-1
1.443730751E1,2.845021009E0,1.832541823E-1,7.847860456E-1
1.444644710E1,2.783783674E0,1.985253533E-3,8.113578558E-1
1.445561220E1,2.718575716E0,-2.295258641E-1,8.104416132E-1
1.446476455E1,2.636416674E0,-4.540122151E-1,7.551599145E-1
1.447390413E1,2.503710270E0,-6.638382673E-1,6.401679516E-1
1.448306923E1,2.323357582E0,-8.362498879E-1,5.089884996E-1
1.449222158E1,2.128649950E0,-9.449806809E-1,4.027010500E-1
1.450136116E1,1.939745426E0,-1.009425044E0,3.170297146E-1
1.451052621E1,1.747939467E0,-1.032942772E0,2.516690791E-1
1.451967856E1,1.554911733E0,-1.005607247E0,2.136438340E-1
1.452881814E1,1.377613306E0,-9.433009028E-1,1.957765520E-1
1.453798324E1,1.187181592E0,-8.199097514E-1,2.292204350E-1
1.454713559E1,9.794935584E-1,-6.733064055E-1,1.988307834E-1
1.455627517E1,7.342383862E-1,-5.381564498E-1,2.063136548E-1
1.456544027E1,4.894413650E-1,-4.220954478E-1,2.570139766E-1
1.457459262E1,2.576248348E-1,-2.898470163E-1,2.735068500E-1
1.458373220E1,3.756710514E-2,-1.539335102E-1,2.712161839E-1
1.459289725E1,-1.609582454E-1,-9.620844387E-3,2.739650011E-1
1.460204960E1,-3.243598938E-1,1.401894391E-1,2.904578745E-1
1.461120194E1,-4.471401870E-1,2.719797492E-1,3.151971996E-1
1.462035429E1,-5.573981404E-1,3.924693763E-1,3.576510847E-1
1.462950663E1,-7.061394453E-1,5.209000111E-1,4.193466306E-1
1.463864621E1,-9.121476412E-1,5.769452453E-1,4.953971207E-1
1.464781132E1,-1.139993668E0,4.358395338E-1,5.732801557E-1
1.465696366E1,-1.329356313E0,1.423274130E-1,6.369609833E-1
1.466610324E1,-1.485580564E0,-1.114796251E-1,6.623111367E-1
1.467526830E1,-1.602099657E0,-2.443388999E-1,6.346703172E-1
1.468442064E1,-1.607597232E0,-3.442124426E-1,5.499152541E-1
1.469356022E1,-1.449082375E0,-2.895416021E-1,4.202629030E-1
1.470272533E1,-1.254374862E0,2.049392611E-1,2.741177082E-1
1.471187767E1,-1.202452779E0,6.129852533E-1,1.166718230E-1
1.472101725E1,-1.174353838E0,1.531699449E-1,-4.474456236E-2
1.473018236E1,-1.135106921E0,-8.185353279E-1,-1.414111406E-1
1.473933470E1,-1.181225896E0,-1.049893737E0,-1.128540337E-1
1.474847428E1,-1.213600755E0,1.325538605E-1,9.804098308E-2
1.475763934E1,-9.433009028E-1,1.344932914E0,3.946073353E-1
1.476679168E1,-8.817580342E-1,1.659824729E0,6.328377724E-1
1.477593126E1,-1.408308387E0,1.387997627E0,6.659762263E-1
1.478509637E1,-1.634321809E0,1.072647810E0,5.552601814E-1
1.479424871E1,-1.304158926E0,9.216157794E-1,4.851654470E-1
1.480338830E1,-1.227650285E0,4.405735731E-1,4.549284875E-1
1.481255340E1,-1.438698053E0,-6.795676053E-2,3.889569938E-1
1.482170574E1,-1.510625243E0,1.084253844E-2,3.610107303E-1
1.483084533E1,-1.485580564E0,2.218902707E-1,3.878880143E-1
1.484001038E1,-1.393800735E0,-1.053711548E-1,3.599417508E-1
1.484916272E1,-1.210088372E0,-6.349757314E-1,2.817533016E-1
1.485830231E1,-1.080894232E0,-8.472451568E-1,2.192941606E-1
1.486746741E1,-1.073869467E0,-7.122479081E-1,1.850867122E-1
1.487661975E1,-1.095707297E0,-3.458922505E-1,1.864611208E-1
1.488575934E1,-1.085170150E0,-7.177455351E-3,2.052446753E-1
1.489492444E1,-1.070357084E0,1.983726472E-1,2.101314515E-1
1.490407678E1,-1.089293361E0,3.170297146E-1,1.957765520E-1
1.491322913E1,-1.138313890E0,4.427115619E-1,1.592784226E-1
1.492238142E1,-1.155722976E0,5.569399595E-1,1.133121699E-1
1.493153376E1,-1.139993668E0,6.142069101E-1,6.032116711E-2
1.494067335E1,-1.118155956E0,5.916055441E-1,2.626643144E-2
1.494983845E1,-1.084406614E0,5.357130170E-1,4.169032723E-2
1.495899080E1,-1.037829518E0,5.360184908E-1,9.956810623E-2
1.496814314E1,-9.796462655E-1,4.947862923E-1,1.597365588E-1
1.497729548E1,-9.434536099E-1,4.955498278E-1,1.893626451E-1
1.498644783E1,-9.491039515E-1,5.798467398E-1,1.867665499E-1
1.499560017E1,-9.642223716E-1,6.232169271E-1,1.501157135E-1
1.500475246E1,-9.339854717E-1,5.806103349E-1,7.757759839E-2
1.501390481E1,-9.100096822E-1,5.688515306E-1,-1.374406368E-2
1.502305715E1,-9.403993487E-1,5.607577562E-1,-9.529217333E-2
1.503220949E1,-9.785773158E-1,5.653391480E-1,-1.339282542E-1
1.504136184E1,-1.006981730E0,6.352811456E-1,-1.238492802E-1
1.505051418E1,-1.050809979E0,7.094991207E-1,-8.628217876E-2
1.505966652E1,-1.093111157E0,7.950177193E-1,-5.680879578E-2
1.506881887E1,-1.133427143E0,9.584193230E-1,-4.245388508E-2
1.507797116E1,-1.172521353E0,1.131289124E0,-3.619270027E-2
1.508712350E1,-1.218945742E0,1.162595034E0,-3.542914242E-2
1.509627585E1,-1.257276416E0,1.022711039E0,-2.932066843E-2
1.510542819E1,-1.243379593E0,9.710944295E-1,7.941014133E-3
1.511458054E1,-1.220625520E0,9.495620728E-1,4.657710344E-2
1.512373288E1,-1.216196895E0,9.417737722E-1,5.405998230E-2
1.513288522E1,-1.231162667E0,9.735378027E-1,2.458660305E-2
1.514203757E1,-1.253305912E0,9.865183234E-1,-2.565558441E-2
1.515118986E1,-1.261399627E0,9.501729012E-1,-8.551861346E-2
1.516034220E1,-1.275754452E0,9.355126023E-1,-1.424801201E-1
1.516949455E1,-1.292247415E0,1.010646820E0,-1.792836636E-1
1.517864689E1,-1.325843930E0,1.035844207E0,-1.910424829E-1
1.518779923E1,-1.349208832E0,1.031110168E0,-1.795890927E-1
1.519695158E1,-1.348445296E0,1.081199646E0,-1.559187621E-1
1.520610392E1,-1.376238823E0,1.019656777E0,-1.548497826E-1
1.521525626E1,-1.372268319E0,8.538117409E-1,-1.801999360E-1
1.522440861E1,-1.280946732E0,7.863131166E-1,-2.235700935E-1
1.523356095E1,-1.229788303E0,8.170081973E-1,-2.837385535E-1
1.524271324E1,-1.284153700E0,8.762603998E-1,-3.658975065E-1
1.525186559E1,-1.279266834E0,8.444963098E-1,-4.300364852E-1
1.526101793E1,-1.153432369E0,9.110786915E-1,-4.498890042E-1
1.527017027E1,-1.024238110E0,9.286405444E-1,-4.485146105E-1
1.527932262E1,-9.300149679E-1,8.058602214E-1,-4.445441067E-1
1.528847496E1,-9.393303990E-1,6.733064055E-1,-4.408790171E-1
1.529761455E1,-1.034469843E0,5.688515306E-1,-4.561502039E-1
1.530677965E1,-1.096470833E0,4.136963189E-1,-5.010474920E-1
1.531593199E1,-1.087766290E0,2.910687327E-1,-5.668662786E-1
1.532508428E1,-1.073564053E0,2.673983872E-1,-6.473453641E-1
1.533423663E1,-1.075243831E0,2.754921019E-1,-7.273663878E-1
1.534338897E1,-1.063332319E0,1.606528312E-1,-8.157865405E-1
1.535252856E1,-1.065623045E0,4.214845970E-2,-9.115368128E-1
1.536169366E1,-1.072342396E0,-2.137965523E-3,-9.720106721E-1
1.537084600E1,-9.894198179E-1,-2.977880463E-2,-9.946120381E-1
1.537998559E1,-8.464815617E-1,-3.069507517E-2,-9.880454540E-1
1.538915069E1,-6.652126908E-1,3.649812192E-2,-9.862129092E-1
1.539830304E1,-4.821111858E-1,2.518217862E-1,-9.973608851E-1
1.540745538E1,-2.954973578E-1,5.581616759E-1,-1.008966923E0
1.541660767E1,-7.238540053E-2,8.417475224E-1,-1.023016453E0
1.542576001E1,2.170034945E-1,1.015838981E0,-1.038745761E0
1.543489960E1,5.686988235E-1,1.039814711E0,-1.040578246E0
1.544406470E1,9.408574700E-1,9.217684865E-1,-1.025612593E0
1.545321704E1,1.293163657E0,7.333221436E-1,-9.912523627E-1
1.546235663E1,1.624242902E0,6.923953891E-1,-9.321529269E-1
1.547152173E1,1.902331114E0,8.426637650E-1,-8.441908956E-1
1.548067408E1,2.064511061E0,9.933903813E-1,-7.295043468E-1
1.548981366E1,2.088792086E0,9.446752667E-1,-5.583143830E-1
1.549897871E1,2.014726877E0,4.475983381E-1,-3.442124426E-1
1.550813106E1,2.010603666E0,-1.704263836E-1,-1.221694499E-1
1.551727064E1,2.179961205E0,-7.710419297E-1,1.499630064E-1
1.552643574E1,2.462783337E0,-1.351957679E0,5.054761171E-1
1.553558809E1,2.693683624E0,-1.907523274E0,8.890882134E-1
1.554472767E1,2.786990643E0,-2.468739271E0,1.127776742E0
1.555389277E1,2.824863195E0,-2.916490316E0,1.104564548E0
1.556304512E1,2.921987772E0,-3.106463671E0,8.452599049E-1
1.557218470E1,3.049654961E0,-3.219928503E0,4.578300118E-1
1.558134975E1,3.112572193E0,-3.272919655E0,1.261399537E-1
1.559050210E1,3.110586882E0,-3.116848230E0,-3.100049868E-2
1.559964173E1,3.110434294E0,-2.751714230E0,-4.169032723E-2
1.560880678E1,3.114710093E0,-2.224247694E0,3.313846514E-2
1.561795913E1,3.109212637E0,-1.499935389E0,1.302631795E-1
1.562709871E1,3.056374311E0,-6.106945276E-1,2.825168669E-1
1.563626382E1,2.931914091E0,1.805053651E-1,4.990622103E-1
1.564541616E1,2.786685228E0,6.096255779E-1,7.084301114E-1
1.565456850E1,2.674442053E0,7.015580535E-1,8.437327743E-1
1.566372085E1,2.617175102E0,6.100836992E-1,8.794673681E-1
1.567287319E1,2.613357306E0,4.140017331E-1,8.586985469E-1
1.568202548E1,2.636264086E0,2.073826492E-1,8.406785131E-1
1.569117783E1,2.662988663E0,4.413371533E-2,8.354863524E-1
1.570033017E1,2.682993889E0,-5.192201585E-2,8.168554902E-1
1.570946975E1,2.680245161E0,-1.441599578E-1,7.840224504E-1
1.571863486E1,2.643288851E0,-2.655658424E-1,7.415685654E-1
1.572778720E1,2.564642191E0,-3.990359604E-1,6.783458591E-1
1.573692679E1,2.422009468E0,-5.519005060E-1,6.120689511E-1
1.574609189E1,2.239366055E0,-7.127060294E-1,5.748072863E-1
1.575524423E1,2.069703341E0,-8.000571728E-1,5.016583204E-1
1.576438382E1,1.910119414E0,-8.409839869E-1,4.040754735E-1
1.577354887E1,1.738318563E0,-8.234221339E-1,3.442124426E-1
1.578270121E1,1.549261332E0,-7.559235096E-1,3.067980409E-1
1.579185356E1,1.340809703E0,-6.621584296E-1,2.954973578E-1
1.580100590E1,1.112963676E0,-5.493044257E-1,2.852656841E-1
1.581015824E1,8.719844818E-1,-4.695888162E-1,2.762556672E-1
1.581931059E1,6.361974478E-1,-4.434750974E-1,2.677038014E-1
1.582846293E1,4.136963189E-1,-4.204156399E-1,2.435753495E-1
1.583761527E1,1.931804419E-1,-3.707842827E-1,2.151709497E-1
1.584676762E1,-1.374406368E-2,-3.072561622E-1,2.081461996E-1
1.585591991E1,-1.817270666E-1,-2.243336588E-1,2.258607745E-1
1.586507225E1,-3.151971996E-1,-5.573981255E-2,2.608317733E-1
1.587422460E1,-4.428642690E-1,2.130329758E-1,3.060344756E-1
1.588337694E1,-5.935907960E-1,5.092939138E-1,3.524588645E-1
1.589252928E1,-7.786775231E-1,7.081246972E-1,3.967452943E-1
1.590166887E1,-9.729269743E-1,7.194253802E-1,4.277457893E-1
1.591083397E1,-1.144116879E0,5.456393361E-1,4.462239146E-1
1.591998632E1,-1.299272060E0,3.055763543E-1,4.593571424E-1
1.592912590E1,-1.465117097E0,1.059819981E-1,4.686725736E-1
1.593829100E1,-1.650662065E0,4.947862774E-2,4.448495209E-1
1.594744335E1,-1.782299638E0,1.936385781E-1,3.576510847E-1
1.595658293E1,-1.747023106E0,6.601731777E-1,2.263189107E-1
1.596574798E1,-1.489398360E0,1.425870180E0,8.719844371E-2
1.597490033E1,-1.159540772E0,1.633863688E0,-6.215370819E-2
1.598403991E1,-9.031376839E-1,8.020424247E-1,-2.374668717E-1
1.599320501E1,-1.022405624E0,-9.019159675E-1,-4.062134326E-1
1.600235736E1,-1.630045891E0,-1.555827975E0,-3.507790267E-1
1.601149694E1,-1.853005171E0,-6.878139973E-1,-1.466033421E-2
1.602066204E1,-1.573084354E0,2.438807636E-1,5.019637346E-1
1.602981439E1,-1.679524541E0,8.611419201E-1,9.106205702E-1
1.603895397E1,-2.201646328E0,1.117850542E0,9.646805525E-1
1.604811908E1,-2.040688038E0,1.054169655E0,7.925743461E-1
1.605727142E1,-1.366312623E0,5.347967744E-1,5.473191738E-1
1.606641100E1,-1.256207347E0,4.474456236E-2,2.991624475E-1
1.607557606E1,-1.590646267E0,2.550287358E-2,1.412584335E-1
1.608472840E1,-1.738929391E0,1.504211426E-1,1.058292910E-1
1.609386798E1,-1.568655729E0,2.551814318E-1,1.582094431E-1
1.610303309E1,-1.382652760E0,2.345653474E-1,2.145601064E-1
1.611218543E1,-1.359898686E0,-1.160609797E-1,2.228065431E-1
1.612133777E1,-1.321720719E0,-5.496098399E-1,1.337755471E-1
1.613049012E1,-1.237423778E0,-6.639909744E-1,-5.176930502E-2
1.613964246E1,-1.211157441E0,-4.671454430E-1,-2.576248348E-1
1.614878204E1,-1.225512266E0,-2.333436459E-1,-4.172086716E-1
1.615794715E1,-1.211615562E0,-1.046075895E-1,-4.764608741E-1
1.616709944E1,-1.183669329E0,4.993676394E-2,-4.103366435E-1
1.617623902E1,-1.184127450E0,2.422009408E-1,-2.396048307E-1
1.618540413E1,-1.193595529E0,4.370612204E-1,-1.695101149E-2
1.619455647E1,-1.163511276E0,6.357392669E-1,1.956238300E-1
1.620370882E1,-1.128387570E0,7.635591030E-1,3.533751369E-1
1.621286116E1,-1.088377118E0,7.434011102E-1,4.233171642E-1
1.622201350E1,-1.061041713E0,7.174401283E-1,4.161396921E-1
1.623116585E1,-1.047297597E0,6.360446811E-1,3.808632791E-1
1.624031819E1,-1.026986957E0,5.381564498E-1,3.206948042E-1
1.624947054E1,-1.010494113E0,5.305208564E-1,2.304421216E-1
1.625862283E1,-9.799517393E-1,5.422796607E-1,1.139230132E-1
1.626777517E1,-9.558232427E-1,5.755708218E-1,2.443389036E-3
1.627692751E1,-9.715525508E-1,6.572716236E-1,-8.643488586E-2
1.628607986E1,-1.020725727E0,7.412631512E-1,-1.514901221E-1
1.629523220E1,-1.044701576E0,8.319739699E-1,-1.950129867E-1
1.630438454E1,-1.045465112E0,9.211576581E-1,-2.214321345E-1
1.631353689E1,-1.069898963E0,1.050504565E0,-2.302894145E-1
1.632268923E1,-1.092194915E0,1.121668339E0,-2.279987335E-1
1.633184158E1,-1.096776247E0,1.082421303E0,-2.188360244E-1
1.634099392E1,-1.123958945E0,1.079519868E0,-1.957765520E-1
1.635014621E1,-1.183058381E0,1.117545009E0,-1.571404636E-1
1.635929856E1,-1.216807723E0,1.152668834E0,-1.207950488E-1
1.636845090E1,-1.179545999E0,1.196038961E0,-1.094943732E-1
1.637760324E1,-1.125638843E0,1.233453274E0,-1.281252056E-1
1.638675559E1,-1.153585076E0,1.276059866E0,-1.673721522E-1
1.639590793E1,-1.209630251E0,1.234216928E0,-2.154763639E-1
1.640506027E1,-1.217571259E0,1.108687758E0,-2.667875290E-1
1.641421262E1,-1.205507040E0,1.024696231E0,-3.208475113E-1
1.642336496E1,-1.211157441E0,9.817842841E-1,-3.715478480E-1
1.643251731E1,-1.230704546E0,8.501466513E-1,-4.185830951E-1
1.644166965E1,-1.232842445E0,7.530219555E-1,-4.619532526E-1
1.645082194E1,-1.182447553E0,8.064711094E-1,-5.037962794E-1
1.645997428E1,-1.124722481E0,9.095515609E-1,-5.462501645E-1
1.646912663E1,-1.082574010E0,9.069554806E-1,-5.801522136E-1
1.647827897E1,-1.051420808E0,8.130376935E-1,-5.963396430E-1
1.648743132E1,-1.048366666E0,5.948125124E-1,-6.015318632E-1
1.649658366E1,-1.100288630E0,3.307738006E-1,-5.993938446E-1
1.650573600E1,-1.157250166E0,1.349972486E-1,-5.763344169E-1
1.651488835E1,-1.156028390E0,6.933116168E-2,-5.580089688E-1
1.652404069E1,-1.104259133E0,6.749862432E-2,-5.699204803E-1
1.653319304E1,-1.059209108E0,7.834116369E-2,-6.007682681E-1
1.654234538E1,-1.052642584E0,6.612421572E-2,-6.500942111E-1
1.655149767E1,-1.059667230E0,5.436540768E-2,-7.240067124E-1
1.656063731E1,-1.040883780E0,5.879404768E-2,-8.160919547E-1
1.656980236E1,-9.414683580E-1,-5.192201585E-3,-8.880192041E-1
1.657895470E1,-7.629482150E-1,-3.206948191E-2,-9.171871543E-1
1.658809428E1,-5.858024955E-1,7.971556485E-2,-8.965710402E-1
1.659725939E1,-4.308000207E-1,2.260134816E-1,-8.577822447E-1
1.660641173E1,-2.444916219E-1,3.307738006E-1,-8.131904006E-1
1.661555132E1,3.161134571E-2,3.862081766E-1,-7.556180358E-1
1.662471642E1,4.019374847E-1,4.190412164E-1,-6.700994372E-1
1.663386876E1,7.960866690E-1,4.291202128E-1,-5.712949038E-1
1.664302111E1,1.111131191E0,3.816268146E-1,-4.982986450E-1
1.665217340E1,1.369214177E0,3.709369898E-1,-4.488200247E-1
1.666132574E1,1.643026471E0,4.708105326E-1,-4.011739492E-1
1.667046538E1,1.918671250E0,7.162184119E-1,-3.603998721E-1
1.667963043E1,2.105437756E0,1.042258143E0,-2.870981991E-1
1.668878277E1,2.166827917E0,1.141062737E0,-1.560714692E-1
1.669792236E1,2.176143408E0,6.468872428E-1,-1.588202827E-2
1.670708746E1,2.296938419E0,-2.670929730E-1,1.534753740E-1
1.671623981E1,2.576706409E0,-1.304311633E0,4.598152637E-1
1.672537939E1,2.899233818E0,-2.153083801E0,8.791618943E-1
1.673454449E1,3.118222475E0,-2.592130423E0,1.184432864E0
1.674369684E1,3.216110706E0,-2.667722702E0,1.219403863E0
1.675283642E1,3.236268759E0,-2.678259850E0,9.949174523E-1
1.676200147E1,3.231381893E0,-2.790044785E0,6.126797795E-1
1.677115382E1,3.215041876E0,-2.926416397E0,2.463241518E-1
1.678029345E1,3.215805292E0,-2.852504015E0,2.764083818E-2
1.678945850E1,3.250165462E0,-2.576248407E0,-5.299099907E-2
1.679861085E1,3.314915419E0,-2.111851692E0,5.803049076E-3
1.680775043E1,3.360270739E0,-1.411820769E0,2.186833173E-1
1.681691554E1,3.335684061E0,-6.442911625E-1,4.982986450E-1
1.682606788E1,3.229396820E0,4.382828996E-2,6.966713071E-1
1.683522022E1,3.058817625E0,5.506787896E-1,7.786775231E-1
1.684437257E1,2.894652367E0,7.782194018E-1,7.731798887E-1
1.685352491E1,2.816158533E0,8.793146014E-1,7.701256871E-1
1.686266449E1,2.833109617E0,9.005415440E-1,8.073873520E-1
1.687182960E1,2.870982170E0,7.892146707E-1,8.364025950E-1
1.688098194E1,2.873425484E0,5.807630420E-1,8.403730989E-1
1.689012152E1,2.816311359E0,3.359659910E-1,8.486195803E-1
1.689928658E1,2.699944973E0,1.122431830E-1,8.632798791E-1
1.690843892E1,2.540360928E0,-8.948912472E-2,8.017370105E-1
1.691757850E1,2.388260126E0,-3.329117596E-1,7.117897868E-1
1.692674361E1,2.271740913E0,-5.575508475E-1,6.177192926E-1
1.693589595E1,2.174768925E0,-7.655443549E-1,5.036435723E-1
1.694503554E1,2.062831163E0,-9.523108602E-1,4.010212123E-1
1.695420064E1,1.903705478E0,-1.120904684E0,3.321481943E-1
1.696335298E1,1.702736735E0,-1.241241574E0,3.032856584E-1
1.697249257E1,1.502226114E0,-1.287971497E0,3.037438095E-1
1.698165767E1,1.322178841E0,-1.267813444E0,2.909159958E-1
1.699081001E1,1.145338655E0,-1.201383829E0,2.603736520E-1
1.699994960E1,9.243646264E-1,-1.077076435E0,2.208212912E-1
1.700911470E1,6.587987542E-1,-9.300149679E-1,1.803526580E-1
1.701826699E1,3.833066523E-1,-7.919634581E-1,1.551551968E-1
1.702741934E1,1.316375881E-1,-6.328377724E-1,1.470614821E-1
1.703657168E1,-8.811471611E-2,-4.427115619E-1,1.447708011E-1
1.704572402E1,-2.588465214E-1,-2.428117841E-1,1.464506239E-1
1.705487637E1,-3.810159862E-1,-1.466033421E-2,1.453816444E-1
1.706402871E1,-4.850127101E-1,2.597627938E-1,1.408002973E-1
1.707318106E1,-6.033644080E-1,5.170822144E-1,1.612636745E-1
1.708232064E1,-7.768449783E-1,7.249229550E-1,2.244863659E-1
1.709148574E1,-9.962918758E-1,8.293778896E-1,3.219164908E-1
1.710063809E1,-1.237271070E0,7.750124335E-1,4.271349311E-1
1.710977767E1,-1.488787532E0,6.055023670E-1,4.999784827E-1
1.711894277E1,-1.707776189E0,4.117110670E-1,5.008947253E-1
1.712809512E1,-1.792073131E0,2.214321345E-1,4.234698713E-1
1.713723470E1,-1.676928401E0,2.495311052E-1,2.783936262E-1
1.714639981E1,-1.475501537E0,8.246437907E-1,1.065928489E-1
1.715555210E1,-1.373948216E0,1.548497796E0,-7.452336699E-2
1.716469173E1,-1.229941010E0,1.109909415E0,-2.570139766E-1
1.717385678E1,-1.257734537E0,-6.221479177E-1,-4.282039404E-1
1.718300913E1,-1.545443535E0,-1.473516345E0,-4.228590131E-1
1.719214871E1,-1.525132895E0,-1.264453828E-1,-4.138490185E-2
1.720131382E1,-1.255138397E0,1.288276911E0,5.230379701E-1
1.721046616E1,-1.577818513E0,1.307060480E0,8.664868474E-1
1.721960574E1,-2.032594204E0,6.974348426E-1,8.000571728E-1
1.722877085E1,-1.735417008E0,2.950392365E-1,5.703786016E-1
1.723792319E1,-1.387539506E0,8.399149776E-2,3.910949528E-1
1.724706277E1,-1.520856977E0,-3.048127890E-1,2.304421216E-1
1.725622788E1,-1.699377060E0,-3.657447994E-1,1.369825006E-1
1.726538022E1,-1.589730024E0,-7.879929990E-2,1.314848661E-1
1.727451981E1,-1.459008694E0,-7.375980914E-2,1.366770715E-1
1.728368491E1,-1.395022392E0,-3.442124426E-1,1.276670843E-1
1.729283725E1,-1.315917730E0,-4.961606860E-1,8.368607610E-2
1.730197684E1,-1.257734537E0,-4.705050886E-1,-2.641914412E-2
1.731114194E1,-1.298050404E0,-2.247917950E-1,-1.795890927E-1
1.732029423E1,-1.378376842E0,7.834116369E-2,-3.196258247E-1
1.732944658E1,-1.366465330E0,2.388412803E-1,-4.094203711E-1
1.733859892E1,-1.273158431E0,3.582619131E-1,-4.253024161E-1
1.734775126E1,-1.243226886E0,5.453338623E-1,-3.397837877E-1
1.735690361E1,-1.275907159E0,6.882721782E-1,-1.673721522E-1
1.736605595E1,-1.265675545E0,7.470661998E-1,4.337015375E-2
1.737520830E1,-1.199093223E0,7.369872332E-1,2.295258641E-1
1.738434788E1,-1.170841455E0,6.916317940E-1,3.329117596E-1
1.739351298E1,-1.177866220E0,5.748072863E-1,3.597890437E-1
1.740266533E1,-1.120141149E0,3.759764731E-1,3.591781855E-1
1.741181767E1,-1.043174386E0,2.669402659E-1,3.396310806E-1
1.742097001E1,-1.006676316E0,2.125748396E-1,2.965663373E-1
1.743012236E1,-9.938485026E-1,1.498102844E-1,2.631224692E-1
1.743927470E1,-9.807152748E-1,1.473668963E-1,2.541124523E-1
1.744842705E1,-9.900307059E-1,1.528645307E-1,2.535016239E-1
1.745757939E1,-9.944593310E-1,3.222219273E-2,2.339545041E-1
1.746673168E1,-9.694145918E-1,-4.123218823E-3,1.925695986E-1
1.747588402E1,-9.596410394E-1,9.773556143E-2,1.626380831E-1
1.748503637E1,-9.810206890E-1,2.217375487E-1,1.527118087E-1
1.749418871E1,-9.805625677E-1,3.246653080E-1,1.336228400E-1
1.750334106E1,-9.622371197E-1,4.318690002E-1,8.674030751E-2
1.751249340E1,-9.744541049E-1,5.935907960E-1,4.581354558E-3
1.752164574E1,-1.015075445E0,7.782194018E-1,-8.368607610E-2
1.753079809E1,-1.034164429E0,9.352071285E-1,-1.412584335E-1
1.753995043E1,-1.034622550E0,1.064706802E0,-1.719534993E-1
1.754910277E1,-1.033706307E0,1.120751977E0,-1.823379099E-1
1.755825512E1,-1.040272832E0,1.160457134E0,-1.849340051E-1
1.756740746E1,-1.063332319E0,1.262315869E0,-1.869192570E-1
1.757655981E1,-1.100135922E0,1.374864459E0,-1.940967143E-1
1.758571215E1,-1.121821046E0,1.469393134E0,-2.107423097E-1
1.759486449E1,-1.120751977E0,1.508487344E0,-2.363978922E-1
1.760401684E1,-1.128998399E0,1.466033459E0,-2.730487287E-1
1.761316913E1,-1.167787194E0,1.422510505E0,-3.185568452E-1
1.762232147E1,-1.255443811E0,1.393189907E0,-3.599417508E-1
1.763147382E1,-1.372421026E0,1.307518601E0,-3.771981895E-1
1.764062616E1,-1.445722699E0,1.227802992E0,-3.611634374E-1
1.764977850E1,-1.397313118E0,1.118919492E0,-3.352024257E-1
1.765893085E1,-1.284764528E0,9.382613897E-1,-3.556658030E-1
1.766808319E1,-1.221694469E0,7.548545003E-1,-4.503471553E-1
1.767723554E1,-1.184890985E0,6.230642200E-1,-5.702258945E-1
1.768638788E1,-1.124417067E0,6.468872428E-1,-6.571189165E-1
1.769554022E1,-1.073564053E0,7.776085734E-1,-7.142331600E-1
1.770469257E1,-1.057376623E0,9.274188280E-1,-7.649334669E-1
1.771384491E1,-1.103495598E0,9.994988441E-1,-8.057075143E-1
1.772299725E1,-1.139688253E0,9.271134138E-1,-8.344173431E-1
1.773214960E1,-1.122737288E0,8.999307156E-1,-8.448017836E-1
1.774130194E1,-1.068524599E0,8.958075047E-1,-8.376243114E-1
1.775045428E1,-1.003163934E0,8.247964978E-1,-8.249492049E-1
1.775960663E1,-9.445225596E-1,6.604785919E-1,-8.096780181E-1
1.776875897E1,-8.851176500E-1,4.966188073E-1,-7.927270532E-1
1.777791132E1,-8.209787011E-1,4.069769979E-1,-7.866185308E-1
1.778706361E1,-7.146912813E-1,3.103103936E-1,-7.632536292E-1
1.779620324E1,-4.958552718E-1,1.504211426E-1,-7.310314775E-1
1.780536830E1,-2.267770469E-1,1.603474095E-2,-6.839962006E-1
1.781452064E1,4.810422286E-2,-9.773556143E-2,-6.109999418E-1
1.782367298E1,3.394783735E-1,-1.800472289E-1,-5.216635466E-1
1.783282533E1,6.476507783E-1,-2.889307439E-1,-4.405735731E-1
1.784197767E1,9.776610136E-1,-3.894151151E-1,-4.027010500E-1
1.785111725E1,1.354095697E0,-2.382304370E-1,-4.173613787E-1
1.786028236E1,1.755727768E0,1.702736765E-1,-4.556920528E-1
1.786943470E1,2.091541052E0,6.720846891E-1,-4.793623984E-1
1.787858704E1,2.303657770E0,9.859074950E-1,-4.256078303E-1
1.788773939E1,2.355579853E0,8.454126120E-1,-3.121429384E-1
1.789689173E1,2.345195293E0,4.056025743E-1,-1.317902952E-1
1.790603132E1,2.411777735E0,-1.530172378E-1,1.727170646E-1
1.791519642E1,2.600376844E0,-7.650861740E-1,5.755708218E-1
1.792434876E1,2.797069550E0,-1.368450522E0,9.541434050E-1
1.793350111E1,2.890071154E0,-1.887365341E0,1.171452284E0
1.794265345E1,2.872967482E0,-2.241198540E0,1.172674060E0
1.795180580E1,2.824557781E0,-2.555937529E0,9.979717135E-1
1.796094538E1,2.842883110E0,-3.023388624E0,7.302678823E-1
1.797011043E1,2.914199591E0,-3.452661514E0,4.825693369E-1
1.797926277E1,2.982461691E0,-3.570707560E0,3.135173619E-1
1.798840241E1,3.030565977E0,-3.383635759E0,2.159345001E-1
1.799756746E1,3.063551664E0,-2.981087446E0,1.762294322E-1
1.800671981E1,3.067369461E0,-2.292356968E0,1.672194302E-1
1.801585939E1,3.011782408E0,-1.440988660E0,1.692046970E-1
1.802502449E1,2.876937866E0,-5.726693273E-1,1.976090819E-1
1.803417684E1,2.693989038E0,1.617218107E-1,2.635805905E-1
1.804332918E1,2.513789177E0,6.288672686E-1,3.376458287E-1
1.805248152E1,2.381693363E0,8.344173431E-1,4.037700295E-1
1.806163387E1,2.319539785E0,7.995990515E-1,4.686725736E-1
1.807078621E1,2.322593927E0,6.328377724E-1,5.134171247E-1
1.807993856E1,2.364284277E0,4.425588250E-1,5.289937258E-1
1.808909090E1,2.402004242E0,2.834331393E-1,5.318952799E-1
1.809823048E1,2.395132065E0,1.647760421E-1,5.245651007E-1
1.810739559E1,2.334505558E0,5.787777901E-2,4.986040890E-1
1.811654793E1,2.261967421E0,-1.186570823E-1,3.889569938E-1
1.812568751E1,2.195537806E0,-3.620797098E-1,2.622061968E-1
1.813485262E1,2.119181871E0,-5.940489769E-1,1.421747059E-1
1.814400491E1,2.012741804E0,-7.663078904E-1,3.833066672E-2
1.815314454E1,1.880187869E0,-8.741224408E-1,-3.283303976E-2
1.816230960E1,1.730988383E0,-9.071081877E-1,-9.239064902E-2
1.817146194E1,1.563158154E0,-8.677085042E-1,-1.363716573E-1
1.818061428E1,1.386928678E0,-7.838697433E-1,-1.760767251E-1
1.818976663E1,1.196344376E0,-6.830799580E-1,-2.081461996E-1
1.819891897E1,9.952229261E-1,-5.792359114E-1,-2.192941606E-1
1.820807132E1,8.101361990E-1,-5.041016936E-1,-2.060082406E-1
1.821722366E1,6.500942111E-1,-4.602734149E-1,-1.821851879E-1
1.822637600E1,5.030327439E-1,-3.683409095E-1,-1.728697717E-1
1.823552835E1,3.416163325E-1,-1.612636745E-1,-1.797417998E-1
1.824468069E1,1.678302884E-1,1.186570823E-1,-1.945548505E-1
1.825383304E1,-6.566607859E-3,3.840702176E-1,-1.989834905E-1
1.826298538E1,-1.766875684E-1,5.929799676E-1,-1.777565479E-1
1.827213772E1,-3.364241421E-1,7.218687534E-1,-1.362189353E-1
1.828129007E1,-4.909684956E-1,7.478297353E-1,-8.429691941E-2
1.829044241E1,-6.491779089E-1,6.386408210E-1,-3.405473381E-2
1.829959475E1,-8.014315963E-1,4.005630910E-1,1.572931744E-2
1.830874710E1,-9.234483242E-1,1.708845198E-1,7.314895838E-2
1.831788668E1,-1.051420808E0,9.987352788E-2,1.400367320E-1
1.832705179E1,-1.229635477E0,1.588202864E-1,1.979145110E-1
1.833620413E1,-1.448318839E0,2.635805905E-1,2.287622988E-1
1.834535647E1,-1.604543090E0,2.425063550E-1,1.879882365E-1
1.835450882E1,-1.573542595E0,1.325538605E-1,8.689302206E-2
1.836366111E1,-1.320499063E0,2.845021188E-1,-4.886778072E-3
1.837280074E1,-1.003163934E0,7.259919643E-1,-4.382828996E-2
1.838196580E1,-8.522846103E-1,7.521057129E-1,-6.902574003E-2
1.839111814E1,-9.526162744E-1,-3.863608837E-2,-1.797417998E-1
1.840025772E1,-1.346001983E0,-6.061131954E-1,-3.029802442E-1
1.840942283E1,-1.583468795E0,-4.734066315E-3,-1.927223057E-1
1.841857517E1,-1.437018156E0,4.407263100E-1,9.071081877E-2
1.842771475E1,-1.269951463E0,7.362236381E-1,3.840702176E-1
1.843687986E1,-1.444042921E0,9.633061290E-1,5.519005060E-1
1.844603220E1,-1.632336617E0,1.239867210E0,6.224533319E-1
1.845517178E1,-1.575375080E0,1.413500547E0,6.349757314E-1
1.846433689E1,-1.462521076E0,7.075138092E-1,5.042544007E-1
1.847348923E1,-1.489092946E0,-8.780929446E-2,2.733541429E-1
1.848264158E1,-1.542083859E0,-2.939702570E-1,8.918370306E-2
1.849179392E1,-1.546207070E0,-1.429382563E-1,2.015795931E-2
1.850094626E1,-1.531088710E0,8.444963396E-2,7.681404054E-2
1.851008585E1,-1.475348830E0,2.079934925E-1,2.041756958E-1
1.851925095E1,-1.409377337E0,1.378987730E-1,3.255815804E-1
1.852840330E1,-1.366465330E0,-6.184828654E-2,3.633013964E-1
1.853755559E1,-1.346612811E0,-1.771457046E-1,2.974826097E-1
1.854670798E1,-1.334548593E0,-1.782146841E-1,1.913478971E-1
1.855586027E1,-1.298508525E0,-1.537808031E-1,8.536590636E-2
1.856501262E1,-1.203063726E0,-1.540862173E-1,-3.252761811E-2
1.857416496E1,-1.097234368E0,-1.585148573E-1,-1.232384369E-1
1.858331731E1,-1.052489877E0,-1.337755471E-1,-1.375933439E-1
1.859246965E1,-1.063637733E0,-7.986827940E-2,-7.605048269E-2
1.860162199E1,-1.069593549E0,4.352286831E-2,4.230117425E-2
1.861077434E1,-1.046534061E0,2.283041626E-1,1.797417998E-1
1.861992668E1,-1.005301833E0,3.915531039E-1,2.884726226E-1
1.862907902E1,-9.729269743E-1,4.761554301E-1,3.449759781E-1
1.863823137E1,-9.556705356E-1,4.732539058E-1,3.486410677E-1
1.864738371E1,-9.312366247E-1,3.833066523E-1,3.092414141E-1
1.865653606E1,-9.061918855E-1,2.927485406E-1,2.501419485E-1
1.866568840E1,-8.851176500E-1,2.431172132E-1,1.905843467E-1
1.867484074E1,-8.880192041E-1,2.965663373E-1,1.447708011E-1
1.868399309E1,-8.832851648E-1,3.434488773E-1,1.020114943E-1
1.869314543E1,-8.689302206E-1,3.498627543E-1,4.902049154E-2
1.870229777E1,-8.693883419E-1,3.587200642E-1,-1.068982761E-3
1.871145012E1,-8.892409205E-1,3.959817290E-1,-3.787253052E-2
1.872060246E1,-9.283351302E-1,4.259132445E-1,-5.955760926E-2
1.872975481E1,-9.637642503E-1,4.668400288E-1,-6.230641901E-2
1.873890715E1,-9.718579650E-1,5.402944088E-1,-4.413371533E-2
1.874805949E1,-9.991934299E-1,6.183301210E-1,-1.756185852E-2
1.875721184E1,-1.077687263E0,7.001836896E-1,3.206948051E-3
1.876636418E1,-1.137550354E0,7.754706144E-1,1.068982668E-2
1.877551647E1,-1.131136417E0,8.217422962E-1,1.679829881E-2
1.878466882E1,-1.128692985E0,8.797727823E-1,2.657185495E-2
1.879382116E1,-1.167023659E0,9.634588361E-1,3.787253052E-2
1.880297350E1,-1.246891975E0,1.000109673E0,1.954711229E-2
1.881212585E1,-1.338366389E0,9.869764447E-1,-4.153761268E-2
1.882127819E1,-1.387997627E0,1.062721491E0,-9.147437662E-2
1.883043054E1,-1.379140377E0,1.108993173E0,-1.085781008E-1
1.883957012E1,-1.347223639E0,1.045159698E0,-9.849911928E-2
1.884873522E1,-1.302784443E0,9.620844126E-1,-8.521319181E-2
1.885788757E1,-1.185501814E0,9.472714067E-1,-9.177979827E-2
1.886703991E1,-1.038440347E0,1.001636744E0,-1.218640283E-1
1.887619225E1,-9.691091776E-1,9.165763259E-1,-1.713426560E-1
1.888534460E1,-9.834640622E-1,7.458444834E-1,-2.257080674E-1
1.889449694E1,-1.016755223E0,6.358919740E-1,-2.747285664E-1
1.890364928E1,-1.014922738E0,5.198310018E-1,-3.326063454E-1
1.891280163E1,-9.909469485E-1,4.185830951E-1,-3.892624080E-1
1.892195397E1,-9.628480077E-1,3.996468186E-1,-4.231644273E-1
1.893110632E1,-9.336800575E-1,4.419479966E-1,-4.364503622E-1
1.894025866E1,-9.069554806E-1,5.004366040E-1,-4.436278343E-1
1.894941100E1,-9.029849768E-1,5.233433843E-1,-4.472928941E-1
1.895856335E1,-9.176452756E-1,5.129590034E-1,-4.527905285E-1
1.896771569E1,-9.219212532E-1,5.189147592E-1,-4.607315361E-1
1.897686804E1,-8.985562921E-1,5.363239050E-1,-4.772244096E-1
1.898602038E1,-8.516737819E-1,5.381564498E-1,-4.969242513E-1
1.899517272E1,-8.165500760E-1,4.743228853E-1,-5.216635466E-1
1.900432501E1,-8.472451568E-1,2.841966748E-1,-5.657972693E-1
1.901347736E1,-9.026795626E-1,1.282779220E-2,-6.087092757E-1
1.902262970E1,-9.294040799E-1,-1.565296054E-1,-6.306998134E-1
1.903178204E1,-9.451334476E-1,-1.867665499E-1,-6.400152445E-1
1.904093439E1,-9.494093657E-1,-1.204896197E-1,-6.442911625E-1
1.905008673E1,-9.440644383E-1,3.970507160E-2,-6.413896084E-1
1.905922632E1,-9.213103652E-1,2.609844804E-1,-6.352811456E-1
1.906839142E1,-8.744278550E-1,4.671454430E-1,-6.290199757E-1
1.907754376E1,-7.991409302E-1,5.806103349E-1,-6.071822047E-1
1.908668335E1,-6.746807694E-1,6.221479177E-1,-5.512896776E-1
1.909584845E1,-5.088357925E-1,5.708367825E-1,-4.524851143E-1
1.910500080E1,-3.339807391E-1,3.981196880E-1,-3.313846290E-1
1.911415314E1,-1.521009654E-1,2.076880634E-1,-2.396048307E-1
1.912330548E1,9.055810422E-2,1.563768983E-1,-2.055501044E-1
1.913245783E1,4.349232614E-1,2.328855246E-1,-2.018850148E-1
1.914159741E1,8.516737819E-1,3.040492237E-1,-1.922641695E-1
1.915076251E1,1.265522838E0,2.589992285E-1,-1.881409585E-1
1.915991486E1,1.608055353E0,8.765657991E-2,-2.130329758E-1
1.916905444E1,1.833916187E0,-1.427855492E-1,-2.302894145E-1
1.917821954E1,1.978992462E0,-4.045335948E-1,-1.820324808E-1
1.918737189E1,2.071077585E0,-6.894938350E-1,-6.627693027E-2
1.919651147E1,2.168354988E0,-9.055810571E-1,1.116323397E-1
1.920567658E1,2.320303202E0,-1.118461370E0,3.252761662E-1
1.921482892E1,2.518523216E0,-1.297744989E0,4.935645759E-1
1.922398126E1,2.702999115E0,-1.371199369E0,5.810684562E-1
1.923313361E1,2.827764750E0,-1.398534775E0,6.088619828E-1
1.924228595E1,2.874647141E0,-1.476265073E0,5.945070982E-1
1.925142554E1,2.881519318E0,-1.660282850E0,5.433486104E-1
1.926059064E1,2.874799967E0,-1.850409031E0,4.640912116E-1
1.926974293E1,2.866706133E0,-1.935774922E0,3.707842827E-1
1.927888257E1,2.889307499E0,-2.001746416E0,2.817533016E-1
1.928804762E1,2.969786644E0,-2.136438370E0,1.992889196E-1
1.929719996E1,3.054999828E0,-2.205158710E0,1.298050433E-1
1.930633960E1,3.060039282E0,-2.044353008E0,8.994726092E-2
1.931550465E1,3.031176805E0,-1.584537745E0,1.084253863E-1
1.932465699E1,3.031940460E0,-9.431481957E-1,1.940967143E-1
1.933379658E1,3.030413151E0,-3.382566571E-1,3.121429384E-1
1.934296168E1,2.963983536E0,1.478250325E-1,4.364503622E-1
1.935211402E1,2.836622000E0,4.914266169E-1,5.378510356E-1
1.936126637E1,2.712161779E0,5.951179266E-1,6.016845703E-1
1.937041871E1,2.644052267E0,4.848600030E-1,6.152759194E-1
1.937957106E1,2.632598877E0,2.580829561E-1,5.964923501E-1
1.938872340E1,2.625116110E0,-4.581354442E-4,5.685460567E-1
1.939787574E1,2.588159800E0,-2.180724740E-1,5.580089688E-1
1.940702809E1,2.522799253E0,-3.274141252E-1,5.239542127E-1
1.941616767E1,2.466143131E0,-3.718532622E-1,4.326325655E-1
1.942533277E1,2.423689127E0,-3.958290219E-1,3.304683566E-1
1.943448512E1,2.361077309E0,-4.396573007E-1,2.163926363E-1
1.944363746E1,2.258149624E0,-5.288410187E-1,1.253764033E-1
1.945278981E1,2.104826927E0,-6.595623493E-1,5.909947306E-2
1.946194215E1,1.962041378E0,-8.110524416E-1,1.664558798E-2
1.947109449E1,1.865222096E0,-9.287932515E-1,-5.955760833E-3
1.948024684E1,1.760461807E0,-9.990406632E-1,-2.977880463E-2
1.948939918E1,1.601336122E0,-9.746068120E-1,-5.238015205E-2
1.949855152E1,1.406475782E0,-8.863393664E-1,-6.108472496E-2
1.950770387E1,1.210546613E0,-7.608102560E-1,-5.955760926E-2
1.951685621E1,1.023169160E0,-6.261184216E-1,-6.093201414E-2
1.952600856E1,8.452599049E-1,-5.063923597E-1,-5.864133686E-2
1.953516090E1,6.774296165E-1,-4.078932703E-1,-6.230641901E-2
1.954431324E1,5.450284481E-1,-2.918322682E-1,-6.093201414E-2
1.955346559E1,4.422534108E-1,-1.160609797E-1,-4.169032723E-2
1.956261793E1,3.188622594E-1,9.254335612E-2,1.985253533E-3
1.957177027E1,1.586675793E-1,3.208475113E-1,8.429691941E-2
1.958092257E1,-2.397575416E-2,5.838172436E-1,1.823379099E-1
1.959007491E1,-2.192941606E-1,8.121214509E-1,2.565558553E-1
1.959922725E1,-4.112529159E-1,8.814526200E-1,3.205420971E-1
1.960837960E1,-5.737382770E-1,7.579087615E-1,3.962871730E-1
1.961753194E1,-7.040014863E-1,5.253286362E-1,4.793623984E-1
1.962668428E1,-7.973083854E-1,2.422009408E-1,5.367820263E-1
1.963583663E1,-8.266290426E-1,-6.688777357E-2,5.526640415E-1
1.964498897E1,-7.786775231E-1,-3.098522723E-1,5.111264586E-1
1.965414132E1,-7.174401283E-1,-3.607053161E-1,4.205683470E-1
1.966328090E1,-7.243121266E-1,-1.551551968E-1,2.890834510E-1
1.967244600E1,-8.032641411E-1,1.495048702E-1,1.068982705E-1
1.968159835E1,-7.698202729E-1,3.019112647E-1,-1.133121699E-1
1.969073793E1,-6.416950226E-1,3.982724249E-1,-3.019112647E-1
1.969990304E1,-7.543963790E-1,4.237752855E-1,-3.813214004E-1
1.970905538E1,-1.011563063E0,-7.177454978E-2,-3.407000601E-1
1.971819496E1,-1.045617819E0,-6.004628539E-1,-2.087570578E-1
1.972736007E1,-9.129112363E-1,-5.723638535E-1,3.512371797E-3
1.973651241E1,-7.766922712E-1,5.451811850E-2,2.977880239E-1
1.974565199E1,-1.007745266E0,6.094728708E-1,5.479300022E-1
1.975481710E1,-1.481762767E0,1.030804753E0,5.919110179E-1
1.976396944E1,-1.501615286E0,1.105022669E0,4.628695250E-1
1.977310902E1,-1.304158926E0,9.636115432E-1,2.725905776E-1
1.978227413E1,-1.225817680E0,6.948387623E-1,8.521319181E-2
1.979142647E1,-1.297134161E0,5.074613690E-1,-1.649287529E-2
1.980057882E1,-1.513374090E0,4.957025647E-1,-1.679829881E-2
1.980973116E1,-1.608513594E0,5.451811552E-1,6.245913357E-2
1.981888350E1,-1.503600478E0,6.097782850E-1,1.957765520E-1
1.982803585E1,-1.422052383E0,6.036698222E-1,3.226800561E-1
1.983718819E1,-1.386623263E0,5.210527182E-1,4.152234197E-1
1.984634054E1,-1.347223639E0,4.346178174E-1,4.790569544E-1
1.985549288E1,-1.330730796E0,3.599417508E-1,5.066977739E-1
1.986464522E1,-1.323247910E0,2.852656841E-1,5.086830258E-1
1.987379757E1,-1.300493836E0,2.273878902E-1,4.825693369E-1
1.988293715E1,-1.269646049E0,1.186570823E-1,4.162923992E-1
1.989210225E1,-1.255901933E0,1.939439960E-2,3.127537966E-1
1.990125460E1,-1.255291104E0,-1.771457121E-2,2.113531530E-1
1.991040694E1,-1.248571754E0,-4.382828996E-2,1.351499557E-1
1.991955929E1,-1.224748731E0,-5.848862603E-2,8.154810965E-2
1.992871163E1,-1.181684017E0,-3.680354729E-2,5.741964281E-2
1.993786392E1,-1.132052660E0,-6.566607952E-2,5.405998230E-2
1.994701626E1,-1.083490372E0,-5.833591148E-2,6.108472496E-2
1.995616861E1,-1.063790560E0,1.038440317E-2,6.673506647E-2
1.996532095E1,-1.077839971E0,6.749862432E-2,5.314370990E-2
1.997447330E1,-1.081505060E0,7.941014320E-2,1.954711229E-2
1.998362564E1,-1.066539288E0,7.269082218E-2,-2.428117767E-2
1.999277798E1,-1.059361815E0,1.304158866E-1,-6.826218218E-2
2.000193033E1,-1.054933190E0,2.055501044E-1,-1.104106456E-1
2.001108267E1,-1.023932695E0,2.765611112E-1,-1.426328421E-1
2.002023501E1,-9.962918758E-1,3.590254784E-1,-1.656923145E-1
2.002938736E1,-9.949174523E-1,4.246915579E-1,-1.766875684E-1
2.003853970E1,-1.018587828E0,4.995203316E-1,-1.647760421E-1
2.004769204E1,-1.038745761E0,6.152759194E-1,-1.337755471E-1
2.005684439E1,-1.040425539E0,7.166765332E-1,-9.605573118E-2
2.006599673E1,-1.053711534E0,8.205205798E-1,-6.383354217E-2
2.007514908E1,-1.059819937E0,8.590039611E-1,-4.856235534E-2
2.008430142E1,-1.026986957E0,8.422056437E-1,-4.474456236E-2
2.009345376E1,-1.009883285E0,7.904363275E-1,-4.947862774E-2
2.010260611E1,-1.001942158E0,7.476770282E-1,-6.398624927E-2
2.011175845E1,-1.003163934E0,7.427902818E-1,-7.681404054E-2
2.012091080E1,-1.029735804E0,7.547017932E-1,-8.368607610E-2
2.013006314E1,-1.021489382E0,7.385143638E-1,-8.735115826E-2
2.013921548E1,-9.900307059E-1,7.301151752E-1,-8.903098851E-2
2.014836783E1,-9.709417224E-1,7.354601026E-1,-8.948912472E-2
2.015752017E1,-9.622371197E-1,7.264500856E-1,-9.422318637E-2
2.016667251E1,-9.709417224E-1,7.440119386E-1,-1.035386100E-1
2.017582486E1,-9.581139088E-1,8.324320912E-1,-1.229330078E-1
2.018497720E1,-9.524635673E-1,9.655967951E-1,-1.469087601E-1
2.019412955E1,-9.970554113E-1,1.084101200E0,-1.795890927E-1
2.020328189E1,-1.032331824E0,1.118155956E0,-2.177670449E-1
2.021243423E1,-1.092958450E0,1.157708287E0,-2.463241518E-1
2.022158658E1,-1.171910524E0,1.226275921E0,-2.554868758E-1
2.023073892E1,-1.153279662E0,1.279877663E0,-2.492256761E-1
2.023989126E1,-1.030346632E0,1.251167893E0,-2.472404242E-1
2.024904361E1,-9.290986657E-1,1.177866220E0,-2.634278834E-1
2.025819595E1,-9.032903910E-1,1.125333309E0,-2.980934680E-1
2.026734830E1,-9.028322697E-1,1.096165419E0,-3.359659910E-1
2.027650064E1,-8.487722874E-1,9.950701594E-1,-3.629959822E-1
2.028565298E1,-7.478297353E-1,8.637380004E-1,-3.730749488E-1
2.029480533E1,-6.726955175E-1,7.963921428E-1,-3.738385141E-1
2.030395767E1,-6.377245188E-1,7.597413063E-1,-3.771981895E-1
2.031311001E1,-6.152759194E-1,6.529957056E-1,-3.884988427E-1
2.032226236E1,-6.111527085E-1,5.474718809E-1,-4.011739492E-1
2.033141470E1,-6.181774139E-1,5.070032477E-1,-4.170559645E-1
2.034056704E1,-6.114581227E-1,5.207473040E-1,-4.280512035E-1
2.034971939E1,-5.961869359E-1,5.460974574E-1,-4.333961308E-1
2.035887173E1,-6.048914790E-1,5.491516590E-1,-4.335488379E-1
2.036802408E1,-6.146650314E-1,4.695888162E-1,-4.317162931E-1
2.037717642E1,-6.161921620E-1,4.280512035E-1,-4.274403751E-1
2.038632876E1,-6.090146899E-1,4.659237564E-1,-4.298837483E-1
2.039548111E1,-5.813738704E-1,4.785988331E-1,-4.395045936E-1
2.040463345E1,-5.450284481E-1,4.863871336E-1,-4.538595080E-1
2.041378580E1,-5.294518471E-1,4.863871336E-1,-4.750864506E-1
2.042293814E1,-5.354076028E-1,4.682144225E-1,-5.062396526E-1
2.043209048E1,-5.699204803E-1,4.680617154E-1,-5.199837089E-1
2.044124283E1,-5.894675851E-1,3.758237660E-1,-5.132644176E-1
2.045039517E1,-5.963396430E-1,1.878355294E-1,-5.218162537E-1
2.045954751E1,-6.177192926E-1,-3.649812192E-2,-5.509842038E-1
2.046869986E1,-6.624638438E-1,-1.843231618E-1,-5.909947157E-1
2.047785220E1,-7.345438004E-1,-2.310529798E-1,-6.378772259E-1
2.048700454E1,-8.148702383E-1,-1.849340051E-1,-6.916317940E-1
2.049615684E1,-8.806890249E-1,-3.878879920E-2,-7.354601026E-1
2.050530923E1,-8.877137899E-1,1.394258887E-1,-7.582141757E-1
2.051444882E1,-8.025006056E-1,1.950129867E-1,-7.516475320E-1
2.052361392E1,-6.441384554E-1,4.902049154E-2,-7.223268747E-1
2.053276626E1,-4.616478086E-1,-2.000524700E-1,-6.847597957E-1
2.054190585E1,-3.022166789E-1,-4.605788291E-1,-6.566607952E-1
2.055107095E1,-1.928750277E-1,-6.345176101E-1,-6.258130074E-1
2.056022330E1,-1.165191159E-1,-6.522321701E-1,-5.728220344E-1
2.056936288E1,-3.542914242E-2,-5.312843919E-1,-4.873034060E-1
2.057852793E1,6.490252167E-2,-3.570402265E-1,-3.707842827E-1
2.058768033E1,1.676775664E-1,-2.032594234E-1,-2.333436459E-1
2.059683267E1,2.822114229E-1,-1.134648770E-1,-9.590301663E-2
2.060598501E1,4.645493329E-1,-8.735115826E-2,1.282779220E-2
2.061513731E1,7.252284288E-1,-9.162709117E-2,7.085828483E-2
2.062428970E1,1.022100210E0,-6.872031838E-2,8.887827396E-2
2.063344199E1,1.303395391E0,-2.015795931E-2,8.292251825E-2
2.064259434E1,1.499171853E0,4.123218823E-3,5.848862603E-2
2.065173397E1,1.618287086E0,-8.353336155E-2,6.856760383E-2
2.066089908E1,1.741067410E0,-3.498627543E-1,1.673721522E-1
2.067005142E1,1.922336340E0,-8.586985469E-1,3.468085229E-1
2.067920371E1,2.115516663E0,-1.336075664E0,5.657972693E-1
2.068835606E1,2.301367044E0,-1.610956907E0,7.609629631E-1
2.069750840E1,2.481108904E0,-1.764585018E0,8.515210748E-1
2.070666074E1,2.657185555E0,-1.866291046E0,8.192988634E-1
2.071581309E1,2.798291206E0,-1.889350533E0,7.133168578E-1
2.072496543E1,2.887322187E0,-1.790851474E0,5.960342288E-1
2.073411777E1,2.930845261E0,-1.719993114E0,5.108210444E-1
2.074327012E1,2.930234194E0,-1.773747683E0,4.723376334E-1
2.075242246E1,2.887780428E0,-1.855143070E0,4.685198367E-1
2.076156210E1,2.832345963E0,-1.932873487E0,4.888305068E-1
2.077072715E1,2.793709993E0,-1.957612753E0,5.008947253E-1
2.077987949E1,2.762556791E0,-1.831930876E0,4.712686539E-1
2.078901913E1,2.723615170E0,-1.595380306E0,4.201101959E-1
2.079818418E1,2.668333530E0,-1.308282137E0,3.486410677E-1
2.080734077E1,2.622825384E0,-1.015686274E0,2.852656841E-1
2.081649312E1,2.612135649E0,-6.891884208E-1,2.678565085E-1
2.082564546E1,2.630460978E0,-3.497100472E-1,3.098522723E-1
2.083479780E1,2.633515358E0,-1.801999472E-2,3.736858070E-1
2.084395015E1,2.597933292E0,2.695363462E-1,4.245388508E-1
2.085310249E1,2.534558058E0,4.611896873E-1,4.521796703E-1
2.086225484E1,2.445679665E0,5.483881235E-1,4.618005157E-1
2.087140718E1,2.365811348E0,5.289937258E-1,4.538595080E-1
2.088055952E1,2.316485405E0,4.506525695E-1,4.572191834E-1
2.088971187E1,2.315416574E0,3.434488773E-1,4.891359508E-1
2.089885145E1,2.329313278E0,2.151709497E-1,5.247178078E-1
2.090801655E1,2.283957958E0,1.206423342E-1,5.445703268E-1
2.091716890E1,2.183015347E0,2.107422985E-2,5.457920432E-1
2.092632124E1,2.062373161E0,-1.171299592E-1,5.254813433E-1
2.093547358E1,1.957307339E0,-2.718270421E-1,4.735593498E-1
2.094462593E1,1.872094154E0,-4.111002088E-1,3.405473530E-1
2.095377827E1,1.784284830E0,-5.931326747E-1,2.112004459E-1
2.096293062E1,1.685327530E0,-7.983773947E-1,1.313321590E-1
2.097208296E1,1.571404576E0,-9.927794933E-1,9.773556143E-2
2.098123530E1,1.451831222E0,-1.135870457E0,8.353336155E-2
2.099038765E1,1.329661727E0,-1.192221165E0,6.856760383E-2
2.099953999E1,1.209324837E0,-1.158013701E0,5.192201585E-2
2.100869234E1,1.079672575E0,-1.067302823E0,4.107947648E-2
2.101784468E1,9.266552925E-1,-9.590302110E-1,3.817795217E-2
2.102699702E1,7.586722970E-1,-8.509102464E-1,2.657185495E-2
2.103614937E1,5.963396430E-1,-7.488987446E-1,3.359660041E-3
2.104530171E1,4.495835900E-1,-6.667397618E-1,-2.657185495E-2
2.105445405E1,3.313846290E-1,-5.975613594E-1,-5.054761097E-2
2.106360640E1,2.363978922E-1,-5.236487985E-1,-6.169557199E-2
2.107275874E1,1.566823274E-1,-4.220954478E-1,-6.658235192E-2
2.108191108E1,8.948912472E-2,-2.829749882E-1,-8.185353130E-2
2.109106343E1,6.413896102E-3,-7.299624383E-2,-1.137702987E-1
2.110021577E1,-1.227803007E-1,1.936385781E-1,-1.466033459E-1
2.110936812E1,-2.780882120E-1,4.066715539E-1,-1.508792788E-1
2.111852046E1,-4.133908749E-1,5.024218559E-1,-1.311794519E-1
2.112767280E1,-5.086830258E-1,5.257867575E-1,-1.036913246E-1
2.113682515E1,-5.784723759E-1,4.685198367E-1,-6.398624927E-2
2.114597749E1,-6.368082762E-1,3.361186981E-1,-2.214321308E-2
2.115512984E1,-7.003363967E-1,1.951656938E-1,7.482878864E-3
2.116428218E1,-7.815790772E-1,1.047603041E-1,2.473931387E-2
2.117343452E1,-8.701519370E-1,8.643488586E-2,3.634541109E-2
2.118258687E1,-9.483403563E-1,1.412584335E-1,4.306473210E-2
2.119173921E1,-1.014617324E0,2.370087355E-1,4.917320609E-2
2.120089155E1,-1.078908920E0,3.249707520E-1,6.887302548E-2
2.121004390E1,-1.150378108E0,3.648285270E-1,1.073564067E-1
2.121919624E1,-1.223527074E0,3.220692277E-1,1.637070626E-1
2.122834859E1,-1.289956689E0,2.113531530E-1,2.267770469E-1
2.123750093E1,-1.347681761E0,8.979454637E-2,2.863346636E-1
2.124665327E1,-1.365854502E0,-2.825168520E-2,3.138227761E-1
2.125579291E1,-1.230551839E0,-1.325538605E-1,2.702999115E-1
2.126495796E1,-9.139801860E-1,-1.246128380E-1,1.711899489E-1
2.127411030E1,-6.067240238E-1,3.588727489E-2,8.276980370E-2
2.128324994E1,-5.013529062E-1,2.153236568E-1,2.748812549E-3
2.129241499E1,-5.822901726E-1,1.343864016E-2,-1.337755471E-1
2.130156734E1,-5.829010010E-1,-2.315111160E-1,-3.492519259E-1
2.131070697E1,-3.620797098E-1,2.730487287E-1,-5.720584393E-1
2.131987202E1,-3.096995652E-1,1.033095479E0,-6.974348426E-1
2.132902437E1,-6.612421870E-1,9.616262913E-1,-6.467345357E-1
2.133816400E1,-1.057223916E0,4.993676245E-1,-4.892886579E-1
2.134732905E1,-1.147171140E0,2.745758295E-1,-3.064926267E-1
2.135648140E1,-1.092500329E0,5.567872524E-1,-1.304158866E-1
2.136562103E1,-1.116017938E0,1.058140159E0,2.351761982E-2
2.137478608E1,-1.252084136E0,1.475959659E0,1.443126649E-1
2.138393843E1,-1.500546336E0,1.918823957E0,2.484621257E-1
2.139307806E1,-1.696170092E0,2.064511061E0,2.922904193E-1
2.140224317E1,-1.744885206E0,1.458092451E0,2.495311052E-1
2.141139551E1,-1.707928896E0,4.640912116E-1,1.595838517E-1
2.142053510E1,-1.650662065E0,-1.815743446E-1,4.688252881E-2
2.142970015E1,-1.649440289E0,-6.226060390E-1,-7.543963939E-2
2.143885249E1,-1.753437042E0,-1.025001645E0,-1.546970755E-1
2.144799213E1,-1.814827204E0,-1.123195410E0,-1.154501289E-1
2.145715718E1,-1.693574071E0,-1.035080671E0,2.764083818E-2
2.146630958E1,-1.531241417E0,-9.515473247E-1,2.266243398E-1
2.147544916E1,-1.486191392E0,-9.048175216E-1,4.265241027E-1
2.148461426E1,-1.519177079E0,-7.325585485E-1,5.714476109E-1
2.149376661E1,-1.537807941E0,-4.582881629E-1,6.218425035E-1
2.150290619E1,-1.492605329E0,-2.510582209E-1,5.859552622E-1
2.151207129E1,-1.429993391E0,-1.204896197E-1,5.021164417E-1
2.152122358E1,-1.443584800E0,-1.007897966E-2,4.066715539E-1
2.153037598E1,-1.466186166E0,2.397575416E-2,3.106158376E-1
2.153952833E1,-1.420983434E0,4.413371533E-2,2.107423097E-1
2.154868067E1,-1.349972486E0,1.499630064E-1,1.030804738E-1
2.155783301E1,-1.304464340E0,2.157817930E-1,-1.145338640E-2
2.156698536E1,-1.299883008E0,2.298312783E-1,-1.163664013E-1
2.157613770E1,-1.315154195E0,2.548760176E-1,-1.934858710E-1
2.158529004E1,-1.293927193E0,2.480039895E-1,-2.385358512E-1
2.159444239E1,-1.257276416E0,2.848075330E-1,-2.498365343E-1
2.160359473E1,-1.234216928E0,3.964398801E-1,-2.345653474E-1
2.161274708E1,-1.206575990E0,4.483618736E-1,-2.020377368E-1
2.162189942E1,-1.189014196E0,4.100312293E-1,-1.603474021E-1
2.163105176E1,-1.177866220E0,3.752129376E-1,-1.174353883E-1
2.164020411E1,-1.166412830E0,3.839175105E-1,-8.872556686E-2
2.164935645E1,-1.169772506E0,4.743228853E-1,-6.383354217E-2
2.165850879E1,-1.181836724E0,5.719057322E-1,-3.649812192E-2
2.166766114E1,-1.187181592E0,6.215370893E-1,-1.939439960E-2
2.167681348E1,-1.171299577E0,6.317687631E-1,-2.550287358E-2
2.168596582E1,-1.155722976E0,6.418477297E-1,-6.749862432E-2
2.169511817E1,-1.147934675E0,6.959077120E-1,-1.259872466E-1
2.170427051E1,-1.150530815E0,8.138012886E-1,-1.921114624E-1
2.171342286E1,-1.161678791E0,9.779664874E-1,-2.570139766E-1
2.172257520E1,-1.169467092E0,1.121210098E0,-3.084778786E-1
2.173172754E1,-1.184280157E0,1.146407604E0,-3.483356535E-1
2.174087989E1,-1.192831993E0,1.089598775E0,-3.886515796E-1
2.175003223E1,-1.166565537E0,1.120293856E0,-4.153761268E-1
2.175918458E1,-1.119530320E0,1.171452284E0,-4.248442650E-1
2.176833692E1,-1.082879424E0,1.139077425E0,-4.196520746E-1
2.177748926E1,-1.066081166E0,1.039662004E0,-3.975088596E-1
2.178664161E1,-1.060583591E0,8.904625773E-1,-3.717005551E-1
2.179579395E1,-1.033095479E0,7.777612805E-1,-3.451287150E-1
2.180494629E1,-9.759812355E-1,7.183563709E-1,-3.226800561E-1
2.181409864E1,-9.350544214E-1,6.720846891E-1,-3.089359999E-1
2.182325098E1,-9.145910740E-1,5.709894896E-1,-2.727433145E-1
2.183240332E1,-8.758022785E-1,4.271349311E-1,-2.254026383E-1
2.184155567E1,-8.327375054E-1,2.832804024E-1,-2.029540092E-1
2.185070801E1,-7.860077024E-1,2.225011140E-1,-1.965401024E-1
2.185986036E1,-7.220214605E-1,2.412846684E-1,-1.905843467E-1
2.186901270E1,-6.725428104E-1,2.197522968E-1,-1.847812980E-1
2.187816504E1,-6.459710002E-1,1.372879148E-1,-1.740914732E-1
2.188731739E1,-6.444438696E-1,8.735115826E-2,-1.629435122E-1
2.189646973E1,-6.560499668E-1,1.421747059E-1,-1.551551968E-1
2.190562208E1,-6.490252018E-1,2.481566966E-1,-1.508792788E-1
2.191477442E1,-6.313106418E-1,3.393256664E-1,-1.466033459E-1
2.192392676E1,-6.331431866E-1,4.049917459E-1,-1.362189353E-1
2.193307911E1,-6.378772259E-1,4.381301999E-1,-1.247655526E-1
2.194223145E1,-6.160394549E-1,4.201101959E-1,-1.276670843E-1
2.195138379E1,-5.848862529E-1,3.857500553E-1,-1.426328421E-1
2.196053614E1,-5.532749295E-1,3.701734245E-1,-1.614163816E-1
2.196968848E1,-5.121954083E-1,3.924693763E-1,-1.586675793E-1
2.197884083E1,-4.706578255E-1,4.275930822E-1,-1.296523362E-1
2.198799317E1,-4.637857676E-1,4.089622498E-1,-9.972081333E-2
2.199714551E1,-4.847072959E-1,3.210002482E-1,-8.383878320E-2
2.200629786E1,-4.929537475E-1,2.053973973E-1,-7.650861889E-2
2.201545020E1,-4.543176591E-1,1.536280811E-1,-7.009471953E-2
2.202460254E1,-3.903313875E-1,1.550024897E-1,-6.108472496E-2
2.203375489E1,-3.481829464E-1,1.339282542E-1,-5.894676223E-2
2.204290723E1,-3.498627543E-1,1.110214889E-1,-6.627693027E-2
2.205205958E1,-3.678827584E-1,1.333174109E-1,-8.047912270E-2
2.206121192E1,-3.782671690E-1,2.024958730E-1,-8.246438205E-2
2.207036426E1,-3.603998721E-1,2.664821148E-1,-6.154286116E-2
2.207951666E1,-3.332171738E-1,3.046600819E-1,-3.023693897E-2
2.208866895E1,-3.272614181E-1,3.293993771E-1,-1.252236869E-2
2.209782134E1,-3.532224298E-1,3.449759781E-1,-1.832541823E-2
2.210697369E1,-3.926220834E-1,3.503209054E-1,-4.963133857E-2
2.211612603E1,-4.169032574E-1,3.217637837E-1,-9.009996802E-2
2.212527838E1,-4.095730782E-1,2.686200738E-1,-1.163664013E-1
2.213443072E1,-3.973561525E-1,2.174616307E-1,-1.209477559E-1
2.214358306E1,-4.106420577E-1,1.704263836E-1,-1.094943732E-1
2.215273541E1,-4.369085133E-1,1.499630064E-1,-8.215895295E-2
2.216188775E1,-4.494308829E-1,1.398840249E-1,-5.299099907E-2
2.217104010E1,-4.504998624E-1,1.206423342E-1,-3.283303976E-2
2.218019244E1,-4.521796703E-1,1.032331884E-1,-2.244863659E-2
2.218934478E1,-4.700469673E-1,8.811471611E-2,-1.832541823E-2
2.219849713E1,-5.082249045E-1,8.857285231E-2,-2.596100792E-2
2.220764947E1,-5.399889946E-1,1.282779276E-1,-3.344388679E-2
2.221680181E1,-5.404471159E-1,1.855448484E-1,-3.527642787E-2
2.222595416E1,-5.210527182E-1,2.260134816E-1,-4.382828996E-2
2.223510650E1,-4.970769584E-1,2.422009408E-1,-5.833591148E-2
2.224425884E1,-4.746283293E-1,2.270824611E-1,-7.085828483E-2
2.225341119E1,-4.485146105E-1,1.934858710E-1,-7.620319724E-2
2.226256353E1,-4.243861437E-1,1.730224788E-1,-6.505523622E-2
2.227171588E1,-3.944546282E-1,1.911951900E-1,-3.863608837E-2
