"Time (s)","Gyroscope x (rad/s)","Gyroscope y (rad/s)","Gyroscope z (rad/s)"
8.790483332E0,-7.482878864E-3,-1.710372418E-2,2.901524538E-3
8.799635624E0,-1.359135192E-2,-2.183778957E-2,-2.137965523E-3
8.808787864E0,-1.786728203E-2,-2.733541466E-2,-5.192201585E-3
8.817940155E0,-1.908897609E-2,-2.733541466E-2,-7.024743594E-3
8.827092395E0,-1.359135192E-2,-2.550287358E-2,-3.970507067E-3
8.836244686E0,-6.108472589E-3,-2.489202656E-2,-2.596100792E-3
8.845396926E0,-3.054236295E-3,-2.794626169E-2,-1.374406274E-3
8.854549218E0,-4.275931045E-3,-3.206948191E-2,1.679830020E-3
8.863701457E0,-9.773556143E-3,-3.634541109E-2,1.679830020E-3
8.872853749E0,-1.343864016E-2,-3.451287001E-2,-2.137965523E-3
8.882006041E0,-1.481304597E-2,-3.038965166E-2,-2.137965523E-3
8.891158280E0,-9.315420873E-3,-2.367033064E-2,-7.635590737E-4
8.900310572E0,-2.596100792E-3,-1.466033421E-2,1.679830020E-3
8.909462811E0,3.512371797E-3,-8.551862091E-3,2.901524538E-3
8.918615103E0,4.123218823E-3,-7.330167107E-3,4.734066315E-3
8.927767343E0,1.068982761E-3,-1.160609815E-2,5.344913341E-3
8.936919634E0,-5.039489828E-3,-1.221694518E-2,4.123218823E-3
8.946071926E0,-1.191152167E-2,-6.261184346E-3,9.162708884E-4
8.955224166E0,-1.634016447E-2,8.857285604E-3,1.527118147E-3
8.964376457E0,-1.954711229E-2,2.504473738E-2,2.748812549E-3
8.973528697E0,-2.458660305E-2,4.367557913E-2,3.359660041E-3
8.982680989E0,-2.718270384E-2,5.344913527E-2,5.039489828E-3
8.991833280E0,-2.916795574E-2,5.467082933E-2,6.261184346E-3
9.000985520E0,-2.962609194E-2,4.123219103E-2,5.039489828E-3
9.010137811E0,-3.008422814E-2,2.809897438E-2,1.985253533E-3
9.019290051E0,-2.809897438E-2,1.786728203E-2,9.162708884E-4
9.028442343E0,-2.443389036E-2,1.298050396E-2,1.527118147E-3
9.037594582E0,-1.572931744E-2,9.468132630E-3,5.803049076E-3
9.046746874E0,-8.246437646E-3,3.359660041E-3,7.635590620E-3
9.055899114E0,-4.428642802E-3,-1.038440317E-2,1.023169141E-2
9.065051405E0,-7.635590737E-4,-1.756185852E-2,1.267508045E-2
9.074203697E0,4.581354442E-4,-2.305948362E-2,1.634016447E-2
9.083355936E0,4.581354442E-4,-2.305948362E-2,1.817270555E-2
9.092508228E0,1.068982761E-3,-1.756185852E-2,1.817270555E-2
9.101660468E0,-7.635590737E-4,-1.221694518E-2,1.817270555E-2
9.110812759E0,-2.748812549E-3,-6.261184346E-3,1.572931744E-2
9.119965051E0,-7.024743594E-3,-1.374406274E-3,9.620844387E-3
9.129117291E0,-4.581354558E-3,4.581354442E-4,5.955760833E-3
9.138269582E0,-5.192201585E-3,1.679830020E-3,4.734066315E-3
9.147421822E0,-7.635590620E-3,4.581354442E-4,2.290677279E-3
9.156574114E0,-1.191152167E-2,-7.482878864E-3,2.748812549E-3
9.165726353E0,-1.618745178E-2,-1.710372418E-2,3.970507067E-3
9.174878645E0,-1.969982497E-2,-2.489202656E-2,3.970507067E-3
9.184030936E0,-1.786728203E-2,-3.222219273E-2,4.581354558E-3
9.193183176E0,-1.420219894E-2,-3.329117596E-2,3.970507067E-3
9.202335468E0,-1.236965694E-2,-3.100049868E-2,3.359660041E-3
9.211487707E0,-1.359135192E-2,-2.367033064E-2,3.970507067E-3
9.220639999E0,-1.191152167E-2,-7.482878864E-3,4.581354558E-3
9.229792291E0,-9.620844387E-3,7.635590620E-3,1.068982668E-2
9.238944530E0,-5.344913341E-3,1.496575773E-2,1.328592747E-2
9.248096822E0,-2.748812549E-3,8.857285604E-3,1.084253844E-2
9.257249061E0,-6.413896102E-3,-7.482878864E-3,7.788302377E-3
9.266401353E0,-1.236965694E-2,-2.672456764E-2,4.581354558E-3
9.275553645E0,-1.588202827E-2,-4.062134400E-2,3.359660041E-3
9.284705884E0,-2.015795931E-2,-4.291202128E-2,3.970507067E-3
9.293858176E0,-2.153236605E-2,-4.245388508E-2,1.527118147E-3
9.303010416E0,-1.725643501E-2,-3.695625812E-2,1.527118147E-3
9.312162707E0,-1.236965694E-2,-3.100049868E-2,3.054236295E-4
9.321314947E0,-9.926267900E-3,-2.244863659E-2,2.901524538E-3
9.330467239E0,-1.313321572E-2,-1.053711493E-2,3.359660041E-3
9.339619530E0,-1.756185852E-2,-1.374406274E-3,4.581354558E-3
9.348771770E0,-2.000524849E-2,-7.635590737E-4,9.162708884E-4
9.357924061E0,-1.878355257E-2,9.162708884E-4,3.054236295E-4
9.367076301E0,-1.084253844E-2,7.024743594E-3,-9.162708884E-4
9.376228593E0,-4.581354442E-4,1.786728203E-2,-1.985253533E-3
9.385380884E0,8.093725890E-3,3.054236248E-2,-1.985253533E-3
9.394533124E0,1.053711493E-2,3.603998944E-2,-2.596100792E-3
9.403685416E0,7.482878864E-3,3.603998944E-2,-1.985253533E-3
9.412837655E0,6.108472589E-4,3.359659761E-2,-1.527118147E-4
9.421989947E0,-5.344913341E-3,2.626643144E-2,2.290677279E-3
9.431142186E0,-8.399149403E-3,1.481304597E-2,3.970507067E-3
9.440294478E0,-8.857285604E-3,3.970507067E-3,5.344913341E-3
9.449446770E0,-7.024743594E-3,4.581354442E-4,4.123218823E-3
9.458599009E0,-6.413896102E-3,-7.635590737E-4,3.512371797E-3
9.467751301E0,-4.581354558E-3,2.748812549E-3,1.679830020E-3
9.476903593E0,-9.009997360E-3,1.114796288E-2,1.527118147E-3
9.486055832E0,-1.084253844E-2,1.847812906E-2,2.137965523E-3
9.495208124E0,-1.450762246E-2,1.664558798E-2,9.162708884E-4
9.504360364E0,-1.511846948E-2,9.926267900E-3,-1.527118147E-3
9.513512655E0,-1.618745178E-2,-2.748812549E-3,-4.581354558E-3
9.522664947E0,-1.496575773E-2,-1.175880991E-2,-5.192201585E-3
9.531817186E0,-9.926267900E-3,-1.588202827E-2,-1.985253533E-3
9.540969478E0,-7.482878864E-3,-1.404948719E-2,-7.635590737E-4
9.550121718E0,-8.857285604E-3,-6.261184346E-3,-1.985253533E-3
9.559274009E0,-1.068982668E-2,3.970507067E-3,-7.024743594E-3
9.568426301E0,-1.145338640E-2,1.786728203E-2,-8.857285604E-3
9.577578541E0,-1.038440317E-2,3.161134571E-2,-9.468132630E-3
9.586730832E0,-1.099525020E-2,3.955236077E-2,-8.246437646E-3
9.595883072E0,-1.175880991E-2,4.428642616E-2,-6.413896102E-3
9.605035364E0,-1.359135192E-2,4.550812021E-2,-5.192201585E-3
9.614187603E0,-1.603474095E-2,4.734066129E-2,-2.748812549E-3
9.623339895E0,-2.046338283E-2,5.100574717E-2,-9.162708884E-4
9.632492186E0,-2.351761982E-2,5.039490014E-2,3.054236295E-4
9.641644426E0,-2.596100792E-2,4.856235534E-2,3.054236295E-4
9.650796718E0,-2.596100792E-2,5.100574717E-2,-9.162708884E-4
9.659948957E0,-2.412846684E-2,4.978405312E-2,-1.527118147E-3
9.669101249E0,-1.725643501E-2,4.489727318E-2,-3.359660041E-3
9.678253541E0,-1.038440317E-2,3.710897267E-2,-1.527118147E-3
9.687405780E0,-3.512371797E-3,3.176405653E-2,-1.374406274E-3
9.696558072E0,1.527118147E-4,2.565558441E-2,4.581354442E-4
9.705710364E0,-3.512371797E-3,1.664558798E-2,1.679830020E-3
9.714862603E0,-1.267508045E-2,1.359135192E-2,-3.054236295E-4
9.724014895E0,-2.321219631E-2,1.603474095E-2,9.162708884E-4
9.733167134E0,-2.458660305E-2,2.687728032E-2,4.581354558E-3
9.742319426E0,-1.725643501E-2,3.298575059E-2,1.007897966E-2
9.751471718E0,-4.734066315E-3,2.031067200E-2,1.007897966E-2
9.760623957E0,8.399149403E-3,-2.596100792E-3,7.788302377E-3
9.769776249E0,1.542389300E-2,-2.550287358E-2,7.941014133E-3
9.778928489E0,1.725643501E-2,-3.634541109E-2,7.941014133E-3
9.788080780E0,1.175880991E-2,-3.863608837E-2,7.941014133E-3
9.797233072E0,1.527118147E-4,-3.817795217E-2,5.344913341E-3
9.806385311E0,-1.221694518E-2,-3.161134571E-2,3.359660041E-3
9.815537603E0,-2.046338283E-2,-1.893626526E-2,2.137965523E-3
9.824689843E0,-2.183778957E-2,-5.650337320E-3,1.527118147E-3
9.833842134E0,-1.572931744E-2,3.970507067E-3,9.162708884E-4
9.842994426E0,-8.246437646E-3,9.468132630E-3,-2.137965523E-3
9.852146666E0,-2.137965523E-3,4.581354558E-3,-4.428642802E-3
9.861298957E0,2.290677279E-3,-3.206948051E-3,-5.039489828E-3
9.870451197E0,2.901524538E-3,-6.261184346E-3,-3.206948051E-3
9.879603489E0,4.581354442E-4,-6.261184346E-3,-1.985253533E-3
9.888755780E0,-2.596100792E-3,-6.261184346E-3,1.068982761E-3
9.897908020E0,-5.803049076E-3,-3.206948051E-3,5.344913341E-3
9.907060311E0,-8.857285604E-3,-5.650337320E-3,7.177455351E-3
9.916212551E0,-1.130067464E-2,-6.261184346E-3,5.803049076E-3
9.925364843E0,-1.435491070E-2,-5.039489828E-3,4.581354558E-3
9.934517134E0,-1.634016447E-2,1.527118147E-3,5.192201585E-3
9.943669374E0,-1.450762246E-2,6.413896102E-3,7.024743594E-3
9.952821666E0,-1.267508045E-2,6.413896102E-3,2.748812549E-3
9.961973957E0,-1.267508045E-2,6.413896102E-3,-3.054236295E-4
9.971126197E0,-1.389677543E-2,1.007897966E-2,-2.748812549E-3
9.980278489E0,-1.511846948E-2,1.664558798E-2,-2.748812549E-3
9.989430728E0,-1.649287529E-2,2.153236605E-2,-1.527118147E-3
9.998583020E0,-1.267508045E-2,2.260134928E-2,-3.970507067E-3
1.000773531E1,-7.177455351E-3,1.725643501E-2,-5.803049076E-3
1.001688755E1,-1.527118147E-3,8.093725890E-3,-5.650337320E-3
1.002603984E1,-1.985253533E-3,-4.428642802E-3,-3.817795310E-3
1.003519208E1,-7.482878864E-3,-1.221694518E-2,-2.596100792E-3
1.004434437E1,-1.374406368E-2,-1.038440317E-2,-2.748812549E-3
1.005349667E1,-1.801999472E-2,-9.926267900E-3,-2.748812549E-3
1.006264891E1,-2.122694254E-2,-1.527118147E-3,-4.581354558E-3
1.007180120E1,-2.061609551E-2,5.192201585E-3,-9.162708884E-4
1.008095349E1,-1.634016447E-2,7.024743594E-3,3.054236295E-4
1.009010573E1,-1.206423342E-2,8.246437646E-3,-9.162708884E-4
1.009925802E1,-3.970507067E-3,8.857285604E-3,-4.428642802E-3
1.010841026E1,1.527118147E-3,6.413896102E-3,-5.650337320E-3
1.011756255E1,4.123218823E-3,3.359660041E-3,-6.261184346E-3
1.012671484E1,1.679830020E-3,-1.374406274E-3,-6.261184346E-3
1.013586708E1,-3.206948051E-3,-6.261184346E-3,-5.650337320E-3
1.014501937E1,-8.093725890E-3,-1.404948719E-2,-2.596100792E-3
1.015417167E1,-1.236965694E-2,-2.199050039E-2,-1.527118147E-3
1.016332390E1,-1.725643501E-2,-3.161134571E-2,-2.748812549E-3
1.017247620E1,-2.214321308E-2,-3.817795217E-2,-5.192201585E-3
1.018162844E1,-2.519745007E-2,-3.878879920E-2,-7.635590620E-3
1.019078073E1,-2.519745007E-2,-3.649812192E-2,-8.857285604E-3
1.019993302E1,-2.092151903E-2,-3.283303976E-2,-7.635590620E-3
1.020908526E1,-1.466033421E-2,-3.222219273E-2,-4.581354558E-3
1.021823755E1,-6.719320081E-3,-2.977880463E-2,-2.596100792E-3
1.022738979E1,-1.832541777E-3,-2.489202656E-2,1.679830020E-3
1.023654208E1,4.275931045E-3,-2.000524849E-2,5.344913341E-3
1.024569437E1,4.734066315E-3,-1.710372418E-2,7.177455351E-3
1.025484661E1,6.719320081E-3,-2.305948362E-2,3.512371797E-3
1.026399891E1,9.315420873E-3,-3.206948191E-2,-2.596100792E-3
1.027315120E1,1.175880991E-2,-3.329117596E-2,-6.108472589E-3
1.028230344E1,9.926267900E-3,-2.916795574E-2,-5.650337320E-3
1.029145573E1,4.886778072E-3,-1.771457121E-2,-1.374406274E-3
1.030060802E1,4.581354442E-4,-8.093725890E-3,1.068982761E-3
1.030976026E1,-5.803049076E-3,-7.635590737E-4,3.512371797E-3
1.031891255E1,-1.267508045E-2,3.970507067E-3,1.527118147E-3
1.032806479E1,-1.572931744E-2,5.192201585E-3,-2.137965523E-3
1.033721708E1,-1.374406368E-2,2.137965523E-3,-7.024743594E-3
1.034636937E1,-7.024743594E-3,2.137965523E-3,-1.007897966E-2
1.035552161E1,4.581354442E-4,9.162708884E-4,-1.053711493E-2
1.036467390E1,5.955760833E-3,-1.527118147E-4,-9.315420873E-3
1.037382620E1,4.734066315E-3,-7.635590737E-4,-8.093725890E-3
1.038297844E1,-1.374406274E-3,-3.206948051E-3,-4.428642802E-3
1.039213073E1,-7.635590620E-3,-2.596100792E-3,-7.635590737E-4
1.040128302E1,-1.007897966E-2,-7.482878864E-3,1.527118147E-3
1.041043526E1,-7.635590620E-3,-9.162709117E-3,2.290677279E-3
1.041958755E1,-2.596100792E-3,-1.160609815E-2,1.068982761E-3
1.042873979E1,7.177455351E-3,-1.160609815E-2,2.901524538E-3
1.043789208E1,1.954711229E-2,-6.261184346E-3,1.832541777E-3
1.044704437E1,2.932066843E-2,2.901524538E-3,2.443389036E-3
1.045619661E1,2.855710872E-2,1.191152167E-2,-0.000000000E0
1.046534890E1,2.794626169E-2,2.153236605E-2,-4.275931045E-3
1.047450120E1,2.107422985E-2,2.748812735E-2,-6.108472589E-3
1.048365344E1,1.435491070E-2,2.809897438E-2,-3.206948051E-3
1.049280573E1,9.468132630E-3,2.153236605E-2,1.679830020E-3
1.050195802E1,8.857285604E-3,9.468132630E-3,4.734066315E-3
1.051111026E1,1.023169141E-2,-7.482878864E-3,4.123218823E-3
1.052026255E1,1.160609815E-2,-1.893626526E-2,-1.527118147E-4
1.052941484E1,1.481304597E-2,-2.122694254E-2,-3.665083554E-3
1.053856708E1,1.832541823E-2,-7.482878864E-3,-7.941014133E-3
1.054771937E1,1.756185852E-2,1.542389300E-2,-1.160609815E-2
1.055687161E1,1.603474095E-2,4.428642616E-2,-1.298050396E-2
1.056602390E1,1.710372418E-2,7.269082218E-2,-1.114796288E-2
1.057517620E1,1.496575773E-2,9.559759498E-2,-7.482878864E-3
1.058432844E1,9.926267900E-3,1.130067408E-1,-6.261184346E-3
1.059348073E1,1.221694518E-3,1.136175916E-1,-1.130067464E-2
1.060263302E1,-7.941014133E-3,1.081199646E-1,-2.168507688E-2
1.061178526E1,-1.221694518E-2,1.122431830E-1,-3.023693897E-2
1.062093755E1,-1.832541777E-3,1.244601309E-1,-2.962609194E-2
1.063008984E1,2.153236605E-2,1.353026628E-1,-2.458660305E-2
1.063924208E1,4.245388508E-2,1.353026628E-1,-1.893626526E-2
1.064839437E1,4.978405312E-2,1.336228400E-1,-1.389677543E-2
1.065754667E1,3.985778242E-2,1.372879148E-1,-6.108472589E-3
1.066669890E1,2.321219631E-2,1.438545287E-1,2.901524538E-3
1.067585120E1,6.413896102E-3,1.522536725E-1,9.468132630E-3
1.068500349E1,-2.901524538E-3,1.546970755E-1,1.007897966E-2
1.069415573E1,-5.803049076E-3,1.473668963E-1,5.192201585E-3
1.070330802E1,2.748812549E-3,1.414111406E-1,3.970507067E-3
1.071246026E1,1.389677543E-2,1.462979168E-1,4.123218823E-3
1.072161255E1,2.305948362E-2,1.511846930E-1,3.512371797E-3
1.073076484E1,2.611372061E-2,1.540862173E-1,-1.527118147E-4
1.073991708E1,2.183778957E-2,1.594311297E-1,-6.872031838E-3
1.074906937E1,1.740914769E-2,1.721062213E-1,-9.926267900E-3
1.075822167E1,1.786728203E-2,1.817270666E-1,-1.603474095E-2
1.076737391E1,2.535016090E-2,1.811162084E-1,-2.764083818E-2
1.077652620E1,3.603998944E-2,1.714953631E-1,-3.542914242E-2
1.078567849E1,4.856235534E-2,1.545443535E-1,-3.603998944E-2
1.079483073E1,5.421269313E-2,1.340809762E-1,-3.588727489E-2
1.080398302E1,4.825693369E-2,1.081199646E-1,-3.588727489E-2
1.081313531E1,4.001049697E-2,7.085828483E-2,-3.527642787E-2
1.082228755E1,3.726168349E-2,2.443389036E-2,-3.527642787E-2
1.083143984E1,3.771981969E-2,-2.626643144E-2,-4.016320780E-2
1.084059213E1,4.001049697E-2,-6.841489673E-2,-4.749337584E-2
1.084974437E1,4.398100078E-2,-9.315420687E-2,-5.604523420E-2
1.085889667E1,4.947862774E-2,-9.437590092E-2,-6.139015034E-2
1.086804885E1,6.169557199E-2,-8.414421231E-2,-6.077930331E-2
1.087720120E1,7.406523079E-2,-7.314895838E-2,-5.818320066E-2
1.088635349E1,8.506047726E-2,-7.375980914E-2,-5.390727147E-2
1.089550573E1,9.315420687E-2,-7.971556485E-2,-4.642439261E-2
1.090465802E1,9.559759498E-2,-8.460234851E-2,-4.764608666E-2
1.091381031E1,1.012479365E-1,-9.116895497E-2,-5.008947477E-2
1.092296260E1,1.105633527E-1,-9.788827598E-2,-5.436540768E-2
1.093211484E1,1.285833418E-1,-1.020114943E-1,-5.848862603E-2
1.094126713E1,1.470614821E-1,-1.050657257E-1,-5.894676223E-2
1.095041937E1,1.673721522E-1,-9.788827598E-2,-6.368082762E-2
1.095957167E1,1.875301152E-1,-8.689302206E-2,-7.024743408E-2
1.096872396E1,2.017323077E-1,-7.498150319E-2,-7.620319724E-2
1.097787625E1,2.157817930E-1,-6.169557199E-2,-7.375980914E-2
1.098702849E1,2.302894145E-1,-4.107947648E-2,-6.810946763E-2
1.099618078E1,2.480039895E-1,-2.244863659E-2,-6.994201243E-2
1.100533302E1,2.660239935E-1,-2.122694254E-2,-7.834116369E-2
1.101448531E1,2.913741469E-1,-2.779355086E-2,-8.368607610E-2
1.102363760E1,3.240544796E-1,-3.374931216E-2,-8.215895295E-2
1.103278990E1,3.660502136E-1,-5.787777901E-2,-8.185353130E-2
1.104194213E1,4.248442650E-1,-7.818844914E-2,-8.017370105E-2
1.105109443E1,5.021164417E-1,-9.666658193E-2,-6.795676053E-2
1.106024667E1,5.934380889E-1,-1.229330078E-1,-3.619270027E-2
1.106939896E1,6.956022978E-1,-1.388150454E-1,1.893626526E-2
1.107855125E1,8.089144826E-1,-1.571404636E-1,8.872556686E-2
1.108770349E1,9.416210651E-1,-2.102841735E-1,1.623326540E-1
1.109685578E1,1.107924223E0,-2.970244884E-1,2.313583940E-1
1.110600807E1,1.323247910E0,-4.260659516E-1,2.951919436E-1
1.111523833E1,1.582705259E0,-5.879405141E-1,3.655920923E-1
1.112458599E1,1.943410516E0,-8.009734750E-1,4.738647640E-1
1.113390828E1,2.315569162E0,-9.823951125E-1,5.908420086E-1
1.114325656E1,2.644815922E0,-1.089446068E0,6.794148684E-1
1.115259187E1,2.984447002E0,-1.133274436E0,7.464553714E-1
1.116191417E1,3.268032789E0,-1.009119630E0,7.808154821E-1
1.117126245E1,3.420439243E0,-6.798729897E-1,7.760814428E-1
1.118059776E1,3.446705580E0,-2.732014358E-1,7.333221436E-1
1.118992005E1,3.387453556E0,-9.529217333E-2,6.436802745E-1
1.119926833E1,3.290023327E0,-1.012479365E-1,5.464028716E-1
1.120860364E1,3.159760237E0,-1.294996142E-1,4.709632397E-1
1.121792594E1,2.999870777E0,-1.479777545E-1,4.350759685E-1
1.122727422E1,2.883657217E0,-1.878355294E-1,4.605788291E-1
1.123660953E1,2.856168985E0,-2.796153426E-1,5.905365944E-1
1.124593182E1,2.852198601E0,-4.390464723E-1,8.220477104E-1
1.125528010E1,2.765305519E0,-7.707365155E-1,1.090362310E0
1.126461542E1,2.623283625E0,-1.240936160E0,1.259414315E0
1.127393771E1,2.542651653E0,-1.610346079E0,1.262163162E0
1.128328599E1,2.561740637E0,-1.825975180E0,1.152516007E0
1.129262130E1,2.604347229E0,-1.897596955E0,9.941539168E-1
1.130194359E1,2.591214180E0,-1.935164094E0,8.243383765E-1
1.131129187E1,2.509207726E0,-2.017781258E0,6.839962006E-1
1.132062719E1,2.397881031E0,-2.059166193E0,6.123743653E-1
1.132994948E1,2.291135311E0,-1.920656443E0,6.267293096E-1
1.133929776E1,2.209281921E0,-1.623326540E0,6.998782754E-1
1.134854333E1,2.161483049E0,-1.269493341E0,7.780666947E-1
1.135769562E1,2.119029045E0,-9.565867782E-1,8.196043372E-1
1.136684786E1,2.047407389E0,-7.331694365E-1,8.251019120E-1
1.137600016E1,1.938981891E0,-5.882459283E-1,7.985301018E-1
1.138515245E1,1.809635043E0,-4.999784827E-1,7.450809479E-1
1.139430469E1,1.688687205E0,-4.498890042E-1,6.726955175E-1
1.140345698E1,1.577054858E0,-4.165978432E-1,5.906893015E-1
1.141260927E1,1.465728045E0,-3.935383558E-1,5.105155706E-1
1.142176151E1,1.343405843E0,-3.898732662E-1,4.340069890E-1
1.143091380E1,1.214975238E0,-4.107947946E-1,3.695625961E-1
1.144006609E1,1.075091124E0,-4.552339315E-1,3.155026138E-1
1.144921833E1,9.196305275E-1,-4.996730685E-1,2.686200738E-1
1.145837062E1,7.617265582E-1,-5.241069198E-1,2.241809368E-1
1.146752292E1,6.135960817E-1,-5.589252710E-1,1.834068894E-1
1.147667516E1,4.650074840E-1,-6.039752364E-1,1.366770715E-1
1.148582745E1,3.071034551E-1,-6.459710002E-1,7.330167294E-2
1.149497974E1,1.490467340E-1,-6.351284385E-1,8.704573847E-3
1.150413198E1,-1.542389300E-2,-4.842491746E-1,-4.886778072E-2
1.151328427E1,-1.974563748E-1,-3.697153032E-1,-9.468132257E-2
1.152243656E1,-3.941491842E-1,-2.845021188E-1,-1.120904684E-1
1.153158880E1,-6.189410090E-1,-1.081199646E-1,-7.956285775E-2
1.154074109E1,-8.637380004E-1,1.423274130E-1,3.054236295E-4
1.154989338E1,-1.106244445E0,3.249707520E-1,9.743013978E-2
1.155904562E1,-1.345696568E0,3.888042867E-1,1.780619770E-1
1.156819792E1,-1.563768983E0,3.017585576E-1,2.249445021E-1
1.157733745E1,-1.741220117E0,7.559234649E-2,2.389939874E-1
1.158650250E1,-1.898666024E0,-1.789782494E-1,2.215848416E-1
1.159565474E1,-2.036870241E0,-3.330644667E-1,1.701209545E-1
1.160479427E1,-2.172325611E0,-3.323009014E-1,8.903098851E-2
1.161395932E1,-2.278765678E0,-1.485885978E-1,-4.245388508E-2
1.162311156E1,-2.220735312E0,2.159345001E-1,-2.260134816E-1
1.163225109E1,-1.775274873E0,6.207735538E-1,-4.405735731E-1
1.164141614E1,-1.037676811E0,9.323056340E-1,-6.084038615E-1
1.165056844E1,-5.473191738E-1,6.607840061E-1,-7.140804529E-1
1.165970792E1,-5.567872524E-1,1.527118147E-4,-7.400414348E-1
1.166887297E1,-1.067455530E0,-2.249445021E-1,-6.481089592E-1
1.167802521E1,-1.770846248E0,2.628170252E-1,-4.475983381E-1
1.168716474E1,-1.997012377E0,1.336381078E0,-1.044548824E-1
1.169632979E1,-1.917449594E0,2.341988325E0,2.855710983E-1
1.170548203E1,-1.996706963E0,2.505848169E0,4.741701782E-1
1.171462156E1,-1.968913436E0,1.906607032E0,3.875826001E-1
1.172378661E1,-1.731446505E0,1.483900666E0,2.166980654E-1
1.173293891E1,-1.675248623E0,1.773136854E0,2.641914412E-2
1.174207838E1,-1.880493283E0,2.252651930E0,-2.476985604E-1
1.175124344E1,-2.073215485E0,2.227607250E0,-5.592306852E-1
1.176039573E1,-2.146669865E0,1.707776189E0,-7.731798887E-1
1.176953521E1,-2.128039122E0,1.039967418E0,-8.336538076E-1
1.177870026E1,-2.070466757E0,3.316900730E-1,-7.411104441E-1
1.178785255E1,-1.980519533E0,-3.045073450E-1,-5.580089688E-1
1.179699208E1,-1.843536973E0,-6.992673874E-1,-3.484883606E-1
1.180615708E1,-1.703805685E0,-9.032903910E-1,-1.624853760E-1
1.181530937E1,-1.600725293E0,-9.206995368E-1,-2.305948362E-2
1.182444890E1,-1.557660460E0,-7.466080785E-1,6.749862432E-2
1.183361390E1,-1.583316088E0,-3.747547865E-1,1.085781008E-1
1.184276620E1,-1.682578802E0,1.252236813E-1,9.345962852E-2
1.185190573E1,-1.825211644E0,6.032116413E-1,4.810422286E-2
1.186107073E1,-1.958987117E0,1.036302328E0,1.634016447E-2
1.187022302E1,-2.049850702E0,1.421594262E0,-7.788302377E-3
1.187937531E1,-2.071993828E0,1.709456086E0,-4.963133857E-2
1.188852755E1,-2.045269251E0,1.869039893E0,-1.174353883E-1
1.189767984E1,-1.979603291E0,1.933789730E0,-2.072299272E-1
1.190681937E1,-1.877286315E0,1.911799192E0,-3.177932799E-1
1.191598437E1,-1.751451850E0,1.766875744E0,-4.492781460E-1
1.192513667E1,-1.598281860E0,1.641346574E0,-5.781669021E-1
1.193427620E1,-1.475959659E0,1.664100647E0,-6.653653979E-1
1.194344125E1,-1.425564766E0,1.765959382E0,-6.974348426E-1
1.195259349E1,-1.427550077E0,1.900345802E0,-6.723901033E-1
1.196174578E1,-1.431673288E0,2.054279327E0,-5.967977643E-1
1.197089807E1,-1.391968250E0,2.184237003E0,-4.952444136E-1
1.198005031E1,-1.299577594E0,2.223331213E0,-4.072824121E-1
1.198918984E1,-1.174811959E0,2.308238983E0,-3.576510847E-1
1.199835490E1,-1.015686274E0,2.437891483E0,-3.559712470E-1
1.200750719E1,-8.608365059E-1,2.435600758E0,-4.056025743E-1
1.201664667E1,-7.631009221E-1,2.238907814E0,-4.963133931E-1
1.202581172E1,-6.995728016E-1,2.000677586E0,-6.007682681E-1
1.203496401E1,-6.224533319E-1,1.805817246E0,-6.679614782E-1
1.204411625E1,-5.732801557E-1,1.622715712E0,-6.746807694E-1
1.205326854E1,-5.734328628E-1,1.474127173E0,-6.232169271E-1
1.206242083E1,-6.142069101E-1,1.378529549E0,-5.270084739E-1
1.207156036E1,-6.691831946E-1,1.343253136E0,-4.187358022E-1
1.208072536E1,-7.136223316E-1,1.296676040E0,-3.268032968E-1
1.208987766E1,-7.295043468E-1,1.113727212E0,-2.608317733E-1
1.209901719E1,-7.256865501E-1,7.252284288E-1,-2.104368806E-1
1.210818219E1,-6.737645268E-1,2.047865391E-1,-1.638597846E-1
1.211733448E1,-5.751127005E-1,-3.739912212E-1,-1.328592747E-1
1.212647401E1,-4.598152637E-1,-1.003622055E0,-1.412584335E-1
1.213563906E1,-3.324536085E-1,-1.574306130E0,-1.950129867E-1
1.214479130E1,-2.050919682E-1,-1.942646980E0,-2.713688910E-1
1.215393083E1,-1.120904684E-1,-2.039160967E0,-3.200839758E-1
1.216309588E1,-9.620844573E-2,-1.891946673E0,-3.194731176E-1
1.217224812E1,-1.409530044E-1,-1.579192877E0,-2.887780368E-1
1.218138766E1,-1.806580722E-1,-1.154959440E0,-2.625116110E-1
1.219055271E1,-1.656923145E-1,-6.865923405E-1,-2.487675399E-1
1.219970500E1,-8.399149776E-2,-2.315111160E-1,-2.619007528E-1
1.220885724E1,7.925742865E-2,1.566823274E-1,-3.025220931E-1
1.221800953E1,3.348970115E-1,3.895678520E-1,-3.297048211E-1
1.222716182E1,6.733064055E-1,3.811686933E-1,-2.901524603E-1
1.223630135E1,1.090515018E0,1.136175916E-1,-1.476723254E-1
1.224546635E1,1.583316088E0,-3.071034551E-1,6.795676053E-2
1.225461864E1,2.103452444E0,-7.611156702E-1,2.838912606E-1
1.226377094E1,2.601751089E0,-1.126555085E0,4.402681589E-1
1.227292318E1,3.009644508E0,-1.175575495E0,5.653391480E-1
1.228207547E1,3.213056564E0,-7.467607856E-1,7.069029808E-1
1.229121500E1,3.285289288E0,-6.093201414E-2,8.400676847E-1
1.230038005E1,3.314304590E0,4.654656053E-1,9.229902029E-1
1.230953229E1,3.293382883E0,6.313106418E-1,9.807152748E-1
1.231867182E1,3.205420971E0,4.327852726E-1,1.092500329E0
1.232783687E1,3.113183022E0,-6.551336497E-2,1.309656501E0
1.233698911E1,3.064162493E0,-7.995990515E-1,1.616301894E0
1.234612864E1,2.993304253E0,-1.646233320E0,1.947381020E0
1.235529370E1,2.832193375E0,-2.369934559E0,2.196606636E0
1.236444594E1,2.636569500E0,-2.881977320E0,2.300756216E0
1.237358547E1,2.551508904E0,-3.287274599E0,2.274184227E0
1.238275052E1,2.685742617E0,-3.501376390E0,2.151862144E0
1.239190281E1,2.957264185E0,-3.431892633E0,1.936843991E0
1.240104234E1,3.160829067E0,-3.159301996E0,1.594922185E0
1.241020734E1,3.220539570E0,-2.815395117E0,1.218945742E0
1.241935963E1,3.194272995E0,-2.573652267E0,9.480349422E-1
1.242849917E1,3.134868145E0,-2.360771894E0,8.302941322E-1
1.243766417E1,3.065689564E0,-1.995790720E0,8.301414251E-1
1.244681646E1,2.974215269E0,-1.569572091E0,8.927532434E-1
1.245596875E1,2.840897799E0,-1.186265349E0,9.878927469E-1
1.246512099E1,2.682383060E0,-8.619054556E-1,1.076923728E0
1.247427328E1,2.521883011E0,-6.606312990E-1,1.136175871E0
1.248341281E1,2.363978863E0,-5.842754245E-1,1.149614573E0
1.249257786E1,2.212794304E0,-6.113054156E-1,1.117392302E0
1.250173010E1,2.081767559E0,-6.737645268E-1,1.038440347E0
1.251086963E1,1.963263035E0,-7.551599145E-1,9.271134138E-1
1.252003469E1,1.839566469E0,-8.318212628E-1,7.925743461E-1
1.252918698E1,1.705027461E0,-8.951966763E-1,6.584933400E-1
1.253833922E1,1.573389769E0,-9.381086826E-1,5.276193023E-1
1.254749151E1,1.450914979E0,-9.695672989E-1,3.996468186E-1
1.255664380E1,1.322942495E0,-1.007439852E0,2.864873707E-1
1.256579604E1,1.167329073E0,-1.063637733E0,1.632489264E-1
1.257494833E1,9.655967951E-1,-1.109756708E0,2.015795931E-2
1.258410062E1,7.211052179E-1,-1.082268596E0,-1.004843712E-1
1.259324016E1,4.543176591E-1,-9.891144037E-1,-1.892099380E-1
1.260240516E1,1.649287641E-1,-7.992936373E-1,-2.347180545E-1
1.261155745E1,-1.569877416E-1,-5.546492934E-1,-2.438807636E-1
1.262069698E1,-5.015056133E-1,-3.658975065E-1,-2.189887464E-1
1.262986203E1,-8.420529366E-1,-2.644968629E-1,-1.860029846E-1
1.263901427E1,-1.177102685E0,-1.743968874E-1,-1.530172378E-1
1.264815380E1,-1.490009189E0,-7.192726433E-2,-1.401894391E-1
1.265731885E1,-1.796959877E0,7.528692484E-2,-1.650814712E-1
1.266647109E1,-2.040535212E0,2.739650011E-1,-2.516690791E-1
1.267561062E1,-2.052141428E0,6.209262609E-1,-4.254551232E-1
1.268477568E1,-1.700293303E0,1.357760787E0,-6.299362183E-1
1.269392797E1,-1.335006714E0,2.090471983E0,-7.995990515E-1
1.270306750E1,-1.460993886E0,2.036717415E0,-9.182561636E-1
1.271223250E1,-2.059624195E0,1.536586285E0,-1.005149126E0
1.272138479E1,-2.895110607E0,1.355470061E0,-1.027445078E0
1.273052432E1,-3.297200680E0,2.220124245E0,-7.414158583E-1
1.273968932E1,-2.983988762E0,3.691502810E0,-8.093725890E-3
1.274884161E1,-2.543415308E0,3.888042688E0,6.219952106E-1
1.275798114E1,-2.118112803E0,2.206991196E0,6.743753552E-1
1.276714620E1,-1.796654463E0,2.742704153E-1,3.729222417E-1
1.277629844E1,-1.778023601E0,-6.540647149E-1,9.345962852E-2
1.278543797E1,-1.945090413E0,-8.160919547E-1,-1.305686086E-1
1.279460302E1,-2.086501598E0,-9.052756429E-1,-3.536805511E-1
1.280375531E1,-2.157512426E0,-1.080741525E0,-5.428904891E-1
1.281289479E1,-2.185153246E0,-1.324622273E0,-6.129852533E-1
1.282205984E1,-2.234937429E0,-1.463437319E0,-5.236487985E-1
1.283121213E1,-2.258302212E0,-1.349514365E0,-3.284831047E-1
1.284035167E1,-2.210808992E0,-1.088987947E0,-1.469087601E-1
1.284951667E1,-2.107270241E0,-7.667660117E-1,-7.437065244E-2
1.285866896E1,-1.948297381E0,-3.996468186E-1,-9.910997003E-2
1.286780849E1,-1.749161124E0,-4.428642802E-3,-2.061609477E-1
1.287697354E1,-1.586217642E0,4.352286756E-1,-3.261924386E-1
1.288612578E1,-1.517344594E0,9.022213817E-1,-3.804051280E-1
1.289527807E1,-1.515206575E0,1.351804972E0,-3.758237660E-1
1.290443036E1,-1.527729034E0,1.730835676E0,-3.665083647E-1
1.291358260E1,-1.532157660E0,2.079171419E0,-3.739912212E-1
1.292272213E1,-1.527423620E0,2.403836727E0,-3.949127495E-1
1.293188719E1,-1.512610555E0,2.695363522E0,-4.170559645E-1
1.294103948E1,-1.497186661E0,2.909312725E0,-4.353813827E-1
1.295017901E1,-1.471989155E0,2.997732878E0,-4.677563012E-1
1.295934401E1,-1.435949206E0,2.995289564E0,-5.212054253E-1
1.296849630E1,-1.437170863E0,2.960623980E0,-5.998520255E-1
1.297763583E1,-1.473821759E0,2.878923178E0,-6.697940230E-1
1.298680083E1,-1.513221383E0,2.760571480E0,-7.072083950E-1
1.299595312E1,-1.534753680E0,2.606943369E0,-7.067502737E-1
1.300509266E1,-1.513221383E0,2.391314268E0,-6.661289334E-1
1.301425771E1,-1.455496311E0,2.100703716E0,-6.055023670E-1
1.302341000E1,-1.386623263E0,1.741830945E0,-5.448757410E-1
1.303256224E1,-1.343863964E0,1.408766508E0,-5.028799772E-1
1.304171453E1,-1.335159421E0,1.187792540E0,-4.874561131E-1
1.305086682E1,-1.329356313E0,1.099219680E0,-4.928010404E-1
1.306001911E1,-1.287818789E0,1.069746256E0,-4.912739098E-1
1.306917135E1,-1.210393786E0,1.018587828E0,-4.772244096E-1
1.307832365E1,-1.128234863E0,9.181034565E-1,-4.729484916E-1
1.308746318E1,-1.088071704E0,7.988355160E-1,-4.987567961E-1
1.309662818E1,-1.104869962E0,8.251019120E-1,-5.636593103E-1
1.310578047E1,-1.106549859E0,1.075396657E0,-6.757497787E-1
1.311492000E1,-9.907942414E-1,1.291942000E0,-8.020424247E-1
1.312408505E1,-7.646280527E-1,1.120293856E0,-8.741224408E-1
1.313323734E1,-5.645755529E-1,5.144860744E-1,-8.496885300E-1
1.314238958E1,-5.561764240E-1,-2.215848416E-1,-7.386670709E-1
1.315154187E1,-6.868977547E-1,-6.930062175E-1,-6.047387719E-1
1.316069417E1,-7.455390692E-1,-8.710681796E-1,-4.928010404E-1
1.316983370E1,-6.739172339E-1,-9.900307059E-1,-4.121691883E-1
1.317899870E1,-5.581616759E-1,-1.079977989E0,-3.654393852E-1
1.318815099E1,-4.775298536E-1,-1.058140159E0,-3.472666740E-1
1.319729052E1,-4.086568058E-1,-9.735378027E-1,-3.394783735E-1
1.320645557E1,-2.883199155E-1,-9.263498783E-1,-3.277195692E-1
1.321560781E1,-1.159082651E-1,-8.452599049E-1,-3.032856584E-1
1.322474734E1,5.879404768E-2,-6.296308041E-1,-2.661767006E-1
1.323391240E1,2.020377368E-1,-3.290939629E-1,-2.183778882E-1
1.324306469E1,3.309265077E-1,-7.375980914E-2,-1.663031727E-1
1.325221693E1,4.546230733E-1,1.333174109E-1,-1.168245375E-1
1.326136922E1,5.942016840E-1,3.643703759E-1,-7.146912813E-2
1.327052151E1,7.733326554E-1,5.662553906E-1,6.108472589E-3
1.327966104E1,1.013090134E0,6.395570636E-1,1.426328421E-1
1.328882609E1,1.338366389E0,5.745018721E-1,3.336753249E-1
1.329797833E1,1.739540339E0,4.124746025E-1,5.289937258E-1
1.330713062E1,2.158886909E0,2.565558553E-1,6.633801460E-1
1.331628292E1,2.535779715E0,1.957765520E-1,7.160657048E-1
1.332543521E1,2.774926424E0,2.040229887E-1,7.324058414E-1
1.333457474E1,2.837690830E0,2.513636351E-1,7.853968740E-1
1.334373974E1,2.830971718E0,1.181989461E-1,9.301676750E-1
1.335289203E1,2.804705143E0,-3.649812341E-1,1.128234863E0
1.336203156E1,2.743620396E0,-1.086697221E0,1.344474792E0
1.337119656E1,2.654284000E0,-1.823073626E0,1.563005447E0
1.338034885E1,2.640845299E0,-2.336490870E0,1.743358135E0
1.338948838E1,2.747743607E0,-2.705289841E0,1.856822968E0
1.339865344E1,2.886864185E0,-3.103256702E0,1.887365341E0
1.340780568E1,2.967190504E0,-3.463504076E0,1.854532242E0
1.341694521E1,2.987501144E0,-3.580175877E0,1.779703498E0
1.342611026E1,3.007353783E0,-3.526879311E0,1.670514584E0
1.343526255E1,3.048738718E0,-3.474346399E0,1.521162391E0
1.344440208E1,3.112266779E0,-3.380428791E0,1.316986680E0
1.345356708E1,3.159760237E0,-3.139602184E0,1.072189689E0
1.346271937E1,3.161745310E0,-2.771719456E0,8.704573512E-1
1.347185891E1,3.129217863E0,-2.243642092E0,7.696675658E-1
1.348102396E1,3.094552279E0,-1.620883226E0,8.105943203E-1
1.349017620E1,3.059581280E0,-1.039356589E0,9.936957955E-1
1.349932849E1,3.011171579E0,-5.486935377E-1,1.234827757E0
1.350848078E1,2.922140598E0,-1.853921413E-1,1.410904408E0
1.351763307E1,2.769428730E0,-9.468132630E-3,1.470156670E0
1.352677260E1,2.578233480E0,1.252236869E-2,1.451067686E0
1.353593760E1,2.389939785E0,-6.933116168E-2,1.392426372E0
1.354508990E1,2.237533569E0,-2.247917950E-1,1.301104665E0
1.355422943E1,2.128955364E0,-4.190412164E-1,1.161831498E0
1.356339448E1,2.035190344E0,-6.035171151E-1,9.842276573E-1
1.357254672E1,1.926917672E0,-7.598940134E-1,8.090671897E-1
1.358168625E1,1.804442763E0,-9.162709117E-1,6.458182931E-1
1.359085130E1,1.670972705E0,-1.076160192E0,4.789042473E-1
1.360000359E1,1.521925926E0,-1.222916245E0,2.983988822E-1
1.360915588E1,1.357149839E0,-1.387081385E0,1.227803007E-1
1.361830812E1,1.170688748E0,-1.555522561E0,-4.031591862E-2
1.362746042E1,9.469659925E-1,-1.705332875E0,-1.791309565E-1
1.363659995E1,6.980457306E-1,-1.806733489E0,-2.742704153E-1
1.364576500E1,4.407263100E-1,-1.834527016E0,-3.345915973E-1
1.365491724E1,1.747023165E-1,-1.701362371E0,-3.811686933E-1
1.366405677E1,-1.087308154E-1,-1.415638566E0,-4.170559645E-1
1.367322182E1,-4.190412164E-1,-1.085933685E0,-4.272876680E-1
1.368237411E1,-7.467607856E-1,-7.676823139E-1,-3.975088596E-1
1.369151364E1,-1.060430884E0,-4.521796703E-1,-3.498627543E-1
1.370067864E1,-1.336228371E0,-1.591257155E-1,-3.100049794E-1
1.370983094E1,-1.578429341E0,1.003316641E-1,-2.990097404E-1
1.371897047E1,-1.828571320E0,3.746020794E-1,-3.248180151E-1
1.372813552E1,-2.071993828E0,6.975875497E-1,-4.068242610E-1
1.373728776E1,-2.149724245E0,1.044090629E0,-5.480827093E-1
1.374642729E1,-1.936385870E0,1.527118206E0,-6.806365848E-1
1.375559234E1,-1.540251374E0,2.199966431E0,-7.351546884E-1
1.376474463E1,-1.449998736E0,2.220887899E0,-6.789567471E-1
1.377388417E1,-1.787949920E0,1.472447276E0,-5.549547076E-1
1.378304917E1,-2.175532579E0,1.362189412E0,-3.750602305E-1
1.379220146E1,-2.613204479E0,2.672304153E0,-1.837123185E-1
1.380134099E1,-2.745911121E0,3.884683132E0,-2.901524538E-3
1.381050604E1,-2.436517000E0,3.873229742E0,1.721062213E-1
1.381965828E1,-1.900345802E0,2.385816574E0,9.269607067E-2
1.382879781E1,-1.378071427E0,3.503209054E-1,-9.269607067E-2
1.383796286E1,-1.247044683E0,-7.371399403E-1,-8.780929446E-2
1.384714182E1,-1.472752690E0,-6.297835112E-1,2.473931387E-2
1.385625469E1,-1.733431816E0,-2.933593988E-1,3.787253052E-2
1.386541969E1,-1.829640269E0,-4.923428893E-1,-1.403421611E-1
1.387457198E1,-1.825669765E0,-9.503256083E-1,-4.214846194E-1
1.388372427E1,-1.804900885E0,-1.228261113E0,-6.551336646E-1
1.389287656E1,-1.793753028E0,-1.243837714E0,-7.826480269E-1
1.390202885E1,-1.798028946E0,-1.027750492E0,-8.206732869E-1
1.391116833E1,-1.754200578E0,-6.907155514E-1,-8.035695553E-1
1.392033338E1,-1.658908486E0,-2.692309320E-1,-7.566870451E-1
1.392948568E1,-1.582399845E0,1.795890927E-1,-6.839962006E-1
1.393862521E1,-1.557202339E0,6.856760383E-1,-5.587725043E-1
1.394779021E1,-1.583621502E0,1.286597013E0,-3.842229247E-1
1.395694250E1,-1.617065430E0,1.860182643E0,-2.217375487E-1
1.396608203E1,-1.639666796E0,2.267312288E0,-1.203369126E-1
1.397524708E1,-1.628976941E0,2.503099442E0,-7.635590434E-2
1.398439937E1,-1.601183414E0,2.586938143E0,-8.063183725E-2
1.399353891E1,-1.566365123E0,2.506000996E0,-1.302631795E-1
1.400270390E1,-1.519788027E0,2.290066481E0,-2.134911120E-1
1.401185620E1,-1.463895440E0,2.007244110E0,-2.996205688E-1
1.402099573E1,-1.432894945E0,1.673110604E0,-3.724641204E-1
1.403016078E1,-1.431062460E0,1.331341624E0,-4.173613787E-1
1.403931302E1,-1.427244663E0,1.058903694E0,-4.286620617E-1
1.404846531E1,-1.459619522E0,9.413156509E-1,-4.124746025E-1
1.405761760E1,-1.522231340E0,9.106205702E-1,-3.895678520E-1
1.406676990E1,-1.586217642E0,8.889354467E-1,-3.747547865E-1
1.407592219E1,-1.615538239E0,8.412894011E-1,-3.736858070E-1
1.408507443E1,-1.585148692E0,7.756233215E-1,-3.875826001E-1
1.409422672E1,-1.539793253E0,7.255338430E-1,-3.975088596E-1
1.410337901E1,-1.479013920E0,6.888830066E-1,-3.939964771E-1
1.411253130E1,-1.390135646E0,7.264500856E-1,-3.805578351E-1
1.412168359E1,-1.294385314E0,8.501466513E-1,-3.799470067E-1
1.413083588E1,-1.166260123E0,1.010035992E0,-4.011739492E-1
1.413998812E1,-1.014464617E0,1.211462855E0,-4.338542521E-1
1.414914042E1,-9.237537384E-1,1.423426867E0,-4.614951015E-1
1.415829271E1,-9.344435930E-1,1.669903636E0,-4.940227270E-1
1.416744500E1,-1.001178622E0,1.934705973E0,-5.375455618E-1
1.417659724E1,-1.076923728E0,2.141630411E0,-5.815265775E-1
1.418573677E1,-1.109756708E0,2.255400896E0,-6.239804626E-1
1.419490182E1,-1.056154966E0,2.201188087E0,-6.487197876E-1
1.420405411E1,-9.365815520E-1,1.846438527E0,-6.458182931E-1
1.421319364E1,-8.025006056E-1,1.163969398E0,-6.100836992E-1
1.422235865E1,-6.963658929E-1,3.538332880E-1,-5.586197972E-1
1.423151094E1,-6.169557571E-1,-2.834331393E-1,-5.039489865E-1
1.424065047E1,-5.204418898E-1,-6.198572516E-1,-4.578300118E-1
1.424981552E1,-4.161396921E-1,-7.250757217E-1,-4.159869850E-1
1.425896781E1,-3.585673273E-1,-7.572978735E-1,-3.868190348E-1
1.426810734E1,-3.720059693E-1,-7.759287357E-1,-3.784198761E-1
1.427727234E1,-4.382829070E-1,-7.382088900E-1,-3.941491842E-1
1.428642463E1,-4.967715442E-1,-5.925218463E-1,-4.265241027E-1
1.429556417E1,-4.818057716E-1,-3.293993771E-1,-4.472928941E-1
1.430472922E1,-3.692571819E-1,-2.473931387E-2,-4.271349311E-1
1.431388151E1,-1.962346882E-1,2.348707765E-1,-3.669664860E-1
1.432303375E1,4.581354442E-4,4.210264683E-1,-3.034383655E-1
1.433218604E1,2.284568697E-1,5.415160656E-1,-2.499892414E-1
1.434133833E1,5.137225389E-1,5.813738704E-1,-1.771457046E-1
1.435047786E1,8.664868474E-1,5.239542127E-1,-6.780404598E-2
1.435964292E1,1.288735032E0,3.697153032E-1,9.345962852E-2
1.436879516E1,1.748855710E0,1.664558798E-1,2.898470163E-1
1.437794745E1,2.197064877E0,-9.926267900E-3,4.873034060E-1
1.438709974E1,2.590450525E0,-1.521009654E-1,6.380299330E-1
1.439625203E1,2.874952555E0,-2.309002578E-1,7.120952010E-1
1.440539156E1,2.980934620E0,-1.728697717E-1,7.330167294E-1
1.441455661E1,2.955584526E0,4.413371533E-2,7.559235096E-1
1.442370885E1,2.849602461E0,3.026748300E-1,7.957812548E-1
1.443284838E1,2.677343607E0,4.304946065E-1,8.683193922E-1
1.444201344E1,2.469350100E0,1.901262105E-1,9.996515512E-1
1.445116573E1,2.311751366E0,-4.280512035E-1,1.226734042E0
1.446030526E1,2.301061630E0,-1.247655511E0,1.535517335E0
1.446947026E1,2.410250664E0,-2.035037756E0,1.850256324E0
1.447862255E1,2.539902925E0,-2.584189415E0,2.075048208E0
1.448777484E1,2.629239321E0,-2.885642529E0,2.152778387E0
1.449692713E1,2.679481506E0,-3.038812399E0,2.102689028E0
1.450607943E1,2.720713615E0,-3.168922901E0,1.962499499E0
1.451521896E1,2.772635698E0,-3.320107460E0,1.773136854E0
1.452438396E1,2.831429720E0,-3.443804026E0,1.549566746E0
1.453353625E1,2.895874262E0,-3.424867868E0,1.289803982E0
1.454267578E1,2.906563997E0,-3.255968571E0,1.015533566E0
1.455184083E1,2.850366116E0,-2.900913715E0,7.463026643E-1
1.456099312E1,2.796306133E0,-2.353441715E0,5.396835804E-1
1.457013266E1,2.775537252E0,-1.774664044E0,5.940489769E-1
1.457929766E1,2.768970728E0,-1.240783453E0,9.106205702E-1
1.458844995E1,2.721782684E0,-7.435538173E-1,1.273158431E0
1.459760224E1,2.600529432E0,-3.089359999E-1,1.516275644E0
1.460675453E1,2.431019306E0,-1.847812906E-2,1.614927411E0
1.461590682E1,2.254637241E0,5.726693198E-2,1.615538239E0
1.462504635E1,2.100551128E0,-4.153761268E-2,1.534448266E0
1.463421140E1,1.972578526E0,-2.038702667E-1,1.376849771E0
1.464336364E1,1.850409031E0,-3.669664860E-1,1.166565537E0
1.465250318E1,1.720909476E0,-5.325061083E-1,9.546015263E-1
1.466166823E1,1.593089700E0,-7.015580535E-1,7.626428008E-1
1.467082052E1,1.470767498E0,-8.724426031E-1,5.916055441E-1
1.467997281E1,1.350125194E0,-1.031568289E0,4.417952895E-1
1.468912510E1,1.231773496E0,-1.176339149E0,3.171824515E-1
1.469827734E1,1.101510286E0,-1.321415305E0,2.301367074E-1
1.470742963E1,9.536852837E-1,-1.446639061E0,1.663031727E-1
1.471658193E1,7.823426127E-1,-1.475501537E0,1.102579311E-1
1.472573422E1,5.816792846E-1,-1.421288848E0,5.131116882E-2
1.473488651E1,3.500154912E-1,-1.340504289E0,-1.023169141E-2
1.474403880E1,1.053711548E-1,-1.246433854E0,-7.116370648E-2
1.475319109E1,-1.528645307E-1,-1.151905179E0,-1.134648770E-1
1.476233062E1,-4.182776511E-1,-1.113727212E0,-1.244601309E-1
1.477149562E1,-6.907155514E-1,-1.097997904E0,-1.325538605E-1
1.478064792E1,-9.729269743E-1,-1.032331824E0,-1.638597846E-1
1.478978745E1,-1.282779217E0,-8.877137899E-1,-2.174616307E-1
1.479895250E1,-1.605917454E0,-6.383354068E-1,-2.767138183E-1
1.480810479E1,-1.932720780E0,-2.498365343E-1,-3.263451457E-1
1.481724432E1,-2.294342279E0,3.014531136E-1,-3.652866483E-1
1.482640932E1,-2.634737015E0,9.147437811E-1,-4.388937652E-1
1.483556161E1,-2.755073786E0,1.397313118E0,-5.622848868E-1
1.484470114E1,-2.468433857E0,1.810703993E0,-6.833853722E-1
1.485386620E1,-1.810703993E0,2.205311298E0,-8.011261821E-1
1.486301849E1,-1.486496806E0,2.170034885E0,-8.660287261E-1
1.487215802E1,-1.899734974E0,1.208408594E0,-8.304468393E-1
1.488132307E1,-2.433615446E0,6.691831946E-1,-7.000309825E-1
1.489047536E1,-2.995900393E0,1.942341566E0,-4.031592011E-1
1.489961490E1,-3.137158871E0,3.482898474E0,4.169032723E-2
1.490877990E1,-2.622519970E0,3.407000542E0,3.550549746E-1
1.491793219E1,-1.734653473E0,1.524674773E0,1.672194302E-1
1.492707172E1,-1.064554095E0,-6.412369013E-1,-1.495048702E-1
1.493623677E1,-1.147781968E0,-9.552124143E-1,-9.254335612E-2
1.494538906E1,-1.709456086E0,9.086353332E-2,1.330119967E-1
1.495452859E1,-2.043742180E0,9.556705356E-1,2.338017821E-1
1.496369365E1,-1.964484811E0,9.883508682E-1,8.231166750E-2
1.497284594E1,-1.912715435E0,3.796415627E-1,-2.454078794E-1
1.498199818E1,-2.105590582E0,-1.780619770E-1,-5.584670901E-1
1.499115047E1,-2.287317514E0,-3.266505599E-1,-7.160657048E-1
1.500030276E1,-2.270672083E0,-2.489202619E-1,-7.287407517E-1
1.500944229E1,-2.094900608E0,-2.044811249E-1,-6.804838181E-1
1.501860734E1,-1.853463292E0,-2.110477239E-1,-6.281036735E-1
1.502775963E1,-1.654174328E0,-1.310267299E-1,-5.607577562E-1
1.503689917E1,-1.549719453E0,5.772506446E-2,-4.477510452E-1
1.504606422E1,-1.513984919E0,4.161396921E-1,-3.129065037E-1
1.505521646E1,-1.533684731E0,8.590039611E-1,-2.009687424E-1
1.506435599E1,-1.617676258E0,1.270104170E0,-1.359135211E-1
1.507352104E1,-1.735569715E0,1.627755284E0,-1.259872466E-1
1.508267333E1,-1.836054206E0,1.923405290E0,-1.598892659E-1
1.509182562E1,-1.891946673E0,2.145448208E0,-2.240282297E-1
1.510097792E1,-1.909508586E0,2.277085781E0,-2.987042964E-1
1.511013021E1,-1.902178407E0,2.325495481E0,-3.738385141E-1
1.511926974E1,-1.845064163E0,2.307322741E0,-4.564556181E-1
1.512843474E1,-1.726254344E0,2.223331213E0,-5.380037427E-1
1.513758708E1,-1.596143842E0,2.116738558E0,-6.004628539E-1
1.514673932E1,-1.489092946E0,2.012588978E0,-6.239804626E-1
1.515589161E1,-1.416096687E0,1.895917177E0,-6.050441861E-1
1.516504391E1,-1.344474792E0,1.778023601E0,-5.512896776E-1
1.517419620E1,-1.266286373E0,1.706707239E0,-4.799732268E-1
1.518334849E1,-1.203369141E0,1.664864182E0,-4.153761268E-1
1.519250078E1,-1.152057886E0,1.633863688E0,-3.765873313E-1
1.520165307E1,-1.100135922E0,1.538724303E0,-3.718532622E-1
1.521080536E1,-1.055391312E0,1.357302666E0,-3.933856487E-1
1.521995766E1,-1.016297102E0,1.148851037E0,-4.173613787E-1
1.522910995E1,-9.865183234E-1,9.823951125E-1,-4.353813827E-1
1.523826219E1,-9.587247968E-1,9.287932515E-1,-4.546230733E-1
1.524741448E1,-9.214630723E-1,9.504783154E-1,-4.630222321E-1
1.525656677E1,-9.026795626E-1,9.921686649E-1,-4.610369802E-1
1.526571906E1,-9.112313986E-1,1.059056401E0,-4.573718905E-1
1.527487135E1,-9.454388618E-1,1.097387075E0,-4.723376334E-1
1.528402365E1,-1.006523609E0,1.142284393E0,-5.332696438E-1
1.529317594E1,-1.031110168E0,1.241852522E0,-6.213843822E-1
1.530232823E1,-9.663603902E-1,1.279724956E0,-7.114843726E-1
1.531146776E1,-8.498412371E-1,1.092958450E0,-7.655443549E-1
1.532063281E1,-7.386670709E-1,6.523848772E-1,-7.673768401E-1
1.532978505E1,-6.853706241E-1,9.345962852E-2,-7.275190949E-1
1.533893734E1,-6.856760383E-1,-3.768927455E-1,-6.734591126E-1
1.534808963E1,-6.852179170E-1,-6.688777208E-1,-6.097782850E-1
1.535724193E1,-6.574243903E-1,-8.446490765E-1,-5.508314967E-1
1.536639422E1,-6.348230243E-1,-9.733850956E-1,-4.992149174E-1
1.537554651E1,-6.314633489E-1,-1.035844207E0,-4.501944184E-1
1.538469880E1,-6.255075932E-1,-1.027750492E0,-4.031592011E-1
1.539383833E1,-5.934380889E-1,-9.739959836E-1,-3.622324169E-1
1.540300338E1,-5.273138881E-1,-8.838959932E-1,-3.220692277E-1
1.541215568E1,-4.178195298E-1,-7.412631512E-1,-2.664821148E-1
1.542129521E1,-2.677038014E-1,-5.376983285E-1,-1.885990947E-1
1.543046026E1,-8.658760041E-2,-2.930539846E-1,-1.075091213E-1
1.543961255E1,1.360662282E-1,-5.268557742E-2,-5.299099907E-2
1.544876484E1,4.311054647E-1,9.025268257E-2,-2.748812549E-3
1.545791708E1,7.992936373E-1,9.773556143E-2,7.620319724E-2
1.546706937E1,1.250251651E0,9.162709117E-3,1.899735034E-1
1.547620891E1,1.784895658E0,-1.539335102E-1,3.428380191E-1
1.548537396E1,2.362451792E0,-3.939964771E-1,5.199837089E-1
1.549452625E1,2.896332264E0,-6.888830066E-1,6.789567471E-1
1.550366578E1,3.314304590E0,-9.530744553E-1,7.896727920E-1
1.551283083E1,3.600639105E0,-1.094943762E0,8.704573512E-1
1.552198312E1,3.736247301E0,-9.973608851E-1,9.807152748E-1
1.553112266E1,3.763277292E0,-6.670452356E-1,1.162595034E0
1.554028771E1,3.775188684E0,-4.144598544E-1,1.338977218E0
1.554944000E1,3.786184072E0,-4.460712075E-1,1.403879762E0
1.555857953E1,3.641718626E0,-6.885775924E-1,1.387692213E0
1.556774458E1,3.273377657E0,-9.014578462E-1,1.350430608E0
1.557689687E1,2.896790504E0,-9.828532338E-1,1.339893460E0
1.558603641E1,2.740108013E0,-1.141368151E0,1.410446286E0
1.559520141E1,2.781798363E0,-1.459466815E0,1.547734261E0
1.560435370E1,2.895263195E0,-1.812536478E0,1.692810416E0
1.561349328E1,2.981087446E0,-2.159650564E0,1.798181653E0
1.562265828E1,3.037590742E0,-2.495769262E0,1.832999945E0
1.563181057E1,3.107838154E0,-2.742246151E0,1.778634548E0
1.564095010E1,3.188317299E0,-2.846395493E0,1.614469290E0
1.565011516E1,3.224509954E0,-2.829902649E0,1.342947721E0
1.565926745E1,3.180528879E0,-2.677649021E0,1.035386086E0
1.566840698E1,3.085236788E0,-2.392994165E0,8.104416132E-1
1.567757203E1,3.010560751E0,-2.003426313E0,7.479824424E-1
1.568672432E1,2.978491306E0,-1.548803210E0,8.359444737E-1
1.569587661E1,2.969175816E0,-1.127624035E0,9.833113551E-1
1.570502890E1,2.933746576E0,-7.962393761E-1,1.123348117E0
1.571418120E1,2.837538242E0,-5.580089688E-1,1.223221660E0
1.572332073E1,2.664515734E0,-3.984251320E-1,1.267049909E0
1.573248578E1,2.449344873E0,-3.240544796E-1,1.261705041E0
1.574163807E1,2.231577635E0,-3.457395434E-1,1.191915751E0
1.575077760E1,2.039466381E0,-4.393518865E-1,1.055696726E0
1.575994266E1,1.876370072E0,-5.830537081E-1,8.817580342E-1
1.576909495E1,1.731752038E0,-7.395833135E-1,6.959077120E-1
1.577823448E1,1.602557778E0,-8.898517489E-1,5.088357925E-1
1.578739953E1,1.472141862E0,-1.028819442E0,3.272614181E-1
1.579655177E1,1.327218413E0,-1.166412830E0,1.663031727E-1
1.580570406E1,1.161220670E0,-1.288429618E0,3.038965166E-2
1.581485635E1,9.694145918E-1,-1.354859233E0,-7.543963939E-2
1.582400865E1,7.537854910E-1,-1.331341624E0,-1.453816444E-1
1.583314818E1,5.241069198E-1,-1.217876673E0,-1.782146841E-1
1.584231323E1,2.825168669E-1,-1.018282413E0,-1.812689304E-1
1.585146552E1,1.924168877E-2,-7.950177193E-1,-1.692046970E-1
1.586061781E1,-2.652604282E-1,-7.116370797E-1,-1.291942000E-1
1.586977010E1,-5.517477989E-1,-8.228112459E-1,-7.864658535E-2
1.587892240E1,-8.185353279E-1,-9.767447710E-1,-6.627693027E-2
1.588807469E1,-1.059514523E0,-1.026070714E0,-1.046075895E-1
1.589722698E1,-1.290414810E0,-9.526162744E-1,-1.740914732E-1
1.590637927E1,-1.533990145E0,-7.701256871E-1,-2.492256761E-1
1.591551880E1,-1.813910961E0,-4.526378214E-1,-3.057290614E-1
1.592468385E1,-2.123610497E0,1.863084175E-2,-3.352024257E-1
1.593383614E1,-2.408570766E0,5.367820263E-1,-3.582619131E-1
1.594297568E1,-2.499128819E0,9.590302110E-1,-4.167505503E-1
1.595214073E1,-2.192788839E0,1.286444306E0,-4.935645759E-1
1.596129302E1,-1.511083364E0,1.540862203E0,-5.767925382E-1
1.597043255E1,-1.010341406E0,1.321568012E0,-6.195518374E-1
1.597959760E1,-1.145491362E0,7.621846795E-1,-5.572454333E-1
1.598874990E1,-1.709303379E0,8.790091872E-1,-4.025483429E-1
1.599788943E1,-2.359550238E0,1.579192877E0,-2.909159958E-1
1.600705448E1,-2.616716862E0,2.433157444E0,-1.461452097E-1
1.601620677E1,-2.276169538E0,2.944131136E0,1.817270555E-2
1.602534630E1,-1.682273388E0,1.856975675E0,4.764608666E-2
1.603451135E1,-1.247808218E0,4.698942602E-1,7.131642103E-2
1.604366365E1,-1.315306902E0,3.691044450E-1,1.942494214E-1
1.605280318E1,-1.733584523E0,8.761076927E-1,2.654131353E-1
1.606196823E1,-2.039008141E0,1.028055906E0,1.360662282E-1
1.607112052E1,-2.075964451E0,6.647545099E-1,-1.356080920E-1
1.608026005E1,-2.120403528E0,2.733541466E-2,-4.004103839E-1
1.608942510E1,-2.195384979E0,-6.145123243E-1,-5.697677732E-1
1.609857734E1,-2.203631401E0,-9.949174523E-1,-5.957288146E-1
1.610771693E1,-2.112615347E0,-1.080588818E0,-5.095993280E-1
1.611688193E1,-1.927528501E0,-1.142589808E0,-4.123218954E-1
1.612603422E1,-1.746717691E0,-1.133579850E0,-3.469612300E-1
1.613517380E1,-1.620577812E0,-8.463288546E-1,-2.956500649E-1
1.614433880E1,-1.590493560E0,-3.078670204E-1,-2.121167034E-1
1.615349109E1,-1.635238171E0,3.042019308E-1,-9.559759498E-2
1.616263068E1,-1.673874259E0,8.625163436E-1,-1.206423342E-2
1.617179568E1,-1.701056957E0,1.278808713E0,3.359660041E-3
1.618094797E1,-1.734042645E0,1.621494055E0,-4.718795046E-2
1.619008755E1,-1.736486077E0,1.948297381E0,-1.475196183E-1
1.619925255E1,-1.697697282E0,2.218444586E0,-2.794626355E-1
1.620840484E1,-1.634932637E0,2.368560314E0,-4.280512035E-1
1.621755713E1,-1.593853235E0,2.456064224E0,-5.627430081E-1
1.622670943E1,-1.581025362E0,2.517301559E0,-6.600204706E-1
1.623586172E1,-1.581789017E0,2.571208715E0,-7.046123147E-1
1.624501401E1,-1.585454106E0,2.553188801E0,-7.027797699E-1
1.625416630E1,-1.572168112E0,2.431019306E0,-6.713211536E-1
1.626331859E1,-1.543305635E0,2.277544022E0,-6.245913506E-1
1.627247088E1,-1.530477762E0,2.195843220E0,-5.627430081E-1
1.628162318E1,-1.540709496E0,2.202104330E0,-4.981459379E-1
1.629077547E1,-1.546970725E0,2.191567183E0,-4.407263100E-1
1.629992776E1,-1.519177079E0,2.110324621E0,-4.045335948E-1
1.630908005E1,-1.444959164E0,1.915922403E0,-3.953709006E-1
1.631823234E1,-1.331036210E0,1.663489819E0,-4.059080184E-1
1.632738463E1,-1.218182087E0,1.466033459E0,-4.318690002E-1
1.633653693E1,-1.131899953E0,1.336381078E0,-4.701996744E-1
1.634568922E1,-1.059819937E0,1.221847177E0,-5.068505406E-1
1.635484151E1,-9.909469485E-1,1.109298587E0,-5.215108395E-1
1.636399380E1,-9.411629438E-1,1.059361815E0,-5.132644176E-1
1.637314609E1,-8.906152844E-1,1.096318126E0,-4.866925478E-1
1.638229838E1,-8.310576677E-1,1.116934180E0,-4.593571424E-1
1.639145068E1,-7.947123051E-1,1.050809979E0,-4.468347728E-1
1.640060297E1,-7.805100679E-1,9.104678631E-1,-4.558447599E-1
1.640975526E1,-7.834116220E-1,7.534800768E-1,-4.764608741E-1
1.641890755E1,-8.009734750E-1,5.937435627E-1,-5.063923597E-1
1.642805984E1,-8.153283596E-1,4.309527278E-1,-5.412106514E-1
1.643721213E1,-8.079982400E-1,3.066453338E-1,-5.654918551E-1
1.644636448E1,-7.643226385E-1,1.740914732E-1,-5.668662786E-1
1.645551672E1,-6.759024858E-1,-2.290677279E-3,-5.442649126E-1
1.646466906E1,-5.654918551E-1,-1.766875684E-1,-5.054761171E-1
1.647382130E1,-4.827220440E-1,-3.547495604E-1,-4.656183124E-1
1.648297364E1,-4.549284875E-1,-5.057815313E-1,-4.518742561E-1
1.649211318E1,-4.682144225E-1,-5.916055441E-1,-4.708105326E-1
1.650127823E1,-4.785988331E-1,-5.868715048E-1,-5.062396526E-1
1.651043052E1,-4.614951015E-1,-5.048652887E-1,-5.190674663E-1
1.651957005E1,-4.312581718E-1,-3.715478480E-1,-4.987567961E-1
1.652873510E1,-4.063661397E-1,-2.069245130E-1,-4.645493329E-1
1.653788740E1,-3.943018913E-1,-4.535540938E-2,-4.346178174E-1
1.654703969E1,-3.800997138E-1,8.918370306E-2,-4.138490260E-1
1.655619198E1,-3.306210935E-1,1.995943487E-1,-3.978142738E-1
1.656534427E1,-2.180724740E-1,2.751866877E-1,-3.695625961E-1
1.657448380E1,-4.275931045E-3,2.469350100E-1,-2.947337925E-1
1.658364885E1,3.596363366E-1,7.207997888E-2,-1.485885978E-1
1.659280115E1,9.057337642E-1,-2.195995897E-1,7.773031294E-2
1.660194068E1,1.558729529E0,-5.935907960E-1,3.434488773E-1
1.661110573E1,2.172325611E0,-1.015838981E0,5.819846988E-1
1.662025802E1,2.648633718E0,-1.366312623E0,7.608102560E-1
1.662939755E1,3.007200956E0,-1.551399350E0,9.032903910E-1
1.663856260E1,3.233520031E0,-1.556591511E0,1.047144890E0
1.664771490E1,3.236116171E0,-1.290720224E0,1.222305417E0
1.665685443E1,3.083709717E0,-8.829796910E-1,1.399756551E0
1.666601948E1,2.935121059E0,-6.404733658E-1,1.489551067E0
1.667517177E1,2.862277508E0,-6.865923405E-1,1.457939744E0
1.668431130E1,2.805621386E0,-9.985825419E-1,1.374100924E0
1.669347635E1,2.793251753E0,-1.306907654E0,1.291178346E0
1.670262864E1,2.903357029E0,-1.545443535E0,1.262773991E0
1.671176818E1,3.064467907E0,-1.820783019E0,1.336228371E0
1.672093323E1,3.158080339E0,-2.084058046E0,1.484206080E0
1.673008552E1,3.129981279E0,-2.332978487E0,1.642415524E0
1.673922505E1,2.998191118E0,-2.613051891E0,1.754505992E0
1.674839010E1,2.870065928E0,-2.827001095E0,1.781383276E0
1.675754240E1,2.871592999E0,-2.842883110E0,1.719076872E0
1.676668193E1,2.988875628E0,-2.719797373E0,1.559798479E0
1.677584698E1,3.112725019E0,-2.589839697E0,1.316986680E0
1.678499927E1,3.157469511E0,-2.374363184E0,1.052031636E0
1.679413880E1,3.100660801E0,-1.990140319E0,8.693883419E-1
1.680330385E1,3.004299641E0,-1.537197113E0,8.318212628E-1
1.681245615E1,2.943214893E0,-1.097081661E0,9.355126023E-1
1.682160844E1,2.922904253E0,-6.980457306E-1,1.113879919E0
1.683076073E1,2.905800343E0,-3.678827584E-1,1.277281642E0
1.683991302E1,2.827764750E0,-1.542389393E-1,1.379751205E0
1.684905255E1,2.673525810E0,-8.567132801E-2,1.414722204E0
1.685821760E1,2.490271568E0,-1.317902952E-1,1.391357303E0
1.686736990E1,2.329160690E0,-2.499892414E-1,1.284611821E0
1.687650943E1,2.193857908E0,-4.298837483E-1,1.126402378E0
1.688567448E1,2.069550514E0,-6.374191046E-1,9.374978542E-1
1.689482677E1,1.936385870E0,-8.258655071E-1,7.284353375E-1
1.690396635E1,1.785201073E0,-9.877400398E-1,5.242596865E-1
1.691313135E1,1.605459332E0,-1.129914761E0,3.295520842E-1
1.692228364E1,1.408919215E0,-1.274838209E0,1.609582454E-1
1.693143594E1,1.211920977E0,-1.424037695E0,1.191152167E-2
1.694058823E1,1.009883285E0,-1.530783176E0,-1.177408099E-1
1.694974052E1,7.965448499E-1,-1.548955917E0,-2.096733153E-1
1.695888010E1,5.674771070E-1,-1.473669052E0,-2.564031482E-1
1.696804510E1,3.242071867E-1,-1.299883008E0,-2.754921019E-1
1.697719740E1,5.024218559E-2,-1.038898468E0,-2.890834510E-1
1.698633698E1,-2.585411072E-1,-7.580614686E-1,-3.061871827E-1
1.699550203E1,-5.829010010E-1,-5.170822144E-1,-3.293993771E-1
1.700465432E1,-9.020686746E-1,-3.826957941E-1,-3.518480062E-1
1.701380661E1,-1.223679781E0,-3.862081766E-1,-3.687990308E-1
1.702295890E1,-1.529714227E0,-4.760027230E-1,-3.984251320E-1
1.703211120E1,-1.799708724E0,-5.267030597E-1,-4.509579837E-1
1.704125073E1,-2.048934460E0,-3.912476599E-1,-5.212054253E-1
1.705041578E1,-2.256622553E0,-7.620319724E-2,-6.316160560E-1
1.705956807E1,-2.275253296E0,3.486410677E-1,-7.798992395E-1
1.706870760E1,-1.918060422E0,1.015838981E0,-9.158127308E-1
1.707787266E1,-1.220014691E0,1.721214890E0,-9.724688530E-1
1.708702495E1,-1.031262875E0,1.601183414E0,-9.057337642E-1
1.709616448E1,-1.622410297E0,6.723901033E-1,-8.573241234E-1
1.710532953E1,-2.316638231E0,7.999044657E-1,-8.116632700E-1
1.711448182E1,-3.032093048E0,2.572277784E0,-6.261184216E-1
1.712362135E1,-3.106158257E0,3.804203987E0,-2.386885732E-1
1.713278640E1,-2.427812338E0,3.568875074E0,1.779092699E-1
1.714193870E1,-1.727934241E0,2.511651278E0,2.935121059E-1
1.715107823E1,-1.426481009E0,1.227650285E0,2.086043358E-1
1.716024328E1,-1.443432093E0,7.175928354E-1,1.777565479E-1
1.716939557E1,-1.523605824E0,7.133168578E-1,1.858502775E-1
1.717853510E1,-1.652189136E0,5.952706337E-1,9.880454093E-2
1.718770016E1,-1.845980406E0,1.023169160E-1,-1.397313178E-1
1.719685245E1,-2.035801172E0,-6.065713167E-1,-4.159869850E-1
1.720600474E1,-2.104216099E0,-1.143047929E0,-6.163448691E-1
1.721515703E1,-2.038244486E0,-1.333021402E0,-6.762079000E-1
1.722430932E1,-1.913173556E0,-1.266286373E0,-6.245913506E-1
1.723344890E1,-1.814063668E0,-1.158624530E0,-5.575508475E-1
1.724261391E1,-1.776649237E0,-9.283351302E-1,-5.286883116E-1
1.725176620E1,-1.787186384E0,-4.526378214E-1,-4.827220440E-1
1.726090578E1,-1.831320047E0,1.725643575E-1,-3.875826001E-1
1.727007083E1,-1.892099380E0,7.586722970E-1,-2.394521236E-1
1.727922312E1,-1.946006656E0,1.273921967E0,-7.956285775E-2
1.728836266E1,-1.986780763E0,1.658755779E0,3.466558084E-2
1.729752771E1,-2.025874853E0,1.949366331E0,8.551861346E-2
1.730668000E1,-2.060540438E0,2.104826927E0,7.956285775E-2
1.731581953E1,-2.048934460E0,2.078560591E0,2.168507688E-2
1.732498458E1,-1.994416356E0,1.940967202E0,-7.971556485E-2
1.733413687E1,-1.947533727E0,1.706249118E0,-1.879882365E-1
1.734328917E1,-1.928750277E0,1.445569992E0,-2.817533016E-1
1.735244146E1,-1.919587493E0,1.276518106E0,-3.516952991E-1
1.736159375E1,-1.893015623E0,1.163663983E0,-3.985778391E-1
1.737074604E1,-1.830403805E0,1.125638843E0,-4.382829070E-1
1.737989833E1,-1.784590244E0,1.195580840E0,-4.599680007E-1
1.738905062E1,-1.763057947E0,1.327523828E0,-4.618005157E-1
1.739820292E1,-1.755116940E0,1.465575337E0,-4.471401870E-1
1.740735521E1,-1.739540339E0,1.590493560E0,-4.294256270E-1
1.741650750E1,-1.682884216E0,1.653868914E0,-4.120164812E-1
1.742565979E1,-1.562089205E0,1.659519315E0,-4.039227366E-1
1.743481208E1,-1.394716978E0,1.630351305E0,-4.094203711E-1
1.744396437E1,-1.225817680E0,1.552773714E0,-4.349232614E-1
1.745311667E1,-1.083032131E0,1.453358293E0,-4.631749392E-1
1.746226896E1,-9.625425935E-1,1.364327312E0,-4.756973088E-1
1.747142130E1,-8.408312798E-1,1.334395885E0,-4.743228853E-1
1.748057359E1,-7.253811359E-1,1.356386304E0,-4.563029110E-1
1.748972588E1,-6.505523324E-1,1.408461094E0,-4.326325655E-1
1.749887818E1,-6.035171151E-1,1.507876515E0,-4.239279926E-1
1.750803047E1,-5.657972693E-1,1.565907001E0,-4.260659516E-1
1.751718276E1,-5.525113344E-1,1.475959659E0,-4.503471553E-1
1.752633505E1,-5.627430081E-1,1.249182701E0,-4.917320311E-1
1.753548734E1,-5.694623590E-1,9.098569751E-1,-5.288410187E-1
1.754463963E1,-5.780141950E-1,5.076140761E-1,-5.664080977E-1
1.755379193E1,-5.708367825E-1,1.899735034E-1,-5.862606764E-1
1.756294422E1,-5.351021886E-1,-2.489202656E-2,-5.633538961E-1
1.757209651E1,-4.880669713E-1,-2.221956849E-1,-4.895940721E-1
1.758124880E1,-4.483618736E-1,-4.434750974E-1,-3.901786804E-1
1.759038833E1,-4.443913698E-1,-6.600204706E-1,-2.953446507E-1
1.759955338E1,-4.628695250E-1,-8.196043372E-1,-2.556395829E-1
1.760870568E1,-4.504998624E-1,-8.973346353E-1,-2.531961799E-1
1.761784526E1,-3.709369898E-1,-8.887827396E-1,-2.629697323E-1
1.762701026E1,-2.238755226E-1,-8.066238165E-1,-2.496838123E-1
1.763616260E1,-3.283303976E-2,-6.771242023E-1,-1.947075576E-1
1.764530213E1,1.539335102E-1,-5.048652887E-1,-1.250709742E-1
1.765446719E1,3.272614181E-1,-3.219164908E-1,-9.223793447E-2
1.766361948E1,5.231906772E-1,-1.792836636E-1,-9.284878522E-2
1.767277177E1,7.670714259E-1,-1.391204596E-1,-1.064401343E-1
1.768192406E1,1.072342396E0,-2.261662036E-1,-1.053711548E-1
1.769107635E1,1.453511000E0,-4.156815708E-1,-5.558710173E-2
1.770022865E1,1.880798697E0,-6.183301210E-1,4.825693369E-2
1.770938094E1,2.314194918E0,-7.576032877E-1,1.614163816E-1
1.771853323E1,2.720102787E0,-7.704311013E-1,2.680092454E-1
1.772767276E1,3.050876617E0,-6.001574397E-1,3.802524209E-1
1.773683781E1,3.239933968E0,-2.136438340E-1,5.039489865E-1
1.774599010E1,3.260091782E0,3.075616062E-1,6.361974478E-1
1.775512963E1,3.149070263E0,8.014315963E-1,7.640172243E-1
1.776429469E1,2.974673510E0,1.105328083E0,8.706100583E-1
1.777344698E1,2.769734144E0,1.098761559E0,9.655967951E-1
1.778258656E1,2.558686495E0,7.740961909E-1,1.086544514E0
1.779175156E1,2.378333807E0,2.458660156E-1,1.275601745E0
1.780090391E1,2.267312288E0,-3.594835997E-1,1.537197113E0
1.781004344E1,2.234326601E0,-1.008050680E0,1.801235914E0
1.781920849E1,2.254331827E0,-1.745648742E0,1.974105597E0
1.782836078E1,2.317554474E0,-2.428117752E0,2.030608892E0
1.783750031E1,2.433310032E0,-2.978185892E0,2.002510071E0
1.784666536E1,2.574415684E0,-3.415857792E0,1.902483821E0
1.785581766E1,2.689102411E0,-3.753656387E0,1.736180663E0
1.786495719E1,2.777217150E0,-3.975546598E0,1.497492075E0
1.787412224E1,2.861819506E0,-4.007921696E0,1.192831993E0
1.788327453E1,2.888696671E0,-3.880865335E0,8.754968047E-1
1.789241406E1,2.838607311E0,-3.613008738E0,6.392516494E-1
1.790157911E1,2.764389277E0,-3.188775301E0,5.326588154E-1
1.791073140E1,2.702540874E0,-2.621756554E0,5.685460567E-1
1.791987094E1,2.660392523E0,-1.900956631E0,7.258392572E-1
1.792903599E1,2.631530046E0,-1.128845692E0,9.558232427E-1
1.793818833E1,2.591214180E0,-4.923428893E-1,1.167023659E0
1.794734057E1,2.522951841E0,-3.329117596E-2,1.312710762E0
1.795649286E1,2.425674438E0,2.794626355E-1,1.383874416E0
1.796564521E1,2.298618317E0,4.431696832E-1,1.371962905E0
1.797478474E1,2.152472973E0,4.891359508E-1,1.282321095E0
1.798394979E1,2.008618593E0,4.424061179E-1,1.136633992E0
1.799310208E1,1.878966212E0,3.390202224E-1,9.562813640E-1
1.800224161E1,1.765806675E0,1.821851879E-1,7.870767117E-1
1.801140667E1,1.671278119E0,-1.023169141E-2,6.423059106E-1
1.802055896E1,1.588050127E0,-2.168507725E-1,5.094466209E-1
1.802971125E1,1.494285107E0,-4.199574888E-1,3.746020794E-1
1.803886354E1,1.386623263E0,-6.013791561E-1,2.481566966E-1
1.804801583E1,1.262315869E0,-7.750124335E-1,1.386623234E-1
1.805716812E1,1.122126460E0,-9.100096822E-1,4.321744293E-2
1.806632042E1,9.614735842E-1,-9.642223716E-1,-3.726168349E-2
1.807547271E1,7.722636461E-1,-9.442171454E-1,-1.052184403E-1
1.808461229E1,5.604523420E-1,-8.683193922E-1,-1.635543555E-1
1.809377729E1,3.223746419E-1,-7.627955079E-1,-2.183778882E-1
1.810292963E1,5.940489471E-2,-6.784985662E-1,-2.777827978E-1
1.811208193E1,-2.234173864E-1,-6.074876189E-1,-3.213056624E-1
1.812123422E1,-5.230379701E-1,-5.228852630E-1,-3.301629424E-1
1.813038651E1,-8.194515705E-1,-4.028537571E-1,-3.104631305E-1
1.813953880E1,-1.089598775E0,-2.634278834E-1,-2.819060087E-1
1.814869109E1,-1.330425382E0,-1.522536725E-1,-2.593046725E-1
1.815784338E1,-1.536891699E0,-8.490777016E-2,-2.528907657E-1
1.816698292E1,-1.734348059E0,1.832541823E-2,-2.634278834E-1
1.817614797E1,-1.939745426E0,1.937913001E-1,-2.954973578E-1
1.818530026E1,-2.168354988E0,4.077405334E-1,-3.541387022E-1
1.819443979E1,-2.312056780E0,5.914528370E-1,-4.456130862E-1
1.820360484E1,-2.201646328E0,7.823426127E-1,-5.554128885E-1
1.821275713E1,-1.691130638E0,1.146254897E0,-6.157340407E-1
1.822189672E1,-9.828532338E-1,1.680898905E0,-5.751127005E-1
1.823106177E1,-6.387935281E-1,1.558882236E0,-4.992149174E-1
1.824021406E1,-6.675033569E-1,1.287971497E0,-4.057552814E-1
1.824935359E1,-1.314237833E0,1.744732499E0,-4.535540938E-1
1.825851865E1,-2.277544022E0,1.290109396E0,-7.244648337E-1
1.826767094E1,-2.182251930E0,6.668924689E-1,-8.112051487E-1
1.827681047E1,-1.462062955E0,7.035433054E-1,-4.903576374E-1
1.828597552E1,-1.364938259E0,9.918632507E-1,-5.650337320E-3
1.829512781E1,-1.711746693E0,1.235438585E0,3.006895781E-1
1.830426734E1,-1.960361600E0,1.303853512E0,3.691044450E-1
1.831343240E1,-2.059624195E0,1.029735804E0,2.312056869E-1
1.832258469E1,-2.028165579E0,5.451811552E-1,-8.765657991E-2
1.833172422E1,-1.975632787E0,-7.482878864E-3,-4.349232614E-1
1.834088927E1,-2.007549524E0,-5.202891231E-1,-7.284353375E-1
1.835004156E1,-2.019002914E0,-9.356653094E-1,-9.451334476E-1
1.835918114E1,-1.968913436E0,-1.199245930E0,-1.018435121E0
1.836834620E1,-1.879882455E0,-1.255443811E0,-9.451334476E-1
1.837749849E1,-1.798792481E0,-1.091278672E0,-7.705838084E-1
1.838663802E1,-1.744579792E0,-7.293516397E-1,-5.438067913E-1
1.839580307E1,-1.692657709E0,-2.211267054E-1,-3.155026138E-1
1.840495536E1,-1.667460322E0,4.196520746E-1,-1.459924877E-1
1.841409490E1,-1.673568726E0,1.005607247E0,-6.398624927E-2
1.842325995E1,-1.676928401E0,1.437781692E0,-5.222744122E-2
1.843241224E1,-1.710372329E0,1.741983652E0,-7.513421029E-2
1.844155177E1,-1.758629203E0,1.937454820E0,-1.258345395E-1
1.845071682E1,-1.789476991E0,2.047407389E0,-2.108950168E-1
1.845986911E1,-1.790851474E0,2.042673349E0,-3.312319219E-1
1.846900870E1,-1.769166350E0,1.959139824E0,-4.563029110E-1
1.847817370E1,-1.736486077E0,1.860029936E0,-5.462501645E-1
1.848732604E1,-1.713884711E0,1.767639279E0,-5.851916671E-1
1.849647833E1,-1.705027461E0,1.662878990E0,-5.661026835E-1
1.850563062E1,-1.685022116E0,1.528797984E0,-5.109737515E-1
1.851478292E1,-1.664864182E0,1.382041931E0,-4.483618736E-1
1.852393521E1,-1.639666796E0,1.287665963E0,-4.072824121E-1
1.853308750E1,-1.613400340E0,1.247350097E0,-4.002576768E-1
1.854223979E1,-1.595991135E0,1.243074179E0,-4.184303582E-1
1.855139208E1,-1.558882236E0,1.243685007E0,-4.414898455E-1
1.856054437E1,-1.507112861E0,1.306296825E0,-4.489727318E-1
1.856969667E1,-1.470614791E0,1.423884988E0,-4.347705245E-1
1.857884896E1,-1.461452127E0,1.499324560E0,-4.152234197E-1
1.858800125E1,-1.466033459E0,1.516275644E0,-3.968980014E-1
1.859715359E1,-1.447708011E0,1.458550572E0,-3.810159862E-1
1.860630583E1,-1.375169873E0,1.336991906E0,-3.723114133E-1
1.861545818E1,-1.274227381E0,1.216655016E0,-3.709369898E-1
1.862461047E1,-1.182752967E0,1.121515512E0,-3.805578351E-1
1.863376276E1,-1.113727212E0,1.068524599E0,-4.002576768E-1
1.864291505E1,-1.073564053E0,1.123958945E0,-4.262186885E-1
1.865206734E1,-1.018893242E0,1.226428628E0,-4.375193417E-1
1.866121963E1,-9.112313986E-1,1.256054640E0,-4.424061179E-1
1.867037193E1,-8.160919547E-1,1.171146870E0,-4.701996744E-1
1.867952422E1,-7.612683773E-1,1.066233873E0,-5.234960914E-1
1.868867651E1,-7.136223316E-1,1.004538298E0,-5.787777901E-1
1.869782880E1,-6.801784039E-1,9.309312105E-1,-6.193991303E-1
1.870698114E1,-6.859814525E-1,7.554653287E-1,-6.418477297E-1
1.871613344E1,-7.088882327E-1,4.854708612E-1,-6.296308041E-1
1.872528573E1,-7.091936469E-1,2.247917950E-1,-5.854970813E-1
1.873443802E1,-6.986565590E-1,4.413371533E-2,-5.322006941E-1
1.874359031E1,-6.927008033E-1,-8.689302206E-2,-4.886777997E-1
1.875274260E1,-6.952968836E-1,-2.151709497E-1,-4.689779878E-1
1.876189490E1,-6.925480962E-1,-3.177932799E-1,-4.811949134E-1
1.877103443E1,-6.771242023E-1,-3.785725832E-1,-4.963133931E-1
1.878019948E1,-6.511631608E-1,-3.917058110E-1,-4.815003574E-1
1.878935177E1,-6.079457402E-1,-3.523061574E-1,-4.341596961E-1
1.879849135E1,-5.294518471E-1,-2.663294077E-1,-3.640649617E-1
1.880765635E1,-4.124746025E-1,-1.429382563E-1,-2.899997234E-1
1.881680870E1,-2.771719396E-1,3.817795310E-3,-2.464768738E-1
1.882596099E1,-1.221694499E-1,1.794363856E-1,-2.460187376E-1
1.883511328E1,9.758284688E-2,3.509317636E-1,-2.428117841E-1
1.884426557E1,4.144598544E-1,4.504998624E-1,-1.850867122E-1
1.885340510E1,8.141067028E-1,4.546230733E-1,-7.421794534E-2
1.886257016E1,1.261094213E0,3.678827584E-1,7.559234649E-2
1.887172245E1,1.711288571E0,1.992889196E-1,2.400629669E-1
1.888087474E1,2.124221325E0,-3.069507517E-2,4.123218954E-1
1.889002703E1,2.509971380E0,-3.013004065E-1,5.832064152E-1
1.889917932E1,2.891139984E0,-5.483881235E-1,7.288935184E-1
1.890831890E1,3.239017487E0,-6.757497787E-1,8.451071978E-1
1.891748390E1,3.464878321E0,-6.213843822E-1,9.387195110E-1
1.892663625E1,3.555283785E0,-4.202629030E-1,9.936957955E-1
1.893578854E1,3.534209490E0,-1.714953631E-1,9.781191945E-1
1.894494083E1,3.407305956E0,4.382828996E-2,9.232956171E-1
1.895409312E1,3.162814379E0,8.551861346E-2,9.013051391E-1
1.896323266E1,2.881671906E0,-6.902574003E-2,9.568922520E-1
1.897239771E1,2.696585178E0,-3.959817290E-1,1.108535051E0
1.898155000E1,2.641456366E0,-8.266290426E-1,1.338671803E0
1.899068958E1,2.656574726E0,-1.256512761E0,1.585759521E0
1.899985458E1,2.684673786E0,-1.532768488E0,1.793142080E0
1.900900687E1,2.696127176E0,-1.637223363E0,1.916075110E0
1.901814646E1,2.690629482E0,-1.789629698E0,1.931346297E0
1.902731151E1,2.681466818E0,-2.099787474E0,1.861862421E0
1.903646380E1,2.736137629E0,-2.505695343E0,1.726407051E0
1.904560333E1,2.890529156E0,-2.863499165E0,1.515206575E0
1.905476838E1,3.033162117E0,-3.037285328E0,1.236202121E0
1.906392068E1,3.041866541E0,-2.990860939E0,9.539906979E-1
1.907306021E1,2.958180666E0,-2.780729532E0,7.689039707E-1
1.908222526E1,2.872814655E0,-2.374363184E0,7.246175408E-1
1.909137755E1,2.826390266E0,-1.829182148E0,8.222004175E-1
1.910052984E1,2.813256979E0,-1.339282632E0,9.970554113E-1
1.910968219E1,2.780271292E0,-9.686510563E-1,1.169314384E0
1.911883448E1,2.694141865E0,-6.797202826E-1,1.277739763E0
1.912798677E1,2.544942379E0,-4.863871336E-1,1.310267329E0
1.913713906E1,2.367949486E0,-3.855973184E-1,1.277128935E0
1.914629135E1,2.198439360E0,-3.542914093E-1,1.197718740E0
1.915543088E1,2.052294016E0,-3.526115716E-1,1.070815206E0
1.916459594E1,1.919129372E0,-3.492519259E-1,9.100096822E-1
1.917374823E1,1.773289561E0,-3.565820754E-1,7.490514517E-1
1.918288781E1,1.600878000E0,-3.943018913E-1,6.061131954E-1
1.919205281E1,1.411668062E0,-4.601207078E-1,4.784461260E-1
1.920120516E1,1.203979969E0,-5.610632300E-1,3.463504016E-1
1.921035745E1,9.907942414E-1,-7.058340311E-1,2.160872221E-1
1.921950974E1,7.769976854E-1,-8.825215697E-1,1.097997949E-1
1.922866203E1,5.685460567E-1,-1.030193925E0,3.573456407E-2
1.923781432E1,3.674246371E-1,-1.062110662E0,-2.794626169E-2
1.924696661E1,1.688992679E-1,-9.668185115E-1,-9.177979827E-2
1.925611890E1,-4.123219103E-2,-7.992936373E-1,-1.598892659E-1
1.926527120E1,-2.765611112E-1,-6.342121959E-1,-2.128802687E-1
1.927442349E1,-5.529694557E-1,-5.227325559E-1,-2.418955117E-1
1.928357578E1,-8.817580342E-1,-5.057815313E-1,-2.386885732E-1
1.929271536E1,-1.258956194E0,-5.189147592E-1,-2.035648525E-1
1.930188042E1,-1.656006932E0,-5.128062963E-1,-1.782146841E-1
1.931103271E1,-2.028470993E0,-4.773771465E-1,-1.997470558E-1
1.932017224E1,-2.340155840E0,-4.159869850E-1,-2.771719396E-1
1.932933729E1,-2.499892473E0,-3.222219348E-1,-4.249969721E-1
1.933848958E1,-2.317554474E0,-1.893626526E-2,-6.161921620E-1
1.934762911E1,-1.618287086E0,7.908945084E-1,-7.591304183E-1
1.935679417E1,-8.309049606E-1,1.450304151E0,-7.490514517E-1
1.936594646E1,-8.342646360E-1,8.452599049E-1,-5.911474228E-1
1.937508604E1,-1.498561025E0,4.095730782E-1,-3.023693860E-1
1.938425109E1,-2.500045061E0,9.970554113E-1,-1.015533581E-1
1.939340338E1,-3.227411509E0,1.787949920E0,-4.581354442E-4
1.940254292E1,-2.586174488E0,2.557617426E0,2.281514555E-1
1.941170797E1,-1.541931152E0,1.976854444E0,4.405735731E-1
1.942086026E1,-1.076007485E0,5.346440673E-1,5.474718809E-1
1.942999979E1,-1.127013206E0,1.084253863E-1,6.542174220E-1
1.943916484E1,-1.470309377E0,4.902049303E-1,7.279772162E-1
1.944831713E1,-1.746106863E0,6.711684465E-1,5.891621709E-1
1.945745672E1,-1.702584028E0,2.527380586E-1,1.939440072E-1
1.946662177E1,-1.629740477E0,-3.668137789E-1,-2.977880239E-1
1.947577406E1,-1.704722047E0,-8.258655071E-1,-7.175928354E-1
1.948491359E1,-1.783215880E0,-1.030652046E0,-9.683456421E-1
1.949407865E1,-1.797723532E0,-1.028361320E0,-1.022252917E0
1.950323094E1,-1.730988383E0,-9.460496902E-1,-9.381086826E-1
1.951237047E1,-1.631878495E0,-7.934905887E-1,-8.075400591E-1
1.952153552E1,-1.570182920E0,-4.451549351E-1,-6.571189165E-1
1.953068781E1,-1.546054363E0,8.170082420E-2,-4.648547769E-1
1.953982740E1,-1.557813168E0,7.507312894E-1,-2.443388999E-1
1.954899245E1,-1.594005942E0,1.326454878E0,-5.573981255E-2
1.955814474E1,-1.635696292E0,1.675095916E0,5.909947306E-2
1.956728427E1,-1.674637794E0,1.872857690E0,1.178935245E-1
1.957644932E1,-1.737402320E0,2.000524759E0,1.223221645E-1
1.958560161E1,-1.807038903E0,2.021904469E0,5.268557742E-2
1.959474114E1,-1.832236409E0,1.942952394E0,-7.253811508E-2
1.960390620E1,-1.807344317E0,1.836512327E0,-2.108950168E-1
1.961305849E1,-1.756491303E0,1.718007922E0,-3.313846290E-1
1.962221078E1,-1.702125907E0,1.590646267E0,-4.109475017E-1
1.963136312E1,-1.645164371E0,1.451983929E0,-4.433223903E-1
1.964051542E1,-1.615690947E0,1.326149344E0,-4.472928941E-1
1.964966771E1,-1.625617266E0,1.255596519E0,-4.417952895E-1
1.965882000E1,-1.656006932E0,1.278503299E0,-4.304946065E-1
1.966797229E1,-1.681051612E0,1.374864459E0,-4.088095427E-1
1.967712458E1,-1.707928896E0,1.473821759E0,-3.773508966E-1
1.968627687E1,-1.716175318E0,1.548650503E0,-3.419217467E-1
1.969542917E1,-1.706249118E0,1.601183414E0,-3.199312389E-1
1.970458146E1,-1.693268657E0,1.590951681E0,-3.191677034E-1
1.971373380E1,-1.659213901E0,1.522231340E0,-3.452814221E-1
1.972288609E1,-1.581330895E0,1.440225124E0,-3.854446113E-1
1.973203838E1,-1.462979198E0,1.329356313E0,-4.254551232E-1
1.974119068E1,-1.330119848E0,1.163816690E0,-4.512633979E-1
1.975034297E1,-1.204132676E0,9.935430884E-1,-4.521796703E-1
1.975949526E1,-1.095401883E0,8.864920735E-1,-4.366030693E-1
1.976864755E1,-1.012784719E0,8.788564801E-1,-4.256078303E-1
1.977779984E1,-9.596410394E-1,9.313893318E-1,-4.106420577E-1
1.978695219E1,-9.336800575E-1,9.917105436E-1,-3.921639323E-1
1.979610448E1,-9.271134138E-1,9.929322004E-1,-3.866663277E-1
1.980525677E1,-9.272661209E-1,8.910734653E-1,-4.019374847E-1
1.981440906E1,-9.248227477E-1,7.559235096E-1,-4.256078303E-1
1.982356135E1,-9.061918855E-1,6.841489077E-1,-4.474456310E-1
1.983271365E1,-8.585458398E-1,6.798729897E-1,-4.689779878E-1
1.984186594E1,-7.924215794E-1,6.624638438E-1,-4.953971207E-1
1.985101823E1,-7.324058414E-1,5.835118294E-1,-5.212054253E-1
1.986017057E1,-6.879667044E-1,4.497362971E-1,-5.231906772E-1
1.986932286E1,-6.548282504E-1,3.022166789E-1,-4.984513521E-1
1.987847516E1,-6.290199757E-1,1.591257155E-1,-4.621059597E-1
1.988762745E1,-6.024481058E-1,6.261184346E-3,-4.282039404E-1
1.989677974E1,-5.606050491E-1,-1.574458778E-1,-3.991886973E-1
1.990593203E1,-5.021164417E-1,-3.000787199E-1,-3.655920923E-1
1.991508432E1,-4.303418994E-1,-4.126273096E-1,-3.326063454E-1
1.992423661E1,-3.600944579E-1,-4.756973088E-1,-3.309265077E-1
1.993338890E1,-3.011476994E-1,-5.147915483E-1,-3.329117596E-1
1.994254125E1,-2.533488870E-1,-5.610632300E-1,-3.387148082E-1
1.995169354E1,-2.160872221E-1,-5.906893015E-1,-3.536805511E-1
1.996084583E1,-1.846285909E-1,-5.767925382E-1,-3.723114133E-1
1.996999812E1,-1.618745178E-1,-4.953971207E-1,-3.746020794E-1
1.997915042E1,-1.514901221E-1,-3.694098890E-1,-3.527642787E-1
1.998830271E1,-1.608055383E-1,-2.229592502E-1,-3.370349705E-1
1.999745500E1,-1.618745178E-1,-9.162709117E-2,-3.651339412E-1
2.000660734E1,-1.020114943E-1,-9.162709117E-3,-4.136963189E-1
2.001575963E1,5.314370990E-2,1.282779220E-2,-3.967452943E-1
2.002491193E1,3.080197275E-1,-1.832541823E-2,-2.820587158E-1
2.003405146E1,6.233696342E-1,-7.421794534E-2,-8.918370306E-2
2.004321651E1,9.184088707E-1,-1.548497826E-1,1.462979168E-1
2.005236880E1,1.127929449E0,-2.722851634E-1,3.846810758E-1
2.006150833E1,1.258345366E0,-4.063661397E-1,5.835118294E-1
2.007067338E1,1.360814929E0,-5.405998230E-1,7.107207775E-1
2.007982568E1,1.489398360E0,-6.884248853E-1,7.728744745E-1
2.008896526E1,1.693268657E0,-8.367080092E-1,8.147175312E-1
2.009813031E1,1.987238884E0,-9.222266674E-1,8.730534315E-1
2.010728260E1,2.333131075E0,-8.889354467E-1,9.426900148E-1
2.011643490E1,2.670929670E0,-7.241594195E-1,1.009577751E0
2.012558719E1,2.967648745E0,-5.613686442E-1,1.057987452E0
2.013473948E1,3.237795830E0,-4.404208660E-1,1.076923728E0
2.014387906E1,3.470223188E0,-4.323271513E-1,1.049282908E0
2.015304411E1,3.554978371E0,-6.523848772E-1,9.779664874E-1
2.016219640E1,3.448080063E0,-1.066844702E0,8.944330812E-1
2.017133594E1,3.247722149E0,-1.525438309E0,8.347227573E-1
2.018050099E1,3.088749170E0,-1.883700252E0,8.241856694E-1
2.018965328E1,3.021403313E0,-2.100551128E0,8.683193922E-1
2.019879281E1,2.999412775E0,-2.097954988E0,9.506310225E-1
2.020795786E1,2.981240034E0,-1.901109338E0,1.066386580E0
2.021711021E1,2.945810795E0,-1.633558273E0,1.191152096E0
2.022626250E1,2.916032076E0,-1.456717968E0,1.286597013E0
2.023541479E1,2.938480854E0,-1.431215167E0,1.304464340E0
2.024456708E1,3.012087822E0,-1.490467310E0,1.226886749E0
2.025370661E1,3.094704866E0,-1.551246643E0,1.074938416E0
2.026287167E1,3.133188248E0,-1.558576822E0,8.785510659E-1
2.027202396E1,3.086458445E0,-1.499629974E0,6.925480962E-1
2.028116354E1,2.969786644E0,-1.406323075E0,5.615213513E-1
2.029032859E1,2.831429720E0,-1.279114127E0,5.164713860E-1
2.029948088E1,2.707885981E0,-1.139230132E0,5.656445622E-1
2.030863318E1,2.613051891E0,-1.005149126E0,6.968240142E-1
2.031778547E1,2.544026136E0,-8.617527485E-1,8.605310917E-1
2.032693776E1,2.487828255E0,-7.207997441E-1,1.013853788E0
2.033609005E1,2.429645061E0,-5.971031785E-1,1.115254402E0
2.034524234E1,2.361993551E0,-4.837910235E-1,1.142284393E0
2.035439463E1,2.281056404E0,-3.828485310E-1,1.097081661E0
2.036353422E1,2.185916901E0,-3.008422852E-1,9.808679819E-1
2.037269927E1,2.082072973E0,-2.545706034E-1,8.200624585E-1
2.038185156E1,1.963721275E0,-2.428117841E-1,6.488724947E-1
2.039099109E1,1.830098391E0,-2.695363462E-1,5.031854510E-1
2.040015614E1,1.688381791E0,-3.576510847E-1,3.837648034E-1
2.040930844E1,1.545748949E0,-4.883723855E-1,2.816005945E-1
2.041846078E1,1.405559540E0,-6.274928451E-1,1.847812980E-1
2.042761307E1,1.270256877E0,-7.545490861E-1,1.088835225E-1
2.043676536E1,1.137550354E0,-8.556442857E-1,5.665608495E-2
2.044591766E1,1.001025915E0,-9.242119193E-1,1.359135192E-2
2.045506995E1,8.577822447E-1,-9.648332596E-1,-3.130592033E-2
2.046422224E1,7.058340311E-1,-9.652913809E-1,-7.635590434E-2
2.047337453E1,5.421269536E-1,-9.054283500E-1,-1.203369126E-1
2.048252682E1,3.658975065E-1,-7.571451664E-1,-1.583621502E-1
2.049167917E1,1.704263836E-1,-5.344913602E-1,-1.837123185E-1
2.050081870E1,-4.627167806E-2,-2.770192325E-1,-1.951656938E-1
2.050998375E1,-2.794626355E-1,-3.817795217E-2,-1.919587553E-1
2.051913604E1,-5.121954083E-1,1.212531775E-1,-1.748550236E-1
2.052828833E1,-7.064448595E-1,1.980672181E-1,-1.505738497E-1
2.053744062E1,-8.498412371E-1,2.305948436E-1,-1.377460510E-1
2.054659292E1,-9.659022093E-1,2.507528067E-1,-1.403421611E-1
2.055574526E1,-1.083337665E0,2.324273884E-1,-1.533226669E-1
2.056489755E1,-1.211920977E0,1.418692768E-1,-1.713426560E-1
2.057404984E1,-1.370893955E0,3.359660041E-3,-2.046338320E-1
2.058320213E1,-1.538877010E0,-1.265980899E-1,-2.570139766E-1
2.059235443E1,-1.653258085E0,-2.072299272E-1,-3.213056624E-1
2.060150672E1,-1.439461589E0,-2.336490750E-1,-3.936910629E-1
2.061064630E1,-7.881456614E-1,-1.243074164E-1,-4.367557764E-1
2.061981135E1,-1.499630064E-1,-9.788827598E-2,-3.981196880E-1
2.062896365E1,1.278197914E-1,-2.195995897E-1,-3.839175105E-1
2.063810318E1,1.864611208E-1,-6.795675755E-1,-4.593571424E-1
2.064726823E1,3.605526090E-1,-1.353484869E0,-5.810684562E-1
2.065642052E1,4.676035643E-1,-6.314633489E-1,-7.317950130E-1
2.066556005E1,2.608317733E-1,5.294518471E-1,-8.933641315E-1
2.067472510E1,-3.842229247E-1,-5.497625470E-2,-9.200887084E-1
2.068387745E1,-9.483403563E-1,-8.976400495E-1,-7.317950130E-1
2.069301698E1,-1.102732062E0,-2.829749882E-1,-3.484883606E-1
2.070218203E1,-1.255443811E0,1.337602735E0,5.955760926E-2
2.071133432E1,-1.516275644E0,2.651382446E0,3.706315756E-1
2.072047385E1,-1.789018869E0,3.405320644E0,4.840964675E-1
2.072963890E1,-1.887823462E0,3.414941549E0,3.808632791E-1
2.073879120E1,-1.590188146E0,2.408265352E0,1.467560530E-1
2.074793078E1,-1.352415800E0,1.216349602E0,-8.948912472E-2
2.075709583E1,-1.469545841E0,6.132906675E-1,-3.017585576E-1
2.076624812E1,-1.691741467E0,4.676035643E-1,-4.912739098E-1
2.077538766E1,-1.742441773E0,1.945548505E-1,-6.294780970E-1
2.078455271E1,-1.563463569E0,-1.835595965E-1,-6.320741773E-1
2.079370500E1,-1.334854007E0,-4.598152637E-1,-4.825693369E-1
2.080284458E1,-1.254985690E0,-5.853443742E-1,-2.699944973E-1
2.081200963E1,-1.322331548E0,-6.571189165E-1,-8.475505561E-2
2.082116193E1,-1.429993391E0,-5.995466113E-1,2.305948362E-2
2.083030146E1,-1.517039180E0,-3.857500553E-1,5.344913527E-2
2.083946651E1,-1.562089205E0,-1.635543555E-1,2.550287358E-2
2.084861880E1,-1.578276634E0,2.122694254E-2,-2.901524492E-2
2.085777109E1,-1.593700528E0,1.395785958E-1,-1.049130186E-1
2.086692344E1,-1.601641536E0,2.380777150E-1,-2.028012872E-1
2.087607573E1,-1.608666301E0,3.237490356E-1,-3.145863414E-1
2.088522802E1,-1.583774209E0,4.181249440E-1,-4.092676640E-1
2.089438031E1,-1.504058719E0,5.548020005E-1,-4.715740979E-1
2.090353260E1,-1.416707516E0,6.507050395E-1,-4.900522232E-1
2.091267213E1,-1.353026628E0,6.983511448E-1,-4.718795121E-1
2.092183719E1,-1.334854007E0,7.769976854E-1,-4.272876680E-1
2.093098953E1,-1.370283127E0,8.548807502E-1,-3.793361485E-1
2.094014182E1,-1.424495816E0,9.008470178E-1,-3.235963285E-1
2.094929411E1,-1.457328796E0,9.666658044E-1,-2.585411072E-1
2.095844640E1,-1.442668557E0,1.024238110E0,-2.011214644E-1
2.096759870E1,-1.410598993E0,1.068371892E0,-1.721062213E-1
2.097675099E1,-1.425870180E0,1.056918502E0,-1.685938388E-1
2.098590333E1,-1.448013425E0,1.053253412E0,-1.681357026E-1
2.099505562E1,-1.403268814E0,1.069593549E0,-1.623326540E-1
2.100420792E1,-1.337602735E0,9.666658044E-1,-1.641651988E-1
2.101336021E1,-1.293621778E0,8.021951914E-1,-1.797417998E-1
2.102251250E1,-1.267966151E0,6.381826997E-1,-2.032594234E-1
2.103166479E1,-1.246281147E0,4.277457893E-1,-2.328855246E-1
2.104081708E1,-1.219251156E0,2.409792393E-1,-2.507528067E-1
2.104996943E1,-1.191457629E0,1.601946950E-1,-2.512109280E-1
2.105912172E1,-1.174048424E0,1.487413049E-1,-2.437280566E-1
2.106827401E1,-1.166565537E0,2.012741715E-1,-2.333436459E-1
2.107742630E1,-1.177560806E0,2.489202619E-1,-2.266243398E-1
2.108657859E1,-1.189319611E0,3.213056624E-1,-2.157817930E-1
2.109573088E1,-1.196649790E0,3.839175105E-1,-2.073826492E-1
2.110488318E1,-1.174964666E0,3.773508966E-1,-2.011214644E-1
2.111403552E1,-1.121973753E0,2.942756712E-1,-1.976090819E-1
2.112318781E1,-1.082879424E0,1.997470558E-1,-2.028012872E-1
2.113234010E1,-1.102884769E0,1.068982705E-1,-2.235700935E-1
2.114149240E1,-1.143353343E0,2.657185495E-2,-2.458660156E-1
2.115064469E1,-1.142437100E0,-1.695101149E-2,-2.629697323E-1
2.115979698E1,-1.095096469E0,-6.093201414E-2,-2.716743052E-1
2.116894927E1,-1.040272832E0,-1.127013192E-1,-2.803788781E-1
2.117810161E1,-1.005149126E0,-1.771457046E-1,-2.953446507E-1
2.118725391E1,-9.837695360E-1,-2.360924631E-1,-3.025220931E-1
2.119640620E1,-9.526162744E-1,-2.686200738E-1,-2.913741469E-1
2.120555849E1,-8.959602118E-1,-2.793098986E-1,-2.628170252E-1
2.121471078E1,-8.388460279E-1,-2.675510943E-1,-2.250972092E-1
2.122386307E1,-8.170081973E-1,-2.506000996E-1,-1.974563748E-1
2.123301542E1,-8.156337738E-1,-1.867665499E-1,-2.067717910E-1
2.124216771E1,-8.134958148E-1,-5.909947306E-2,-2.513636351E-1
2.125132000E1,-8.142594099E-1,5.329642445E-2,-3.075616062E-1
2.126047229E1,-8.134958148E-1,1.314848661E-1,-3.443651497E-1
2.126962458E1,-8.028060198E-1,1.670667231E-1,-3.490992188E-1
2.127877693E1,-7.724163532E-1,1.461452097E-1,-3.300102353E-1
2.128792922E1,-7.203416228E-1,9.086353332E-2,-3.057290614E-1
2.129708151E1,-6.375718117E-1,1.221694518E-3,-2.825168669E-1
2.130623380E1,-5.349494815E-1,-1.207950488E-1,-2.536543310E-1
2.131538609E1,-4.332434237E-1,-2.632751763E-1,-2.327328026E-1
2.132453838E1,-3.574983478E-1,-4.150707126E-1,-2.197522968E-1
2.133369068E1,-3.072561622E-1,-5.268557668E-1,-2.041756958E-1
2.134284302E1,-2.774773538E-1,-5.526640415E-1,-1.782146841E-1
2.135199531E1,-2.648022771E-1,-4.821111858E-1,-1.421747059E-1
2.136114760E1,-2.663294077E-1,-3.216110766E-1,-1.014006436E-1
2.137029990E1,-2.677038014E-1,-1.142284349E-1,-6.306997687E-2
2.137945219E1,-2.683146596E-1,8.475505561E-2,-4.062134400E-2
2.138860448E1,-2.771719396E-1,2.528907657E-1,-3.833066672E-2
2.139775682E1,-2.924431264E-1,3.865135908E-1,-4.963133857E-2
2.140690911E1,-3.019112647E-1,4.787515402E-1,-7.040014863E-2
2.141606140E1,-2.880144715E-1,5.285356045E-1,-9.300149232E-2
2.142521370E1,-2.470877171E-1,5.135698318E-1,-1.018587798E-1
2.143436599E1,-1.899735034E-1,4.402681589E-1,-9.223793447E-2
2.144351828E1,-1.356080920E-1,3.674246371E-1,-7.223268598E-2
2.145267062E1,-1.065928489E-1,3.458922505E-1,-6.474980712E-2
2.146182292E1,-1.029277667E-1,3.571929336E-1,-6.658235192E-2
2.147097521E1,-1.232384369E-1,3.626905680E-1,-7.589777559E-2
2.148012750E1,-1.730224788E-1,3.402419090E-1,-8.780929446E-2
2.148927979E1,-2.525853515E-1,2.942756712E-1,-9.804098308E-2
2.149843208E1,-3.558185399E-1,2.548760176E-1,-1.012479365E-1
2.150758443E1,-4.630222321E-1,2.451024652E-1,-9.468132257E-2
2.151673672E1,-5.392253995E-1,2.819060087E-1,-7.024743408E-2
2.152588901E1,-5.647283196E-1,3.565820754E-1,-3.497100621E-2
2.153504130E1,-5.482354164E-1,4.262186885E-1,4.581354442E-4
2.154419359E1,-5.164713860E-1,4.534013867E-1,2.260134928E-2
2.155334594E1,-4.650074840E-1,4.136963189E-1,2.367033064E-2
2.156249823E1,-4.037700295E-1,3.330644667E-1,4.581354558E-3
2.157165052E1,-3.359659910E-1,2.751866877E-1,-1.252236869E-2
2.158080281E1,-2.460187376E-1,2.644968629E-1,-3.970507067E-3
2.158995510E1,-1.345391124E-1,2.678565085E-1,3.466558084E-2
2.159910740E1,-3.344388679E-2,2.374668717E-1,8.612946421E-2
2.160825969E1,2.993151546E-2,1.522536725E-1,1.293469071E-1
2.161741203E1,5.497625470E-2,2.947338112E-2,1.601946950E-1
2.162655156E1,4.963133857E-2,-7.666133344E-2,1.754658818E-1
2.163571661E1,7.482878864E-3,-1.171299592E-1,1.702736765E-1
2.164486891E1,-6.062658876E-2,-7.742489129E-2,1.429382563E-1
2.165402120E1,-1.296523362E-1,2.947338112E-2,9.407047927E-2
2.166317349E1,-1.835595965E-1,1.652341783E-1,3.069507517E-2
2.167232583E1,-2.284568697E-1,3.054236174E-1,-3.436015919E-2
2.168147812E1,-2.571666837E-1,4.395045936E-1,-8.414421231E-2
2.169063042E1,-2.660239935E-1,5.551074743E-1,-1.197260618E-1
2.169978271E1,-2.579302490E-1,6.308525205E-1,-1.435490996E-1
2.170893500E1,-2.341072112E-1,6.658235192E-1,-1.531699449E-1
2.171808734E1,-2.052446753E-1,6.725428104E-1,-1.511846930E-1
2.172723963E1,-1.798945218E-1,6.610894203E-1,-1.449235082E-1
2.173639193E1,-1.684411317E-1,6.219952106E-1,-1.411057115E-1
2.174554422E1,-1.759240031E-1,5.618267655E-1,-1.337755471E-1
2.175469651E1,-1.872246861E-1,4.961606860E-1,-1.087308154E-1
2.176384880E1,-1.824906170E-1,4.234698713E-1,-6.108472496E-2
2.177300115E1,-1.585148573E-1,3.345915973E-1,-4.123218823E-3
2.178215344E1,-1.165191159E-1,2.312056869E-1,4.520269856E-2
2.179130573E1,-5.894676223E-2,1.241547018E-1,8.108997345E-2
2.180045802E1,3.970507067E-3,2.977880463E-2,1.059819981E-1
2.180961031E1,6.291726977E-2,-1.420219894E-2,1.186570823E-1
2.181876266E1,1.032331884E-1,2.031067200E-2,1.165191159E-1
2.182791495E1,1.146865711E-1,1.269035190E-1,1.036913246E-1
2.183706724E1,9.880454093E-2,2.756448388E-1,8.017370105E-2
2.184621953E1,7.834116369E-2,4.225535989E-1,5.253286287E-2
2.185537182E1,6.337540597E-2,5.447230339E-1,2.550287358E-2
2.186452417E1,5.161659420E-2,6.210789680E-1,3.359660041E-3
2.187367646E1,3.237490356E-2,6.523848772E-1,-9.620844387E-3
2.188282875E1,3.512371797E-3,6.342121959E-1,-1.771457121E-2
2.189198104E1,-2.550287358E-2,5.661026835E-1,-2.275406010E-2
2.190113333E1,-4.352286831E-2,4.534013867E-1,-2.825168520E-2
2.191028562E1,-4.917320609E-2,3.268032968E-1,-3.436015919E-2
2.191943797E1,-4.199574888E-2,2.128802687E-1,-4.153761268E-2
2.192859026E1,-3.390202299E-2,1.308740228E-1,-4.321744293E-2
2.193774255E1,-3.023693897E-2,7.681404054E-2,-4.016320780E-2
2.194689484E1,-2.947338112E-2,4.963133857E-2,-3.894151375E-2
2.195604713E1,-3.680354729E-2,4.169032723E-2,-4.382828996E-2
2.196519943E1,-4.535540938E-2,3.084778599E-2,-4.871506989E-2
2.197435177E1,-4.932591692E-2,7.941014133E-3,-4.871506989E-2
2.198350406E1,-4.718795046E-2,-2.580829710E-2,-4.566083103E-2
2.199265635E1,-3.649812192E-2,-7.269082218E-2,-3.771981969E-2
2.200180864E1,-1.740914769E-2,-1.330119967E-1,-3.023693897E-2
2.201096094E1,5.955760833E-3,-1.997470558E-1,-2.870982140E-2
2.202011328E1,3.130592033E-2,-2.684673667E-1,-2.977880463E-2
2.202926557E1,5.146388337E-2,-3.159607351E-1,-3.008422814E-2
2.203841786E1,6.429167092E-2,-3.249707520E-1,-2.519745007E-2
2.204757016E1,6.108472496E-2,-3.002314270E-1,-2.092151903E-2
2.205672245E1,5.085303262E-2,-2.605263591E-1,-1.557660475E-2
2.206587474E1,3.573456407E-2,-2.237228155E-1,-1.267508045E-2
2.207502708E1,1.893626526E-2,-2.050919682E-1,-1.450762246E-2
2.208417937E1,4.123218823E-3,-2.009687424E-1,-2.137965336E-2
2.209333167E1,5.955760833E-3,-1.931804419E-1,-2.870982140E-2
2.210248396E1,1.557660475E-2,-1.792836636E-1,-3.420744836E-2
2.211163625E1,2.412846684E-2,-1.690519750E-1,-3.527642787E-2
2.212078859E1,2.351761982E-2,-1.653869003E-1,-3.894151375E-2
2.212994088E1,1.496575773E-2,-1.702736765E-1,-4.337015375E-2
2.213909318E1,2.748812549E-3,-1.806580722E-1,-5.070032179E-2
2.214824547E1,4.581354442E-4,-1.968455315E-1,-5.558710173E-2
2.215739776E1,8.551862091E-3,-1.974563748E-1,-5.864133686E-2
2.216655005E1,1.832541823E-2,-1.812689304E-1,-5.665608495E-2
2.217570240E1,1.924168877E-2,-1.577513069E-1,-5.299099907E-2
2.218485469E1,1.038440317E-2,-1.330119967E-1,-4.764608666E-2
2.219400698E1,-3.970507067E-3,-1.148392856E-1,-4.291202128E-2
2.220315927E1,-1.328592747E-2,-1.064401343E-1,-4.230117425E-2
2.221231161E1,-1.328592747E-2,-1.088835225E-1,-4.352286831E-2
2.222146390E1,-5.650337320E-3,-1.233911440E-1,-4.352286831E-2
2.223061620E1,8.704573847E-3,-1.414111406E-1,-4.031591862E-2
2.223976849E1,2.794626169E-2,-1.594311297E-1,-3.833066672E-2
2.224892078E1,4.596625641E-2,-1.876828223E-1,-3.573456407E-2
2.225807307E1,5.803048983E-2,-2.232646793E-1,-3.680354729E-2
2.226722542E1,6.368082762E-2,-2.437280566E-1,-3.619270027E-2
2.227637771E1,6.062658876E-2,-2.449497581E-1,-3.741439432E-2
2.228553000E1,5.436540768E-2,-2.244863659E-1,-3.268032894E-2
2.229468229E1,4.978405312E-2,-1.997470558E-1,-2.473931387E-2
2.230383458E1,4.092676565E-2,-1.731752008E-1,-1.985253580E-2
2.231298693E1,3.512371704E-2,-1.473668963E-1,-2.000524849E-2
2.232213922E1,3.542914242E-2,-1.214058921E-1,-2.305948362E-2
2.233129151E1,4.016320780E-2,-9.849911928E-2,-2.733541466E-2
2.234044380E1,4.077405483E-2,-8.582404256E-2,-3.161134571E-2
2.234959609E1,4.749337584E-2,-8.032641560E-2,-3.588727489E-2
2.235874844E1,5.176930502E-2,-8.338065445E-2,-3.756710514E-2
2.236790073E1,5.619794875E-2,-8.704573661E-2,-3.695625812E-2
2.237705302E1,5.497625470E-2,-9.849911928E-2,-3.756710514E-2
2.238620531E1,5.207473040E-2,-1.159082651E-1,-3.573456407E-2
2.239535760E1,4.718795046E-2,-1.244601309E-1,-3.268032894E-2
2.240450995E1,4.046862945E-2,-1.261399537E-1,-3.038965166E-2
2.241366224E1,3.787253052E-2,-1.183516532E-1,-2.794626169E-2
2.242281453E1,3.665083647E-2,-1.087308154E-1,-2.672456764E-2
2.243196682E1,3.542914242E-2,-1.105633527E-1,-2.611372061E-2
2.244111911E1,3.176405653E-2,-1.226275861E-1,-2.611372061E-2
2.245027146E1,3.436015919E-2,-1.412584335E-1,-2.733541466E-2
2.245942375E1,4.077405483E-2,-1.588202864E-1,-2.428117767E-2
2.246857604E1,4.932591692E-2,-1.611109674E-1,-2.229592577E-2
2.247772833E1,6.215370819E-2,-1.537808031E-1,-2.107422985E-2
2.248688068E1,7.941014320E-2,-1.466033459E-1,-2.031067200E-2
2.249603297E1,9.239064902E-2,-1.441599578E-1,-1.649287529E-2
2.250518526E1,9.361234307E-2,-1.423274130E-1,-1.710372418E-2
2.251433755E1,8.368607610E-2,-1.298050433E-1,-1.908897609E-2
2.252348984E1,7.345438004E-2,-1.007898003E-1,-1.969982497E-2
2.253264219E1,6.139015034E-2,-5.497625470E-2,-1.618745178E-2
2.254179448E1,4.978405312E-2,-9.162709117E-3,-1.450762246E-2
2.255094677E1,2.855710872E-2,2.565558441E-2,-1.771457121E-2
2.256009906E1,5.039489828E-3,5.207473040E-2,-2.458660305E-2
2.256925135E1,-9.926267900E-3,7.192726433E-2,-3.451287001E-2
2.257840370E1,-1.374406368E-2,8.338065445E-2,-4.367557913E-2
2.258755599E1,-7.482878864E-3,8.338065445E-2,-5.161659420E-2
2.259670828E1,4.581354442E-4,8.154810965E-2,-5.635065958E-2
2.260586057E1,6.108472589E-4,7.070557028E-2,-5.635065958E-2
2.261501292E1,-1.068982761E-3,5.314370990E-2,-5.390727147E-2
2.262416521E1,3.359660041E-3,3.268032894E-2,-5.207473040E-2
2.263331750E1,1.236965694E-2,5.039489828E-3,-5.329642445E-2
2.264246979E1,1.145338640E-2,-3.237490356E-2,-4.947862774E-2
2.265162208E1,4.275931045E-3,-7.681404054E-2,-3.741439432E-2
2.266077437E1,-8.246437646E-3,-1.189625040E-1,-2.336490713E-2
2.266992672E1,-1.725643501E-2,-1.533226669E-1,-1.603474095E-2
2.267907901E1,-1.145338640E-2,-1.841704547E-1,-1.664558798E-2
2.268823130E1,3.970507067E-3,-1.876828223E-1,-2.076880634E-2
2.269738359E1,1.863084175E-2,-1.690519750E-1,-1.878355257E-2
2.270653594E1,2.458660305E-2,-1.437018216E-1,-1.206423342E-2
2.271568823E1,3.038965166E-2,-1.207950488E-1,-4.734066315E-3
2.272484052E1,3.634541109E-2,-9.605573118E-2,1.527118147E-4
2.273399281E1,4.596625641E-2,-6.032116711E-2,2.596100792E-3
2.274314516E1,5.115845799E-2,-2.122694254E-2,3.206948051E-3
2.275229745E1,4.963133857E-2,1.496575773E-2,3.206948051E-3
2.276144974E1,4.382828996E-2,4.016320780E-2,-4.581354442E-4
2.277060203E1,3.436015919E-2,6.306997687E-2,-9.162709117E-3
2.277975432E1,2.443389036E-2,8.353336155E-2,-1.847812906E-2
2.278890667E1,1.206423342E-2,9.437590092E-2,-2.458660305E-2
2.279805896E1,1.527118147E-3,9.605573118E-2,-2.718270384E-2
2.280721125E1,-1.007897966E-2,7.864658535E-2,-2.840439789E-2
2.281636354E1,-2.137965336E-2,3.268032894E-2,-3.145863488E-2
2.282551588E1,-3.741439432E-2,-3.603998944E-2,-3.527642787E-2
2.283466818E1,-4.779879749E-2,-1.065928489E-1,-4.138490185E-2
2.284382047E1,-4.902049154E-2,-1.722589284E-1,-4.443913698E-2
2.285297276E1,-4.245388508E-2,-2.270824611E-1,-4.611896724E-2
2.286212510E1,-3.038965166E-2,-2.577775419E-1,-4.535540938E-2
2.287127740E1,-1.740914769E-2,-2.684673667E-1,-4.474456236E-2
2.288042969E1,9.162708884E-4,-2.588465214E-1,-4.153761268E-2
2.288958198E1,1.924168877E-2,-2.293731421E-1,-3.955236077E-2
2.289873427E1,3.619270027E-2,-1.901262105E-1,-3.161134571E-2
2.290788661E1,4.993676394E-2,-1.490467340E-1,-2.107422985E-2
2.291703891E1,5.558710173E-2,-1.079672500E-1,-1.130067464E-2
2.292619120E1,5.467082933E-2,-6.765133142E-2,-6.413896102E-3
2.293534349E1,5.558710173E-2,-2.901524492E-2,-2.748812549E-3
2.294449578E1,6.566607952E-2,5.955760833E-3,3.054236295E-4
2.295364812E1,8.139539510E-2,3.726168349E-2,-2.748812549E-3
2.296280042E1,1.029277667E-1,5.665608495E-2,-5.039489828E-3
2.297195271E1,1.256818175E-1,5.543438718E-2,-6.719320081E-3
2.298110500E1,1.437018216E-1,3.970507160E-2,-7.788302377E-3
2.299025734E1,1.580567211E-1,1.801999472E-2,-3.359660041E-3
2.299940963E1,1.687465608E-1,-8.399149403E-3,2.901524538E-3
2.300856193E1,1.831014603E-1,-3.894151375E-2,1.634016447E-2
2.301771422E1,2.024958730E-1,-7.620319724E-2,3.359659761E-2
2.302686656E1,2.243336588E-1,-1.056765765E-1,4.902049154E-2
2.303601885E1,2.373141646E-1,-1.249182671E-1,5.955760926E-2
2.304517114E1,2.344126403E-1,-1.437018216E-1,6.444438547E-2
2.305432344E1,2.234173864E-1,-1.611109674E-1,6.444438547E-2
2.306347573E1,2.166980654E-1,-1.647760421E-1,6.184828654E-2
2.307262807E1,2.128802687E-1,-1.479777545E-1,6.001574174E-2
2.308178036E1,2.046338320E-1,-1.279724985E-1,6.001574174E-2
2.309093266E1,1.959292591E-1,-1.136175916E-1,5.680879578E-2
2.310008495E1,1.811162084E-1,-1.189625040E-1,4.947862774E-2
2.310923729E1,1.659977436E-1,-1.377460510E-1,4.077405483E-2
2.311838958E1,1.600419879E-1,-1.504211426E-1,3.527642787E-2
2.312754187E1,1.606528312E-1,-1.504211426E-1,3.527642787E-2
2.313669417E1,1.572931707E-1,-1.281252056E-1,3.649812192E-2
2.314584646E1,1.441599578E-1,-9.743013978E-2,3.695625812E-2
2.315499880E1,1.247655526E-1,-6.612421572E-2,3.130592033E-2
2.316415109E1,9.804098308E-2,-4.092676565E-2,2.367033064E-2
2.317330338E1,6.948387623E-2,-1.634016447E-2,1.618745178E-2
2.318245573E1,4.886778072E-2,1.435491070E-2,1.175880991E-2
2.319160802E1,3.451287001E-2,4.199574888E-2,1.221694518E-2
2.320076031E1,1.893626526E-2,5.711421743E-2,1.145338640E-2
2.320991260E1,4.123218823E-3,6.001574174E-2,4.734066315E-3
2.321906490E1,-1.191152167E-2,6.184828654E-2,-3.359660041E-3
2.322821724E1,-2.046338283E-2,6.368082762E-2,-7.635590620E-3
2.323736953E1,-2.290677279E-2,6.123743951E-2,-1.023169141E-2
2.324652182E1,-2.351761982E-2,5.696150661E-2,-8.246437646E-3
2.325567417E1,-2.779355086E-2,5.268557742E-2,-1.023169141E-2
2.326482646E1,-3.588727489E-2,5.329642445E-2,-1.084253844E-2
2.327397875E1,-3.756710514E-2,4.611896724E-2,-1.206423342E-2
2.328313104E1,-3.436015919E-2,3.405473381E-2,-9.620844387E-3
2.329228333E1,-3.374931216E-2,2.626643144E-2,-5.955760833E-3
2.330143568E1,-4.046862945E-2,2.687728032E-2,-1.068982761E-3
2.331058797E1,-5.161659420E-2,3.038965166E-2,1.221694518E-3
2.331974026E1,-6.459710002E-2,3.588727489E-2,-1.221694518E-3
2.332889255E1,-7.513421029E-2,4.535540938E-2,-3.206948051E-3
2.333804490E1,-7.971556485E-2,6.826218218E-2,-1.236965694E-2
2.334719719E1,-8.780929446E-2,9.300149232E-2,-2.168507688E-2
2.335634948E1,-9.895725548E-2,9.956810623E-2,-3.023693897E-2
2.336550177E1,-1.131594554E-1,9.468132257E-2,-3.466558084E-2
2.337465406E1,-1.253764033E-1,9.284878522E-2,-3.298575059E-2
2.338380640E1,-1.359135211E-1,1.018587798E-1,-2.932066843E-2
2.339295870E1,-1.441599578E-1,1.114796251E-1,-2.748812735E-2
2.340211099E1,-1.490467340E-1,1.212531775E-1,-2.825168520E-2
2.341126328E1,-1.534753740E-1,1.218640283E-1,-2.764083818E-2
2.342041562E1,-1.565296054E-1,1.217113137E-1,-2.825168520E-2
2.342956792E1,-1.516428292E-1,1.212531775E-1,-2.580829710E-2
2.343872021E1,-1.443126649E-1,1.302631795E-1,-2.260134928E-2
2.344787250E1,-1.406475753E-1,1.446180940E-1,-1.954711229E-2
2.345702484E1,-1.401894391E-1,1.519482583E-1,-1.771457121E-2
2.346617713E1,-1.450762302E-1,1.525591016E-1,-2.153236605E-2
2.347532943E1,-1.501157135E-1,1.531699449E-1,-2.092151903E-2
2.348448172E1,-1.507265568E-1,1.627907902E-1,-2.031067200E-2
2.349363406E1,-1.446180940E-1,1.670667231E-1,-1.847812906E-2
2.350278635E1,-1.401894391E-1,1.615691036E-1,-1.649287529E-2
2.351193864E1,-1.363716573E-1,1.435490996E-1,-1.588202827E-2
2.352109094E1,-1.317902952E-1,1.163664013E-1,-1.710372418E-2
2.353024328E1,-1.265980899E-1,8.994726092E-2,-1.527118124E-2
2.353939557E1,-1.160609797E-1,6.642963737E-2,-7.788302377E-3
2.354854786E1,-1.035386100E-1,4.230117425E-2,-3.054236295E-4
2.355770016E1,-9.162709117E-2,2.137965336E-2,3.359660041E-3
2.356685250E1,-8.719844371E-2,3.817795310E-3,4.581354442E-4
2.357600479E1,-8.460234851E-2,-1.007897966E-2,-4.428642802E-3
2.358515708E1,-7.956285775E-2,-2.199050039E-2,-8.704573847E-3
2.359430937E1,-7.207997888E-2,-1.969982497E-2,-1.099525020E-2
2.360346172E1,-6.551336497E-2,-7.024743594E-3,-8.551862091E-3
2.361261401E1,-6.566607952E-2,8.093725890E-3,-3.054236295E-3
2.362176630E1,-7.192726433E-2,2.199050039E-2,1.679830020E-3
2.363091859E1,-8.002099395E-2,3.939964995E-2,2.290677279E-3
2.364007094E1,-8.017370105E-2,4.963133857E-2,-1.374406274E-3
2.364922323E1,-7.650861889E-2,5.329642445E-2,-6.872031838E-3
2.365837552E1,-7.024743408E-2,4.535540938E-2,-1.114796288E-2
2.366752781E1,-7.146912813E-2,3.695625812E-2,-1.175880991E-2
2.367668016E1,-7.131642103E-2,3.222219273E-2,-8.093725890E-3
2.368583245E1,-6.948387623E-2,2.321219631E-2,-6.872031838E-3
2.369498474E1,-6.368082762E-2,6.261184346E-3,-6.719320081E-3
2.370413703E1,-5.803048983E-2,-1.114796288E-2,-9.162709117E-3
2.371328932E1,-5.360184610E-2,-2.565558441E-2,-1.038440317E-2
2.372244167E1,-4.795150831E-2,-3.405473381E-2,-8.399149403E-3
2.373159396E1,-4.306473210E-2,-3.756710514E-2,-2.290677279E-3
2.374074625E1,-3.878879920E-2,-3.451287001E-2,4.428642802E-3
2.374989854E1,-3.268032894E-2,-3.329117596E-2,7.482878864E-3
2.375905088E1,-2.473931387E-2,-3.268032894E-2,1.435491070E-2
2.376820318E1,-1.359135192E-2,-3.268032894E-2,1.618745178E-2
2.377735547E1,1.221694518E-3,-3.084778599E-2,1.572931744E-2
2.378650776E1,1.099525020E-2,-2.183778957E-2,1.328592747E-2
2.379566010E1,1.282779220E-2,-9.162709117E-3,1.145338640E-2
