"Time (s)","Gyroscope x (rad/s)","Gyroscope y (rad/s)","Gyroscope z (rad/s)"
9.446464181E0,3.054236295E-4,-3.298575059E-2,-1.038440317E-2
9.455616733E0,2.137965523E-3,-2.092151903E-2,-1.221694518E-2
9.464769285E0,5.803049076E-3,-1.130067464E-2,-1.160609815E-2
9.473921837E0,9.926267900E-3,-2.290677279E-3,-1.023169141E-2
9.483074389E0,2.275406010E-2,1.221694518E-2,-5.344913341E-3
9.492226889E0,4.046862945E-2,2.305948362E-2,4.581354558E-3
9.501379441E0,5.146388337E-2,2.443389036E-2,1.252236869E-2
9.510531993E0,5.650337040E-2,2.015795931E-2,1.572931744E-2
9.519684545E0,6.016845629E-2,1.664558798E-2,1.878355257E-2
9.528837097E0,6.749862432E-2,2.199050039E-2,1.939439960E-2
9.537989649E0,7.299624383E-2,3.527642787E-2,2.305948362E-2
9.547142201E0,7.757759839E-2,6.658235192E-2,2.550287358E-2
9.556294753E0,7.543963939E-2,1.088835225E-1,2.305948362E-2
9.565447306E0,6.261184067E-2,1.588202864E-1,8.246437646E-3
9.574599858E0,4.993676394E-2,2.050919682E-1,-6.413896102E-3
9.583752410E0,4.611896724E-2,2.376195788E-1,-1.389677543E-2
9.592904962E0,5.405998230E-2,2.316638231E-1,-1.740914769E-2
9.602057514E0,7.055285573E-2,1.942494214E-1,-1.969982497E-2
9.611210066E0,9.559759498E-2,1.400367320E-1,-1.771457121E-2
9.620362618E0,1.262926757E-1,8.887827396E-2,-7.024743594E-3
9.629515170E0,1.566823274E-1,5.161659420E-2,7.788302377E-3
9.638667722E0,1.820324808E-1,3.313846514E-2,2.580829710E-2
9.647820274E0,2.005106062E-1,2.596100792E-2,4.352286831E-2
9.656972826E0,2.115058601E-1,2.779355086E-2,6.139015034E-2
9.666125378E0,2.163926363E-1,3.512371704E-2,7.482878864E-2
9.675277931E0,2.255553454E-1,3.817795217E-2,8.338065445E-2
9.684430483E0,2.489202619E-1,3.939964995E-2,8.918370306E-2
9.693583035E0,2.870981991E-1,3.894151375E-2,9.361234307E-2
9.702735587E0,3.370349705E-1,3.848337755E-2,1.014006436E-1
9.711888139E0,3.981196880E-1,2.779355086E-2,1.145338640E-1
9.721040691E0,4.604261220E-1,1.710372418E-2,1.357607991E-1
9.730193243E0,5.207473040E-1,3.970507067E-3,1.618745178E-1
9.739345743E0,5.806103349E-1,-1.557660475E-2,1.934858710E-1
9.748498295E0,6.459710002E-1,-4.321744293E-2,2.238755226E-1
9.757650847E0,7.188144922E-1,-6.459710002E-2,2.481566966E-1
9.766803399E0,8.038749695E-1,-8.429691941E-2,2.744231224E-1
9.775955951E0,9.051229358E-1,-1.224748790E-1,3.429907262E-1
9.785108503E0,1.023016453E0,-1.288887709E-1,4.781406820E-1
9.794261056E0,1.147171140E0,-1.589729935E-1,5.932853818E-1
9.803413608E0,1.287055135E0,-2.663294077E-1,6.927008033E-1
9.812566160E0,1.435796499E0,-4.083513916E-1,8.043331504E-1
9.821718712E0,1.573084354E0,-5.251759291E-1,9.294040799E-1
9.830858503E0,1.712204814E0,-6.209262609E-1,1.041036487E0
9.840023816E0,1.859571815E0,-7.264500856E-1,1.118461370E0
9.849176368E0,1.979297876E0,-8.406785131E-1,1.172521353E0
9.858316160E0,2.079324007E0,-9.420791864E-1,1.219709277E0
9.867481472E0,2.191414595E0,-1.033400893E0,1.254680276E0
9.876634024E0,2.324732065E0,-1.182600260E0,1.256360054E0
9.885773816E0,2.445679665E0,-1.383263588E0,1.203674555E0
9.894939128E0,2.514247417E0,-1.486649513E0,1.094791055E0
9.904091681E0,2.527685881E0,-1.344932914E0,9.501729012E-1
9.913231472E0,2.523562670E0,-1.030346632E0,8.162446618E-1
9.922396785E0,2.533947229E0,-7.081246972E-1,7.572978735E-1
9.931549337E0,2.504168272E0,-4.295783341E-1,7.983773947E-1
9.940689128E0,2.378944635E0,-3.035911024E-1,8.915315866E-1
9.949854441E0,2.212488890E0,-3.738385141E-1,1.011410356E0
9.959006993E0,2.099940062E0,-5.037962794E-1,1.099219680E0
9.968159545E0,2.046949148E0,-5.105155706E-1,1.116476059E0
9.977312045E0,1.996554255E0,-3.877353072E-1,1.087460876E0
9.986464597E0,1.942494273E0,-2.397575527E-1,1.050809979E0
9.995604441E0,1.917602301E0,-1.924168915E-1,1.001789451E0
1.000476970E1,1.912715435E0,-2.968717813E-1,9.286405444E-1
1.001392225E1,1.899124146E0,-4.808894992E-1,8.681666851E-1
1.002307481E1,1.862778664E0,-7.403468490E-1,8.223531246E-1
1.003222736E1,1.821088433E0,-1.023627281E0,7.971556783E-1
1.004137991E1,1.779856205E0,-1.228719234E0,7.560762167E-1
1.005053246E1,1.725490808E0,-1.325538516E0,6.897992492E-1
1.005968501E1,1.656770468E0,-1.342184186E0,6.203153729E-1
1.006883757E1,1.591562510E0,-1.324469566E0,5.581616759E-1
1.007799012E1,1.521620512E0,-1.266286373E0,5.045598149E-1
1.008714267E1,1.467560530E0,-1.188250661E0,4.613423944E-1
1.009629522E1,1.420219898E0,-1.110673070E0,4.181249440E-1
1.010544777E1,1.354248405E0,-1.014617324E0,3.675773442E-1
1.011460033E1,1.258498073E0,-8.968765140E-1,3.136700690E-1
1.012375288E1,1.139382839E0,-7.809682488E-1,2.626643181E-1
1.013290543E1,1.005607247E0,-6.814001203E-1,2.128802687E-1
1.014205798E1,8.828269839E-1,-5.824428797E-1,1.423274130E-1
1.015121054E1,7.834116220E-1,-5.045598149E-1,5.787777901E-2
1.016036309E1,6.853706241E-1,-4.062134326E-1,-2.351761982E-2
1.016951564E1,5.795413256E-1,-2.475458533E-1,-9.758284688E-2
1.017866819E1,4.604261220E-1,-6.123743951E-2,-1.597365588E-1
1.018782069E1,3.336753249E-1,7.650861889E-2,-1.936385781E-1
1.019697330E1,2.121167034E-1,1.551551968E-1,-2.018850148E-1
1.020612580E1,1.079672500E-1,2.171562016E-1,-1.910424829E-1
1.021527835E1,-2.901524538E-3,2.652604282E-1,-1.533226669E-1
1.022443090E1,-1.275143623E-1,2.574721277E-1,-1.102579311E-1
1.023358345E1,-2.458660156E-1,1.652341783E-1,-8.368607610E-2
1.024273600E1,-3.376458287E-1,3.069507517E-2,-7.986827940E-2
1.025188856E1,-3.979669809E-1,-1.188097894E-1,-8.261708915E-2
1.026104111E1,-4.335488379E-1,-2.901524603E-1,-7.849387079E-2
1.027019366E1,-4.559974670E-1,-4.720322192E-1,-7.605048269E-2
1.027934621E1,-4.854708612E-1,-6.120689511E-1,-8.964183182E-2
1.028849876E1,-5.428904891E-1,-6.700994372E-1,-1.088835225E-1
1.029763856E1,-5.720584393E-1,-6.392516494E-1,-1.085781008E-1
1.030680387E1,-4.459185004E-1,-5.540384650E-1,-7.467607409E-2
1.031595642E1,-1.927223057E-1,-4.908157587E-1,-3.878879920E-2
1.032509621E1,-1.969982497E-2,-5.436540842E-1,-4.489727318E-2
1.033426152E1,-6.154286116E-2,-5.998520255E-1,-7.681404054E-2
1.034341408E1,-2.165453583E-1,-5.204418898E-1,-5.176930502E-2
1.035256663E1,-3.787252903E-1,-2.648022771E-1,4.337015375E-2
1.036171918E1,-5.267030597E-1,5.467082933E-2,1.122431830E-1
1.037087173E1,-6.670452356E-1,4.437805414E-1,1.293469071E-1
1.038001152E1,-7.857022882E-1,8.961129189E-1,1.252236813E-1
1.038917684E1,-7.954758406E-1,1.159388065E0,1.316375881E-1
1.039832939E1,-7.243121266E-1,1.063179612E0,1.455343664E-1
1.040748194E1,-7.082774043E-1,7.840224504E-1,1.256818175E-1
1.041663449E1,-7.310314775E-1,6.525375843E-1,8.658760041E-2
1.042578704E1,-6.901046634E-1,6.907155514E-1,1.009425074E-1
1.043492684E1,-5.680879354E-1,7.404996157E-1,1.634016484E-1
1.044409215E1,-4.859289825E-1,7.707365155E-1,1.872246861E-1
1.045324465E1,-5.665608048E-1,7.557707429E-1,6.566607952E-2
1.046238449E1,-6.394043565E-1,1.858502775E-1,-1.969982386E-1
1.047154975E1,-6.936170459E-1,-6.351284385E-1,-3.652866483E-1
1.048070231E1,-9.258917570E-1,-1.018587828E0,-3.465031087E-1
1.048984210E1,-1.174048424E0,-8.788564801E-1,-2.347180545E-1
1.049900741E1,-1.307060480E0,-4.778352678E-1,-1.096470803E-1
1.050815996E1,-1.367228866E0,-6.062658876E-2,-1.740914769E-2
1.051729975E1,-1.334395885E0,1.615691036E-1,6.016845629E-2
1.052646507E1,-1.274532795E0,-7.681404054E-2,1.259872466E-1
1.053561762E1,-1.243685007E0,-4.488200247E-1,1.718007922E-1
1.054477017E1,-1.263995647E0,-6.062659025E-1,1.789782494E-1
1.055392272E1,-1.254985690E0,-5.772506595E-1,1.614163816E-1
1.056307527E1,-1.168856263E0,-4.173613787E-1,1.740914732E-1
1.057221507E1,-1.040120125E0,-3.633013964E-1,2.354816198E-1
1.058138038E1,-9.118422270E-1,-4.080459774E-1,3.127537966E-1
1.059053293E1,-8.461761475E-1,-3.312319219E-1,3.631486893E-1
1.059967272E1,-8.612946272E-1,-1.354553849E-1,3.501681983E-1
1.060883804E1,-8.933641315E-1,2.336490713E-2,2.838912606E-1
1.061799054E1,-9.095515609E-1,1.747023165E-1,1.797417998E-1
1.062714314E1,-8.751913905E-1,3.046600819E-1,8.460234851E-2
1.063629569E1,-7.924215794E-1,3.906368315E-1,9.468132630E-3
1.064544819E1,-7.383615971E-1,4.176668227E-1,-3.420744836E-2
1.065460074E1,-7.101099491E-1,4.573718905E-1,-6.581879407E-2
1.066375330E1,-6.792621613E-1,5.302154422E-1,-9.788827598E-2
1.067290585E1,-6.577298045E-1,6.288672686E-1,-1.265980899E-1
1.068205840E1,-6.670452356E-1,7.174401283E-1,-1.510319859E-1
1.069121095E1,-7.049177289E-1,7.545490861E-1,-1.837123185E-1
1.070036350E1,-7.624900937E-1,8.044858575E-1,-2.049392611E-1
1.070951606E1,-8.226585388E-1,9.217684865E-1,-2.127275616E-1
1.071866861E1,-8.446490765E-1,1.038134933E0,-2.264716178E-1
1.072782116E1,-8.564078808E-1,1.045770526E0,-2.351761907E-1
1.073697371E1,-8.782456517E-1,1.009730577E0,-2.347180545E-1
1.074612626E1,-8.929060102E-1,9.162709117E-1,-2.328855246E-1
1.075527882E1,-9.040539265E-1,8.570187092E-1,-2.493783981E-1
1.076443137E1,-9.326110482E-1,8.286142945E-1,-2.819060087E-1
1.077358392E1,-9.752176404E-1,7.873821259E-1,-3.084778786E-1
1.078273647E1,-1.024696231E0,8.101361990E-1,-3.356605768E-1
1.079188902E1,-1.046381354E0,9.112313986E-1,-3.620797098E-1
1.080104158E1,-1.066233873E0,1.072647810E0,-3.739912212E-1
1.081019413E1,-1.084559321E0,1.202147365E0,-3.968980014E-1
1.081934663E1,-1.092194915E0,1.317139387E0,-4.378247857E-1
1.082849918E1,-1.113269091E0,1.416249394E0,-4.815003574E-1
1.083765173E1,-1.126402378E0,1.461299300E0,-5.341859460E-1
1.084680429E1,-1.116934180E0,1.529714227E0,-5.877877474E-1
1.085595684E1,-1.124264359E0,1.676012158E0,-6.294780970E-1
1.086510939E1,-1.145644069E0,1.823989868E0,-6.694886088E-1
1.087424918E1,-1.161067963E0,1.919129372E0,-7.105680704E-1
1.088341449E1,-1.121821046E0,1.891335845E0,-7.566870451E-1
1.089256704E1,-1.032331824E0,1.753284335E0,-8.029587269E-1
1.090171960E1,-9.141329527E-1,1.597212911E0,-8.580876589E-1
1.091087215E1,-8.305995464E-1,1.516886473E0,-9.155073166E-1
1.092002470E1,-8.414421082E-1,1.455190897E0,-9.833113551E-1
1.092916449E1,-9.324583411E-1,1.375169873E0,-1.053558826E0
1.093832981E1,-9.115368128E-1,1.033095479E0,-1.045159698E0
1.094748236E1,-7.669187188E-1,7.406523228E-1,-9.445225596E-1
1.095662215E1,-6.923953891E-1,5.645755529E-1,-8.443436027E-1
1.096578746E1,-7.756233215E-1,5.465555787E-1,-8.283088803E-1
1.097494001E1,-8.985562921E-1,6.690304875E-1,-8.652651310E-1
1.098409257E1,-9.356653094E-1,8.322793841E-1,-8.797727823E-1
1.099324512E1,-8.736643195E-1,8.428165317E-1,-8.457180262E-1
1.100239767E1,-7.814263701E-1,6.261184216E-1,-7.887565494E-1
1.101155017E1,-7.278245091E-1,4.734066129E-1,-7.302678823E-1
1.102070277E1,-6.975875497E-1,3.603998721E-1,-6.694886088E-1
1.102985527E1,-6.864396334E-1,2.064663768E-1,-6.125270724E-1
1.103900783E1,-6.962131858E-1,8.842013776E-2,-5.716003180E-1
1.104816038E1,-6.988092661E-1,3.726168349E-2,-5.532749295E-1
1.105731293E1,-6.432221532E-1,2.473931387E-2,-5.473191738E-1
1.106646548E1,-5.685460567E-1,1.756185852E-2,-5.511369109E-1
1.107561804E1,-5.016583204E-1,5.024218559E-2,-5.592306852E-1
1.108477059E1,-4.285093546E-1,1.324011385E-1,-5.422796607E-1
1.109392314E1,-3.174878657E-1,2.418955117E-1,-4.816530645E-1
1.110307569E1,-1.362189353E-1,3.052709103E-1,-3.631486893E-1
1.111222824E1,1.284306347E-1,2.092151791E-1,-2.049392611E-1
1.112138080E1,4.625640810E-1,-8.246437646E-3,-3.939964995E-2
1.113053335E1,8.405258060E-1,-3.048127890E-1,1.026223376E-1
1.113968590E1,1.200467587E0,-5.259394646E-1,2.678565085E-1
1.114882569E1,1.510930657E0,-5.897729993E-1,4.721849263E-1
1.115799100E1,1.766723037E0,-4.556920528E-1,6.051968932E-1
1.116714356E1,1.978228807E0,-1.488940120E-1,6.925480962E-1
1.117629611E1,2.133383989E0,1.365243644E-1,8.797727823E-1
1.118544866E1,2.258455038E0,2.133384049E-1,1.202300072E0
1.119460121E1,2.352372885E0,1.395785958E-1,1.557813168E0
1.120374100E1,2.289302826E0,-1.119377613E-1,1.864763975E0
1.121290632E1,2.160566807E0,-7.090409398E-1,2.096275091E0
1.122205887E1,2.097496748E0,-1.387081385E0,2.238602400E0
1.123119866E1,2.136896372E0,-1.832847238E0,2.286248684E0
1.124036392E1,2.234479189E0,-2.040688038E0,2.262120008E0
1.124951647E1,2.309155464E0,-2.079476833E0,2.160566807E0
1.125865632E1,2.316943645E0,-2.118112803E0,1.993499994E0
1.126782158E1,2.287164927E0,-2.317401886E0,1.860182643E0
1.127697413E1,2.345348120E0,-2.555174112E0,1.749619246E0
1.128611392E1,2.504015684E0,-2.670471430E0,1.635543585E0
1.129527923E1,2.613509893E0,-2.611066580E0,1.545901656E0
1.130443178E1,2.543109894E0,-2.451024532E0,1.509250879E0
1.131357158E1,2.346111536E0,-2.254331827E0,1.511999726E0
1.132273689E1,2.186680555E0,-1.933942437E0,1.522231340E0
1.133188944E1,2.116127729E0,-1.414569497E0,1.506654739E0
1.134102923E1,2.067870617E0,-8.302941322E-1,1.472905397E0
1.135019454E1,2.000524759E0,-2.899997234E-1,1.424343109E0
1.135934710E1,1.913784504E0,7.055285573E-2,1.381431103E0
1.136848689E1,1.811009407E0,2.070772201E-1,1.326912999E0
1.137765220E1,1.718466043E0,1.675248593E-1,1.270714998E0
1.138680475E1,1.664864182E0,4.489727318E-2,1.230704546E0
1.139595731E1,1.634627223E0,-1.330119967E-1,1.183058381E0
1.140510986E1,1.594005942E0,-3.292466700E-1,1.120446563E0
1.141426241E1,1.526354551E0,-4.471401870E-1,1.036455035E0
1.142340220E1,1.448318839E0,-4.886777997E-1,9.187142849E-1
1.143256751E1,1.373490095E0,-5.381564498E-1,7.857022882E-1
1.144172007E1,1.304464340E0,-6.201626658E-1,6.575770974E-1
1.145087262E1,1.237118363E0,-7.406523228E-1,5.302154422E-1
1.146002512E1,1.150988936E0,-8.496885300E-1,4.014793634E-1
1.146917772E1,1.036302328E0,-9.095515609E-1,2.687727809E-1
1.147833022E1,9.019159675E-1,-9.275715351E-1,1.579040140E-1
1.148748277E1,7.490514517E-1,-8.819107413E-1,5.971032009E-2
1.149663533E1,5.856497884E-1,-7.569924593E-1,-2.336490713E-2
1.150578788E1,4.124746025E-1,-5.966450572E-1,-9.361234307E-2
1.151494043E1,2.266243398E-1,-4.647020400E-1,-1.495048702E-1
1.152409298E1,3.634541109E-2,-3.987305462E-1,-1.930277348E-1
1.153324554E1,-1.398840249E-1,-3.834593594E-1,-2.223484069E-1
1.154239809E1,-2.754921019E-1,-3.868190348E-1,-2.128802687E-1
1.155155064E1,-3.782671690E-1,-3.422271907E-1,-1.837123185E-1
1.156069043E1,-4.931064546E-1,-2.037175596E-1,-1.705790907E-1
1.156985574E1,-6.377245188E-1,-1.298050396E-2,-1.815743446E-1
1.157900830E1,-7.815790772E-1,1.094943732E-1,-2.229592502E-1
1.158816085E1,-9.237537384E-1,1.036913246E-1,-2.629697323E-1
1.159731340E1,-1.076160192E0,5.222744122E-2,-2.890834510E-1
1.160646595E1,-1.156792045E0,-5.344913341E-3,-3.159607351E-1
1.161560574E1,-1.054016948E0,1.221694518E-2,-3.284831047E-1
1.162477106E1,-6.896465421E-1,7.085828483E-2,-3.003841341E-1
1.163392361E1,-2.189887464E-1,1.314848661E-1,-2.293731421E-1
1.164306340E1,-1.221694499E-1,7.956285775E-2,-1.498102844E-1
1.165222871E1,-5.865660906E-1,3.329117596E-1,-1.777565479E-1
1.166138126E1,-1.317292094E0,1.316833973E0,-4.193466306E-1
1.167052106E1,-1.710525036E0,1.561783671E0,-7.886037827E-1
1.167968637E1,-1.756644011E0,2.669402659E-1,-1.029888511E0
1.168883887E1,-1.758018374E0,2.443389036E-3,-8.739697337E-1
1.169797871E1,-1.665322304E0,1.340046167E0,-4.987567961E-1
1.170714397E1,-1.706707239E0,2.207907438E0,-4.282039404E-1
1.171629652E1,-1.828113079E0,1.941425323E0,-5.925218463E-1
1.172543632E1,-1.829640269E0,1.227802992E0,-6.140542030E-1
1.173460163E1,-1.631420374E0,3.524588645E-1,-4.850127101E-1
1.174375418E1,-1.506654739E0,-3.866663277E-1,-4.608842432E-1
1.175290673E1,-1.553384542E0,-9.035958052E-1,-5.861079693E-1
1.176205929E1,-1.552162886E0,-1.167634487E0,-6.108472347E-1
1.177121184E1,-1.465728045E0,-1.109145880E0,-4.760027230E-1
1.178035163E1,-1.392731786E0,-8.919897079E-1,-2.869454920E-1
1.178951694E1,-1.379903913E0,-6.565080881E-1,-1.594311297E-1
1.179866949E1,-1.389982939E0,-3.581092060E-1,-1.304158866E-1
1.180782204E1,-1.374559045E0,8.643488586E-2,-1.995943487E-1
1.181697460E1,-1.342031479E0,4.390464723E-1,-3.083251417E-1
1.182612715E1,-1.307976723E0,6.033644080E-1,-3.997995257E-1
1.183527970E1,-1.299119353E0,6.742226481E-1,-4.517215490E-1
1.184443225E1,-1.317139387E0,7.693621516E-1,-4.763081372E-1
1.185358481E1,-1.324011445E0,8.483141065E-1,-4.770717025E-1
1.186273736E1,-1.302937150E0,8.965710402E-1,-4.622586668E-1
1.187188991E1,-1.286749721E0,9.474241138E-1,-4.390464723E-1
1.188104241E1,-1.248266339E0,9.710944295E-1,-4.124746025E-1
1.189019496E1,-1.169314384E0,1.031415582E0,-4.004103839E-1
1.189934751E1,-1.118919492E0,1.114032745E0,-3.976615667E-1
1.190850007E1,-1.100288630E0,1.185196400E0,-4.243861437E-1
1.191765262E1,-1.096623540E0,1.265064716E0,-4.677563012E-1
1.192680517E1,-1.094638348E0,1.356539011E0,-5.210527182E-1
1.193595772E1,-1.116323352E0,1.464658976E0,-5.890094638E-1
1.194511027E1,-1.136328578E0,1.590951681E0,-6.490252018E-1
1.195426283E1,-1.130983710E0,1.710677743E0,-6.931589246E-1
1.196341538E1,-1.129762053E0,1.800472260E0,-7.212579250E-1
1.197256793E1,-1.182600260E0,1.870108843E0,-7.553126216E-1
1.198172048E1,-1.219861984E0,1.909050345E0,-7.983773947E-1
1.199087304E1,-1.174048424E0,1.834221601E0,-8.278507590E-1
1.200002559E1,-1.072036982E0,1.727170587E0,-8.295305967E-1
1.200917814E1,-9.969027042E-1,1.655701518E0,-8.214368224E-1
1.201833069E1,-9.987352490E-1,1.669445515E0,-8.319739699E-1
1.202748324E1,-9.895725846E-1,1.821699262E0,-8.741224408E-1
1.203663580E1,-8.816053271E-1,1.965401053E0,-8.826742768E-1
1.204578835E1,-7.221741676E-1,1.915616989E0,-8.655705452E-1
1.205494090E1,-6.438329816E-1,1.927528501E0,-9.145910740E-1
1.206409345E1,-6.853706241E-1,1.853768706E0,-9.910996556E-1
1.207324600E1,-8.188407421E-1,1.711746693E0,-1.039509296E0
1.208239850E1,-9.339854717E-1,1.625311852E0,-1.060430884E0
1.209155106E1,-8.783983588E-1,1.544069171E0,-1.039814711E0
1.210070361E1,-6.671979427E-1,1.185043693E0,-9.562813640E-1
1.210985616E1,-5.179984570E-1,5.763344169E-1,-8.515210748E-1
1.211900871E1,-6.125270724E-1,2.220429778E-1,-8.196043372E-1
1.212816126E1,-7.911999226E-1,7.895200700E-2,-7.963921428E-1
1.213730106E1,-8.968765140E-1,5.909947306E-2,-7.360709310E-1
1.214646637E1,-9.237537384E-1,6.872031838E-3,-6.843016148E-1
1.215561892E1,-8.814526200E-1,-9.055810422E-2,-6.734591126E-1
1.216475871E1,-7.976137996E-1,-2.296785712E-1,-6.734591126E-1
1.217392402E1,-7.693621516E-1,-2.188360244E-1,-6.885775924E-1
1.218307658E1,-7.951704264E-1,-1.605001241E-1,-6.893411279E-1
1.219222913E1,-7.721109390E-1,-1.469087601E-1,-6.464291215E-1
1.220138168E1,-6.688777208E-1,-1.495048702E-1,-5.601469278E-1
1.221053423E1,-5.033381581E-1,-1.579040140E-1,-4.588989913E-1
1.221968678E1,-3.316900730E-1,-1.656923145E-1,-3.721587062E-1
1.222883934E1,-1.575985998E-1,-2.415900975E-1,-2.823641598E-1
1.223799189E1,1.664558798E-2,-3.326063454E-1,-1.882936656E-1
1.224714444E1,2.110477239E-1,-3.348970115E-1,-1.032331884E-1
1.225629699E1,4.329380095E-1,-3.524588645E-1,-4.062134400E-2
1.226544955E1,6.418477297E-1,-4.369085133E-1,1.160609815E-2
1.227460210E1,8.104416132E-1,-5.164713860E-1,8.918370306E-2
1.228375465E1,9.335273504E-1,-4.025483429E-1,1.913478971E-1
1.229290715E1,1.057529330E0,-1.204896197E-1,2.964136302E-1
1.230205970E1,1.233147860E0,1.007898003E-1,4.123218954E-1
1.231121225E1,1.451525807E0,1.165191159E-1,5.121954083E-1
1.232036481E1,1.688687205E0,4.581354558E-3,6.128324866E-1
1.232950460E1,1.906607032E0,-3.155026138E-1,7.941014171E-1
1.233866991E1,2.035343170E0,-8.864920735E-1,1.122279167E0
1.234782246E1,2.103757858E0,-1.392884493E0,1.493674278E0
1.235696225E1,2.067259789E0,-1.725796223E0,1.753131628E0
1.236612757E1,2.041756868E0,-2.079934835E0,1.836359620E0
1.237528012E1,2.134147644E0,-2.526617050E0,1.911799192E0
1.238441991E1,2.346875191E0,-2.733846903E0,2.018544674E0
1.239358522E1,2.603889227E0,-2.689102411E0,2.083141804E0
1.240273777E1,2.792488337E0,-2.532267332E0,2.046491146E0
1.241187757E1,2.858765125E0,-2.531351089E0,1.964637518E0
1.242104288E1,2.836011171E0,-2.708649397E0,1.899887681E0
1.243019543E1,2.821808815E0,-2.821656227E0,1.837581277E0
1.243933522E1,2.825932026E0,-2.712161779E0,1.796501756E0
1.244850054E1,2.784699917E0,-2.427812338E0,1.786880970E0
1.245765309E1,2.698875904E0,-2.009076595E0,1.804900885E0
1.246679288E1,2.636416674E0,-1.586523056E0,1.852394342E0
1.247595819E1,2.593962908E0,-1.172521353E0,1.870719671E0
1.248511074E1,2.564184189E0,-7.185090780E-1,1.824448109E0
1.249425054E1,2.513330936E0,-2.933593988E-1,1.741830945E0
1.250341585E1,2.419871330E0,5.558710173E-2,1.669445515E0
1.251256840E1,2.303046942E0,2.577775419E-1,1.614774704E0
1.252170819E1,2.214473963E0,3.280249834E-1,1.579345584E0
1.253087345E1,2.186680555E0,2.855710983E-1,1.558424115E0
1.254002600E1,2.174158096E0,1.082726792E-1,1.499935389E0
1.254916580E1,2.127275467E0,-1.779092699E-1,1.389219403E0
1.255833111E1,2.046338320E0,-4.485146105E-1,1.253305912E0
1.256748366E1,1.967386365E0,-7.757760286E-1,1.103953719E0
1.257662345E1,1.905996203E0,-1.068371892E0,9.083298445E-1
1.258578876E1,1.826586008E0,-1.256665468E0,6.806365848E-1
1.259494132E1,1.718466043E0,-1.352263093E0,4.857762754E-1
1.260408111E1,1.600572586E0,-1.394716978E0,3.206948042E-1
1.261324642E1,1.463131905E0,-1.399603724E0,1.768402755E-1
1.262239897E1,1.307976723E0,-1.364174604E0,5.787777901E-2
1.263153876E1,1.149156451E0,-1.270256877E0,-4.046862945E-2
1.264070408E1,9.851438999E-1,-1.132205367E0,-1.375933439E-1
1.264985663E1,8.021951914E-1,-9.611681700E-1,-2.304421216E-1
1.265899642E1,5.838172436E-1,-7.768449783E-1,-3.164188862E-1
1.266816173E1,3.353551328E-1,-5.882459283E-1,-3.750602305E-1
1.267731429E1,7.498150319E-2,-4.242334068E-1,-3.904841244E-1
1.268645408E1,-1.881409585E-1,-2.861819267E-1,-3.991886973E-1
1.269561939E1,-4.625640810E-1,-1.316375881E-1,-4.127800465E-1
1.270477194E1,-7.522584200E-1,1.847812906E-2,-4.112529159E-1
1.271391173E1,-1.017060637E0,1.282779276E-1,-4.230117202E-1
1.272307704E1,-1.128082156E0,2.315111160E-1,-4.795151055E-1
1.273222960E1,-9.856020808E-1,5.853443742E-1,-5.202891231E-1
1.274136939E1,-6.236750484E-1,1.128998399E0,-5.004366040E-1
1.275053465E1,-5.978667736E-1,1.369825006E0,-3.984251320E-1
1.275968720E1,-1.312252641E0,1.401589036E0,-4.639385045E-1
1.276882704E1,-2.314194918E0,1.933331609E0,-7.644753456E-1
1.277799231E1,-2.775995255E0,1.870566964E0,-1.049130201E0
1.278714486E1,-2.704831600E0,9.688037634E-1,-1.002858520E0
1.279628470E1,-2.222567797E0,1.391051888E0,-4.709632397E-1
1.280544996E1,-1.656159639E0,2.353289127E0,-1.244601309E-1
1.281460251E1,-1.384638071E0,1.979297876E0,-3.190149665E-1
1.282374231E1,-1.613247633E0,5.737382770E-1,-6.047387719E-1
1.283290762E1,-1.861709714E0,-3.950654566E-1,-6.009209752E-1
1.284206017E1,-1.762752533E0,-8.861866593E-1,-5.155550838E-1
1.285119996E1,-1.560103893E0,-1.507112861E0,-6.552863717E-1
1.286036527E1,-1.444959164E0,-1.762447000E0,-8.289197087E-1
1.286951783E1,-1.387234092E0,-1.461604834E0,-8.012788892E-1
1.287865762E1,-1.392273664E0,-1.045923233E0,-6.478035450E-1
1.288782293E1,-1.416249394E0,-5.668662786E-1,-4.839437306E-1
1.289697548E1,-1.403116107E0,5.344913341E-3,-3.939964771E-1
1.290612804E1,-1.390899181E0,5.138752460E-1,-4.240806997E-1
1.291528059E1,-1.432436824E0,9.394831061E-1,-5.407525301E-1
1.292443314E1,-1.482984424E0,1.263842940E0,-6.409314871E-1
1.293357293E1,-1.486191392E0,1.430146098E0,-6.594096422E-1
1.294273824E1,-1.462673783E0,1.473058224E0,-6.152759194E-1
1.295189080E1,-1.443279386E0,1.417318344E0,-5.632011890E-1
1.296103059E1,-1.416249394E0,1.271020412E0,-5.170822144E-1
1.297019585E1,-1.379140377E0,1.163969398E0,-4.905103445E-1
1.297934840E1,-1.329661727E0,1.129151106E0,-4.601207078E-1
1.298850095E1,-1.306296825E0,1.054016948E0,-4.202629030E-1
1.299765350E1,-1.294232607E0,9.306257963E-1,-3.956763148E-1
1.300680606E1,-1.267966151E0,8.275453448E-1,-4.033119082E-1
1.301595861E1,-1.254832983E0,8.052493930E-1,-4.289674759E-1
1.302511116E1,-1.243379593E0,8.478559852E-1,-4.544703662E-1
1.303426371E1,-1.222610831E0,9.550597072E-1,-4.856235683E-1
1.304341626E1,-1.219861984E0,1.086849928E0,-5.357130170E-1
1.305256882E1,-1.183822036E0,1.233758807E0,-6.106945276E-1
1.306172137E1,-1.151447058E0,1.382194638E0,-6.985038519E-1
1.307087392E1,-1.164580345E0,1.512152433E0,-7.701256871E-1
1.308002647E1,-1.182752967E0,1.612636805E0,-7.995990515E-1
1.308917902E1,-1.211462855E0,1.661962628E0,-7.992936373E-1
1.309833158E1,-1.202300072E0,1.724116445E0,-7.840224504E-1
1.310748413E1,-1.162595034E0,1.771762490E0,-7.684458494E-1
1.311663668E1,-1.117850542E0,1.713579297E0,-7.418739796E-1
1.312578923E1,-1.051420808E0,1.639208674E0,-7.041541934E-1
1.313494178E1,-9.756757617E-1,1.561630964E0,-6.858287454E-1
1.314409434E1,-9.202414155E-1,1.502684236E0,-6.872031689E-1
1.315324689E1,-8.919897079E-1,1.460841179E0,-7.247702479E-1
1.316239944E1,-8.857285380E-1,1.413653255E0,-7.942541242E-1
1.317155199E1,-8.641961813E-1,1.374406338E0,-8.490777016E-1
1.318070449E1,-8.675557971E-1,1.366312623E0,-8.753440976E-1
1.318985704E1,-9.084826112E-1,1.302937150E0,-8.915315866E-1
1.319900960E1,-8.974873424E-1,1.194969893E0,-9.060391784E-1
1.320816220E1,-8.134958148E-1,1.058903694E0,-9.229902029E-1
1.321731470E1,-6.650599241E-1,7.149966955E-1,-9.126058221E-1
1.322646725E1,-5.858024955E-1,4.489727318E-1,-8.904625773E-1
1.323561981E1,-6.314633489E-1,3.735330999E-1,-8.797727823E-1
1.324477236E1,-7.062921524E-1,2.571666837E-1,-8.629744649E-1
1.325392491E1,-7.079719901E-1,2.163926363E-1,-8.177717924E-1
1.326307746E1,-6.096255779E-1,2.174616307E-1,-7.426375747E-1
1.327223001E1,-5.057815313E-1,1.606528312E-1,-6.807892919E-1
1.328138257E1,-4.312581718E-1,-1.145338640E-2,-6.361974478E-1
1.329053512E1,-3.564293683E-1,-1.273616552E-1,-5.714476109E-1
1.329968767E1,-2.799207568E-1,-1.058292910E-1,-4.921901822E-1
1.330884022E1,-1.837123185E-1,-7.284353673E-2,-4.341596961E-1
1.331799277E1,-1.611109674E-1,-4.581354558E-2,-4.413371384E-1
1.332714533E1,-2.614426315E-1,4.184303805E-2,-5.062396526E-1
1.333629788E1,-3.778090179E-1,1.125486046E-1,-5.473191738E-1
1.334543767E1,-4.306473136E-1,8.964183182E-2,-5.349494815E-1
1.335460298E1,-4.062134326E-1,-4.031591862E-2,-4.912739098E-1
1.336375554E1,-2.938175201E-1,-2.423536479E-1,-4.207210541E-1
1.337290809E1,-1.215586066E-1,-4.569137394E-1,-3.289412558E-1
1.338206064E1,5.161659420E-2,-6.471926570E-1,-2.244863659E-1
1.339121319E1,2.212794125E-1,-7.988355160E-1,-9.972081333E-2
1.340035298E1,4.143071473E-1,-9.486457705E-1,5.864133686E-2
1.340951830E1,6.407787800E-1,-1.065012217E0,2.434226274E-1
1.341867080E1,9.278770089E-1,-1.112963676E0,3.658975065E-1
1.342781064E1,1.277739763E0,-9.688037634E-1,4.091149569E-1
1.343697590E1,1.614621997E0,-6.591041684E-1,4.283566475E-1
1.344612845E1,1.888586998E0,-3.034383655E-1,4.898995161E-1
1.345528100E1,2.085127115E0,-1.695101149E-2,6.456655264E-1
1.346443356E1,2.187443972E0,8.063183725E-2,8.849649429E-1
1.347358611E1,2.233257532E0,5.711421743E-2,1.182752967E0
1.348272590E1,2.220582485E0,4.123219103E-2,1.453205585E0
1.349189121E1,2.109255552E0,-6.368082762E-2,1.639972210E0
1.350104376E1,2.000219345E0,-4.888305068E-1,1.760461807E0
1.351018356E1,1.979755998E0,-1.022252917E0,1.884616494E0
1.351934887E1,2.112004280E0,-1.475806952E0,2.021446228E0
1.352850142E1,2.344737291E0,-1.847507477E0,2.140561581E0
1.353764121E1,2.549523830E0,-2.226080179E0,2.174616337E0
1.354680652E1,2.651840687E0,-2.700861216E0,2.142699480E0
1.355595908E1,2.677954435E0,-3.244668007E0,2.076727867E0
1.356509887E1,2.687727928E0,-3.595752478E0,1.952573299E0
1.357426418E1,2.680092335E0,-3.510844707E0,1.807649732E0
1.358341673E1,2.616716862E0,-3.060497522E0,1.725032687E0
1.359255652E1,2.534558058E0,-2.469502687E0,1.710066915E0
1.360172184E1,2.490118742E0,-1.973036647E0,1.717244387E0
1.361087439E1,2.487828255E0,-1.511999726E0,1.707165360E0
1.362002694E1,2.483399630E0,-9.246700406E-1,1.674943209E0
1.362917949E1,2.440487623E0,-3.179459870E-1,1.669292808E0
1.363833199E1,2.356190681E0,1.314848661E-1,1.689756274E0
1.364747184E1,2.237380743E0,3.924693763E-1,1.729003191E0
1.365663710E1,2.107881069E0,4.430169761E-1,1.757407546E0
1.366578965E1,2.011519909E0,2.843494117E-1,1.740303874E0
1.367492949E1,1.960208893E0,5.497625470E-2,1.667613029E0
1.368409475E1,1.946770191E0,-1.925695986E-1,1.539335132E0
1.369324731E1,1.930430055E0,-4.952444136E-1,1.375780702E0
1.370238710E1,1.874690294E0,-8.014315963E-1,1.196038961E0
1.371155241E1,1.793447495E0,-1.087308168E0,1.021031141E0
1.372070496E1,1.711135864E0,-1.322026134E0,8.466343284E-1
1.372984475E1,1.633100152E0,-1.468018651E0,6.696413159E-1
1.373901007E1,1.552773714E0,-1.504822254E0,5.054761171E-1
1.374816262E1,1.453052878E0,-1.448929667E0,3.643703759E-1
1.375730241E1,1.324622273E0,-1.306144118E0,2.484621257E-1
1.376646772E1,1.160304427E0,-1.092805743E0,1.641651988E-1
1.377562027E1,9.597937465E-1,-8.319739699E-1,1.014006436E-1
1.378476007E1,7.374453545E-1,-6.016845703E-1,5.085303262E-2
1.379392538E1,5.068505406E-1,-4.479037523E-1,7.635590620E-3
1.380307793E1,2.745758295E-1,-3.616215885E-1,-3.252761811E-2
1.381221772E1,4.932591692E-2,-3.127537966E-1,-6.658235192E-2
1.382138304E1,-1.669140160E-1,-2.469350100E-1,-8.704573661E-2
1.383053559E1,-3.691044450E-1,-1.218640283E-1,-7.391251624E-2
1.383967538E1,-5.380037427E-1,9.055810422E-2,-7.773031294E-2
1.384884069E1,-6.574243903E-1,3.077143133E-1,-1.159082651E-1
1.385799324E1,-7.440119386E-1,4.495835900E-1,-1.856975704E-1
1.386713304E1,-8.093726039E-1,4.840964675E-1,-2.747285664E-1
1.387629830E1,-7.769976854E-1,4.905103445E-1,-3.550549746E-1
1.388545085E1,-5.561764240E-1,5.563291311E-1,-4.121691883E-1
1.389459069E1,-2.472404242E-1,5.483881235E-1,-4.124746025E-1
1.390375595E1,-9.269607067E-2,4.735593498E-1,-3.385621011E-1
1.391290850E1,-4.083513916E-1,8.955020905E-1,-3.436015844E-1
1.392204830E1,-1.076312900E0,1.407392025E0,-4.475983381E-1
1.393121361E1,-1.597365618E0,8.793146014E-1,-6.122216582E-1
1.394036616E1,-2.008771181E0,-1.959292591E-1,-6.423059106E-1
1.394950595E1,-1.911646485E0,1.855448484E-1,-3.396310806E-1
1.395867126E1,-1.463895440E0,1.718618751E0,-8.292251825E-2
1.396782382E1,-1.534448266E0,2.355579853E0,-3.562766612E-1
1.397696361E1,-1.788866162E0,1.466644287E0,-8.825215697E-1
1.398612892E1,-1.836817741E0,4.563029110E-1,-9.799517393E-1
1.399528147E1,-1.814216375E0,-6.108472589E-4,-7.143858671E-1
1.400442126E1,-1.794669271E0,-6.139015034E-2,-5.242596865E-1
1.401358658E1,-1.735417008E0,-9.559759498E-2,-5.005893111E-1
1.402273913E1,-1.592173338E0,-4.317162931E-1,-5.445703268E-1
1.403187892E1,-1.442821264E0,-8.099834919E-1,-5.627430081E-1
1.404104423E1,-1.401894450E0,-9.164236188E-1,-5.233433843E-1
1.405019678E1,-1.413805962E0,-7.281299233E-1,-4.416425824E-1
1.405933658E1,-1.419150949E0,-4.369085133E-1,-3.845283389E-1
1.406850189E1,-1.399756551E0,-1.849340051E-1,-3.663556576E-1
1.407765444E1,-1.417165637E0,-2.229592577E-2,-3.866663277E-1
1.408680699E1,-1.427091956E0,7.696675509E-2,-4.362976551E-1
1.409595955E1,-1.394716978E0,1.281252056E-1,-4.807367921E-1
1.410511204E1,-1.328440070E0,1.160609797E-1,-5.150969625E-1
1.411425189E1,-1.252694964E0,1.214058921E-1,-5.193728805E-1
1.412341715E1,-1.195428133E0,1.240019947E-1,-4.963133931E-1
1.413256970E1,-1.143506050E0,1.611109674E-1,-4.563029110E-1
1.414172225E1,-1.093111157E0,2.234173864E-1,-4.187358022E-1
1.415087481E1,-1.082268596E0,3.066453338E-1,-3.888042867E-1
1.416002736E1,-1.069440842E0,4.430169761E-1,-3.423798978E-1
1.416917991E1,-1.076312900E0,5.636593103E-1,-3.156553209E-1
1.417833246E1,-1.081199646E0,5.690042377E-1,-3.213056624E-1
1.418748501E1,-1.112200141E0,6.003101468E-1,-3.239017725E-1
1.419663757E1,-1.133885264E0,6.780404449E-1,-3.223746419E-1
1.420579012E1,-1.125638843E0,7.310314775E-1,-3.350497186E-1
1.421494267E1,-1.142742515E0,8.037222624E-1,-3.804051280E-1
1.422409522E1,-1.156181097E0,8.866447806E-1,-4.398100376E-1
1.423324777E1,-1.168092728E0,9.364288449E-1,-5.004366040E-1
1.424240033E1,-1.176491857E0,9.935430884E-1,-5.335750580E-1
1.425155288E1,-1.202911019E0,1.057987452E0,-5.520532131E-1
1.426070543E1,-1.250557065E0,1.083795786E0,-5.688515306E-1
1.426985798E1,-1.296370625E0,1.121515512E0,-5.740436912E-1
1.427901054E1,-1.321262598E0,1.216807723E0,-5.725166202E-1
1.428816309E1,-1.317444801E0,1.347529054E0,-5.879405141E-1
1.429731564E1,-1.308892965E0,1.446180940E0,-6.209262609E-1
1.430646819E1,-1.266439080E0,1.458855987E0,-6.371136904E-1
1.431562074E1,-1.183516622E0,1.499935389E0,-6.536065936E-1
1.432477330E1,-1.127624035E0,1.529408813E0,-6.855233312E-1
1.433392585E1,-1.052489877E0,1.640124917E0,-7.565343380E-1
1.434307835E1,-1.002553105E0,1.828418612E0,-8.620582223E-1
1.435223095E1,-9.408574700E-1,1.940203547E0,-9.623898268E-1
1.436138345E1,-8.145648241E-1,1.930430055E0,-1.036607742E0
1.437053600E1,-7.000309825E-1,1.957612753E0,-1.075549364E0
1.437968856E1,-6.600204706E-1,1.960667014E0,-1.067913771E0
1.438882840E1,-6.395570636E-1,1.716175318E0,-1.033400893E0
1.439799366E1,-5.974085927E-1,1.386317849E0,-9.816315174E-1
1.440714621E1,-5.413633585E-1,1.002247691E0,-9.075663090E-1
1.441629876E1,-5.160132051E-1,5.958815217E-1,-7.863131166E-1
1.442545132E1,-5.644228458E-1,4.491254389E-1,-7.088882327E-1
1.443460387E1,-5.981721878E-1,2.834331393E-1,-6.766660213E-1
1.444374366E1,-6.161921620E-1,1.580567211E-1,-6.864396334E-1
1.445290897E1,-6.204680800E-1,1.675248593E-1,-7.159129977E-1
1.446206152E1,-5.945070982E-1,1.831014603E-1,-7.473716140E-1
1.447121408E1,-5.355603099E-1,1.464506239E-1,-7.592831254E-1
1.448036663E1,-4.491254389E-1,5.207473040E-2,-7.285880446E-1
1.448951918E1,-3.310792148E-1,-1.017060652E-1,-6.592568755E-1
1.449865897E1,-1.759240031E-1,-1.956238300E-1,-5.421269536E-1
1.450782429E1,-4.550812021E-2,-1.834068894E-1,-4.001049399E-1
1.451697684E1,4.520269856E-2,-9.956810623E-2,-2.554868758E-1
1.452612939E1,1.724116355E-1,-1.206423342E-2,-1.006370857E-1
1.453528194E1,3.617742956E-1,7.635590737E-4,2.397575416E-2
1.454443449E1,5.858024955E-1,-5.879404768E-2,8.246438205E-2
1.455358704E1,8.289197087E-1,-3.665083647E-2,1.116323397E-1
1.456273960E1,1.074022174E0,9.712471068E-2,1.553079188E-1
1.457189215E1,1.277281642E0,3.712424338E-1,2.261662036E-1
1.458104470E1,1.439919710E0,6.583406329E-1,3.669664860E-1
1.459019720E1,1.601641536E0,8.034168482E-1,5.926745534E-1
1.459934975E1,1.778939962E0,8.499939442E-1,8.528954983E-1
1.460848960E1,1.874995708E0,5.581616759E-1,1.080436110E0
1.461765486E1,1.899124146E0,-1.177408099E-1,1.293010950E0
1.462680741E1,1.949060917E0,-8.519791961E-1,1.510472536E0
1.463594725E1,2.043589592E0,-1.526659966E0,1.715106368E0
1.464511251E1,2.145601034E0,-2.151862144E0,1.894542813E0
1.465426507E1,2.236769915E0,-2.682230234E0,2.004953384E0
1.466340486E1,2.250514030E0,-3.032856703E0,2.002204657E0
1.467257017E1,2.221498728E0,-3.204351902E0,1.912410021E0
1.468172272E1,2.284415960E0,-3.291550398E0,1.776649237E0
1.469086251E1,2.418955088E0,-3.170755386E0,1.635238171E0
1.470002783E1,2.483246803E0,-2.734152317E0,1.548039675E0
1.470918038E1,2.445068836E0,-2.181641102E0,1.553537250E0
1.471832017E1,2.333741903E0,-1.671125412E0,1.602405071E0
1.472748548E1,2.194468737E0,-1.131289124E0,1.643179178E0
1.473663804E1,2.092151880E0,-5.902311802E-1,1.676775694E0
1.474579059E1,2.065274477E0,-1.531699449E-1,1.734348059E0
1.475494314E1,2.093373537E0,1.803526580E-1,1.795432806E0
1.476409569E1,2.101161957E0,4.243861437E-1,1.795890927E0
1.477323548E1,2.041451454E0,4.332434237E-1,1.744732499E0
1.478240080E1,1.954100370E0,2.478512824E-1,1.688687205E0
1.479155335E1,1.896833420E0,-2.962609194E-2,1.650662065E0
1.480069314E1,1.881409526E0,-4.120164812E-1,1.584843159E0
1.480985845E1,1.874690294E0,-7.220214605E-1,1.475806952E0
1.481901100E1,1.878508091E0,-9.509364963E-1,1.344627500E0
1.482815080E1,1.890725017E0,-1.152210593E0,1.208103180E0
1.483731611E1,1.882784009E0,-1.300341129E0,1.065928459E0
1.484646866E1,1.851019859E0,-1.405712247E0,9.411629438E-1
1.485560845E1,1.801541328E0,-1.483900666E0,8.345700502E-1
1.486477371E1,1.717702508E0,-1.511694312E0,7.295043468E-1
1.487392626E1,1.597823739E0,-1.485733271E0,6.053496599E-1
1.488306611E1,1.454732776E0,-1.401589036E0,4.595098495E-1
1.489223137E1,1.292400122E0,-1.249946237E0,3.092414141E-1
1.490138392E1,1.116170645E0,-1.059056401E0,1.779092699E-1
1.491052371E1,9.336800575E-1,-8.519791961E-1,6.887302548E-2
1.491968902E1,7.467607856E-1,-6.531484127E-1,-2.962609194E-2
1.492884158E1,5.367820263E-1,-4.923428893E-1,-1.270562261E-1
1.493798137E1,3.061871827E-1,-3.869717419E-1,-1.885990947E-1
1.494714668E1,8.780929446E-2,-2.722851634E-1,-2.159345001E-1
1.495629923E1,-1.320957243E-1,-8.750387281E-2,-1.925695986E-1
1.496543902E1,-3.553603888E-1,1.803526580E-1,-1.663031727E-1
1.497460434E1,-5.745018721E-1,4.433223903E-1,-1.795890927E-1
1.498375689E1,-8.136485219E-1,5.975613594E-1,-2.327328026E-1
1.499289668E1,-1.092042208E0,6.058077812E-1,-3.109212518E-1
1.500206199E1,-1.327065706E0,5.573981404E-1,-4.445441067E-1
1.501121455E1,-1.340962410E0,6.878139973E-1,-6.430694461E-1
1.502035434E1,-1.001636744E0,1.229482770E0,-8.438854814E-1
1.502951965E1,-6.458182931E-1,1.800472260E0,-8.997780085E-1
1.503867220E1,-1.104869962E0,1.254680276E0,-6.772769094E-1
1.504781199E1,-2.217833757E0,4.304946065E-1,-4.616478086E-1
1.505697731E1,-3.050876617E0,6.827745438E-1,-4.842491746E-1
1.506612986E1,-2.912977934E0,1.597976446E0,-4.375193417E-1
1.507526965E1,-2.009534836E0,2.385663986E0,-1.673721522E-1
1.508443491E1,-1.219556570E0,2.184542418E0,-1.291942000E-1
1.509358746E1,-1.240019917E0,9.619317055E-1,-4.362976551E-1
1.510272731E1,-1.922336340E0,-4.127800465E-1,-6.415423155E-1
1.511189257E1,-2.062373161E0,-1.094485521E0,-5.053234100E-1
1.512104512E1,-1.735264301E0,-1.273158431E0,-3.727695346E-1
1.513018491E1,-1.434574842E0,-1.385401607E0,-4.187358022E-1
1.513935022E1,-1.229635477E0,-1.591562510E0,-4.947862923E-1
1.514850277E1,-1.278961420E0,-1.694337606E0,-5.635066032E-1
1.515764257E1,-1.435643792E0,-1.533837438E0,-5.902311802E-1
1.516680788E1,-1.430298805E0,-1.220472813E0,-5.940489769E-1
1.517596043E1,-1.344932914E0,-7.553126216E-1,-6.488724947E-1
1.518511298E1,-1.301104665E0,-1.458397806E-1,-7.539382577E-1
1.519426554E1,-1.266591787E0,3.840702176E-1,-8.561024070E-1
1.520341809E1,-1.260330558E0,7.258392572E-1,-8.672503829E-1
1.521255788E1,-1.289040446E0,1.027292371E0,-8.023478985E-1
1.522172319E1,-1.302631736E0,1.328898191E0,-7.093463540E-1
1.523087574E1,-1.287207842E0,1.567281365E0,-6.378772259E-1
1.524001554E1,-1.287818789E0,1.768708229E0,-6.068767309E-1
1.524918085E1,-1.296370625E0,1.824753523E0,-5.905365944E-1
1.525833340E1,-1.298508525E0,1.769471765E0,-5.569399595E-1
1.526747319E1,-1.317292094E0,1.560562015E0,-4.842491746E-1
1.527663850E1,-1.301104665E0,1.293316364E0,-4.094203711E-1
1.528579106E1,-1.280335903E0,1.076618314E0,-3.571929336E-1
1.529494361E1,-1.295148849E0,8.812998533E-1,-3.645231128E-1
1.530409616E1,-1.296217918E0,6.630746722E-1,-4.040754735E-1
1.531324866E1,-1.300493836E0,5.494571328E-1,-4.590517282E-1
1.532240126E1,-1.305685997E0,4.792096615E-1,-5.401417017E-1
1.533155376E1,-1.291636586E0,4.482091665E-1,-6.077930331E-1
1.534070632E1,-1.278961420E0,5.077667832E-1,-6.560499668E-1
1.534985887E1,-1.272853017E0,5.431959033E-1,-6.951441765E-1
1.535901142E1,-1.279419541E0,5.925218463E-1,-7.409577370E-1
1.536816397E1,-1.300188422E0,7.953231335E-1,-7.687512636E-1
1.537730376E1,-1.280030489E0,1.025154471E0,-7.614210844E-1
1.538646908E1,-1.251931429E0,1.255443811E0,-7.369872332E-1
1.539562163E1,-1.225512266E0,1.468782187E0,-7.241594195E-1
1.540477418E1,-1.172979474E0,1.682120681E0,-7.598940134E-1
1.541392673E1,-1.108535051E0,1.968760729E0,-8.542698622E-1
1.542307929E1,-1.056002140E0,2.352678299E0,-9.801044464E-1
1.543221908E1,-9.927794933E-1,2.635653257E0,-1.073869467E0
1.544138439E1,-8.883246183E-1,2.554410458E0,-1.106549859E0
1.545053694E1,-7.418739796E-1,2.290219069E0,-1.084101200E0
1.545967673E1,-6.090146899E-1,1.982504725E0,-1.084712029E0
1.546884204E1,-5.015056133E-1,1.381278396E0,-1.060889006E0
1.547799460E1,-4.795151055E-1,7.977665067E-1,-9.613208771E-1
1.548713439E1,-5.405998230E-1,9.086353332E-2,-7.817317843E-1
1.549629970E1,-6.210789680E-1,-4.346178174E-1,-6.018372774E-1
1.550545225E1,-6.349757314E-1,-5.228852630E-1,-5.083776116E-1
1.551459204E1,-5.758762360E-1,-4.263713956E-1,-5.257867575E-1
1.552375736E1,-5.638120174E-1,-3.055763543E-1,-5.874823332E-1
1.553290991E1,-6.062659025E-1,-1.496575773E-1,-6.293253899E-1
1.554206246E1,-5.636593103E-1,5.222744122E-2,-6.342121959E-1
1.555121501E1,-4.744756222E-1,1.319430023E-1,-6.116108298E-1
1.556036757E1,-4.592044353E-1,-6.413896102E-3,-5.851916671E-1
1.556950736E1,-4.625640810E-1,-2.063136548E-1,-5.373928547E-1
1.557867267E1,-3.894151151E-1,-3.607053161E-1,-4.408790171E-1
1.558782522E1,-2.599155009E-1,-5.057815313E-1,-3.133646548E-1
1.559697777E1,-1.462979168E-1,-5.894675851E-1,-1.873773932E-1
1.560613027E1,-3.603998944E-2,-6.901046634E-1,-7.666133344E-2
1.561528283E1,1.223221645E-1,-5.984776020E-1,2.214321308E-2
1.562443538E1,3.509317636E-1,-2.264716178E-1,1.291942000E-1
1.563358793E1,6.276455522E-1,8.582404256E-2,2.186833173E-1
1.564274048E1,9.136747718E-1,3.318427801E-1,2.889307439E-1
1.565189304E1,1.193595529E0,4.926483035E-1,3.512371778E-1
1.566104559E1,1.469698548E0,5.289937258E-1,4.417952895E-1
1.567019814E1,1.713121176E0,4.500417113E-1,6.175665855E-1
1.567933793E1,1.879729748E0,1.933331639E-1,8.559496999E-1
1.568850324E1,2.033510447E0,-8.872556686E-2,1.094180107E0
1.569765580E1,2.120098114E0,-2.892361879E-1,1.273158431E0
1.570679559E1,2.109560966E0,-5.573981404E-1,1.427855492E0
1.571596090E1,2.136132956E0,-1.020573020E0,1.649440289E0
1.572511345E1,2.266854286E0,-1.413500547E0,1.892404795E0
1.573425324E1,2.425063610E0,-1.683036923E0,2.074437380E0
1.574341856E1,2.506917238E0,-1.913479090E0,2.144226551E0
1.575257111E1,2.465226889E0,-2.206532955E0,2.100703716E0
1.576171090E1,2.389176369E0,-2.616411448E0,1.975327373E0
1.577087621E1,2.409945250E0,-2.997732878E0,1.815132618E0
1.578002876E1,2.495769262E0,-3.152582645E0,1.655396104E0
1.578916856E1,2.531045675E0,-2.909923553E0,1.577207565E0
1.579833387E1,2.488897085E0,-2.354357958E0,1.595991135E0
1.580748642E1,2.433310032E0,-1.787797213E0,1.631878495E0
1.581662621E1,2.393757582E0,-1.269035220E0,1.609277129E0
1.582579152E1,2.354663372E0,-8.095253110E-1,1.551857471E0
1.583494408E1,2.288691998E0,-4.381301999E-1,1.499171853E0
1.584408387E1,2.184084415E0,-9.666658193E-2,1.491536260E0
1.585324918E1,2.081156492E0,1.815743446E-1,1.513221383E0
1.586240173E1,2.007244110E0,2.954973578E-1,1.532157660E0
1.587154152E1,1.940814495E0,2.165453583E-1,1.535364628E0
1.588070679E1,1.879118919E0,1.206423342E-2,1.510014415E0
1.588985934E1,1.843995214E0,-3.016058207E-1,1.448929667E0
1.589899918E1,1.836512327E0,-6.743753552E-1,1.350888729E0
1.590816449E1,1.833305359E0,-1.011715770E0,1.232689738E0
1.591731699E1,1.821088433E0,-1.244295835E0,1.094791055E0
1.592645684E1,1.809940457E0,-1.363716483E0,9.206995368E-1
1.593562210E1,1.790240645E0,-1.428313613E0,7.495095730E-1
1.594477465E1,1.743358135E0,-1.492758036E0,6.033644080E-1
1.595391444E1,1.655548811E0,-1.538571477E0,4.659237564E-1
1.596307975E1,1.532004952E0,-1.518108130E0,3.454341292E-1
1.597223231E1,1.372421026E0,-1.414569497E0,2.525853515E-1
1.598137210E1,1.184585571E0,-1.242310643E0,1.601946950E-1
1.599053741E1,9.836167693E-1,-1.000720501E0,6.505523622E-2
1.599968996E1,7.698202729E-1,-6.850652099E-1,-2.825168520E-2
1.600882975E1,5.389199853E-1,-3.849864900E-1,-1.058292910E-1
1.601799507E1,2.857238054E-1,-1.156028435E-1,-1.528645307E-1
1.602714762E1,7.330167107E-3,1.412584335E-1,-1.415638477E-1
1.603630017E1,-2.447970361E-1,3.978142738E-1,-9.483403713E-2
1.604545272E1,-4.611896873E-1,6.812474132E-1,-7.024743408E-2
1.605460527E1,-6.516213417E-1,9.570449591E-1,-7.910472155E-2
1.606374507E1,-8.312104344E-1,1.138008475E0,-1.201841980E-1
1.607291038E1,-1.026986957E0,1.143964171E0,-1.893626451E-1
1.608206293E1,-1.247044683E0,9.852966070E-1,-3.013004065E-1
1.609120272E1,-1.471989155E0,7.841751575E-1,-4.712686539E-1
1.610036804E1,-1.652189136E0,6.800256968E-1,-6.661289334E-1
1.610952059E1,-1.617523551E0,7.673768401E-1,-8.570187092E-1
1.611866038E1,-1.117850542E0,1.342642307E0,-9.973608851E-1
1.612782569E1,-2.869454920E-1,2.157054424E0,-9.371923804E-1
1.613697824E1,-4.824166298E-1,1.869956136E0,-6.160394549E-1
1.614611804E1,-1.615232825E0,9.886562824E-1,-5.598415136E-1
1.615528335E1,-2.439418554E0,6.707102656E-1,-7.455390692E-1
1.616443590E1,-2.262120008E0,1.675248593E-1,-6.827745438E-1
1.617357569E1,-1.550330400E0,4.764608741E-1,-2.371614426E-1
1.618274100E1,-1.136328578E0,1.127929449E0,-1.023169160E-1
1.619189350E1,-1.224443316E0,4.065188468E-1,-3.746020794E-1
1.620103335E1,-1.531394124E0,-4.040754735E-1,-4.133908749E-1
1.621019861E1,-1.623784781E0,-3.361186981E-1,-1.229330078E-1
1.621935116E1,-1.455038190E0,-6.583406329E-1,5.497625098E-3
1.622849100E1,-1.263995647E0,-1.155112147E0,-1.362189353E-1
1.623765626E1,-1.236660242E0,-1.367992401E0,-3.136700690E-1
1.624680882E1,-1.292094707E0,-1.342336893E0,-3.958290219E-1
1.625594861E1,-1.280641317E0,-1.104869962E0,-3.903313875E-1
1.626511392E1,-1.169161677E0,-7.551599145E-1,-3.637595475E-1
1.627426647E1,-1.068830013E0,-4.639385045E-1,-3.600944579E-1
1.628341902E1,-1.055085897E0,-1.110214889E-1,-3.999522328E-1
1.629257158E1,-1.096776247E0,2.460187376E-1,-4.700469673E-1
1.630172413E1,-1.109604001E0,5.283828974E-1,-5.222744346E-1
1.631087668E1,-1.113574505E0,7.218687534E-1,-5.462501645E-1
1.632002923E1,-1.110062122E0,7.971556783E-1,-5.470137000E-1
1.632918178E1,-1.131747246E0,8.935168386E-1,-5.483881235E-1
1.633833434E1,-1.176033735E0,9.405520558E-1,-5.413633585E-1
1.634748689E1,-1.173590302E0,9.417737722E-1,-5.334223509E-1
1.635663944E1,-1.154195905E0,9.025267959E-1,-5.369347334E-1
1.636579199E1,-1.136481285E0,7.951704264E-1,-5.557183027E-1
1.637494454E1,-1.118461370E0,6.296308041E-1,-5.450284481E-1
1.638409704E1,-1.139382839E0,5.686988235E-1,-5.433486104E-1
1.639324965E1,-1.173590302E0,5.347967744E-1,-5.606050491E-1
1.640240215E1,-1.201994658E0,4.996730685E-1,-6.010736823E-1
1.641155475E1,-1.245364904E0,4.789042473E-1,-6.649072170E-1
1.642070725E1,-1.274685502E0,4.732539058E-1,-7.133168578E-1
1.642985981E1,-1.310114622E0,5.115845799E-1,-7.398887277E-1
1.643901236E1,-1.379903913E0,6.013791561E-1,-7.374453545E-1
1.644816491E1,-1.443584800E0,6.885775924E-1,-7.226322889E-1
1.645731746E1,-1.490314603E0,8.790091872E-1,-6.998782754E-1
1.646647001E1,-1.495354056E0,1.148545504E0,-6.788040400E-1
1.647562257E1,-1.467713237E0,1.373948216E0,-6.757497787E-1
1.648477512E1,-1.461910248E0,1.560714722E0,-6.959077120E-1
1.649392767E1,-1.410598993E0,1.695101142E0,-7.359182239E-1
1.650308022E1,-1.345849276E0,1.874995708E0,-8.113578558E-1
1.651223277E1,-1.318513751E0,2.040229797E0,-9.370396733E-1
1.652138533E1,-1.225664973E0,2.143615723E0,-1.072647810E0
1.653053788E1,-1.124569774E0,2.259065866E0,-1.180767775E0
1.653969043E1,-1.052642584E0,2.378792048E0,-1.246281147E0
1.654884298E1,-9.506310225E-1,2.418038845E0,-1.269951463E0
1.655798277E1,-8.997780085E-1,2.319386959E0,-1.261552334E0
1.656714809E1,-8.809944391E-1,2.200882673E0,-1.217418551E0
1.657630064E1,-7.921161652E-1,2.022209883E0,-1.172674060E0
1.658544043E1,-5.948125124E-1,1.637681484E0,-1.098303318E0
1.659460574E1,-4.697415531E-1,1.269951463E0,-1.029430389E0
1.660375830E1,-4.356867969E-1,9.304730892E-1,-9.648332596E-1
1.661291085E1,-3.863608837E-1,5.451811552E-1,-8.817580342E-1
1.662206340E1,-3.576510847E-1,2.447970361E-1,-7.994463444E-1
1.663121595E1,-3.866663277E-1,2.504473738E-2,-7.488987446E-1
1.664035574E1,-4.517215490E-1,-1.594311297E-1,-7.162184119E-1
1.664952106E1,-4.912739098E-1,-2.400629669E-1,-6.804838181E-1
1.665867361E1,-4.931064546E-1,-3.284831047E-1,-6.296308041E-1
1.666782616E1,-4.705050886E-1,-4.559974670E-1,-5.989357233E-1
1.667697871E1,-4.326325655E-1,-5.824428797E-1,-5.717530251E-1
1.668613126E1,-3.394783735E-1,-6.048914790E-1,-5.074613690E-1
1.669527106E1,-1.866138428E-1,-5.969504714E-1,-3.953709006E-1
1.670443632E1,-3.558185324E-2,-6.577298045E-1,-2.670929730E-1
1.671358887E1,9.422318637E-2,-7.571451664E-1,-1.348445266E-1
1.672272866E1,2.214321345E-1,-7.821899056E-1,2.748812549E-3
1.673189397E1,3.753656447E-1,-7.663078904E-1,1.614163816E-1
1.674104652E1,5.770979524E-1,-6.522321701E-1,2.982461751E-1
1.675018632E1,8.370134830E-1,-2.507528067E-1,3.773508966E-1
1.675935163E1,1.149919987E0,2.602209449E-1,3.907895386E-1
1.676850418E1,1.459008694E0,7.282826304E-1,3.846810758E-1
1.677765673E1,1.693268657E0,1.026223421E0,4.668400288E-1
1.678680928E1,1.798945189E0,9.710944295E-1,6.832326651E-1
1.679596184E1,1.820172071E0,6.552863717E-1,9.814788103E-1
1.680510163E1,1.832999945E0,2.904578745E-1,1.220625520E0
1.681426694E1,1.820630312E0,-6.276455522E-2,1.365549088E0
1.682341949E1,1.814216375E0,-5.082249045E-1,1.499019146E0
1.683255929E1,1.869192600E0,-7.985301018E-1,1.631420374E0
1.684172460E1,1.998692274E0,-1.008203387E0,1.746717691E0
1.685087715E1,2.130787849E0,-1.204132676E0,1.830251098E0
1.686002970E1,2.219971657E0,-1.340198874E0,1.862167835E0
1.686918225E1,2.236311913E0,-1.575222373E0,1.839872003E0
1.687833481E1,2.160872221E0,-1.946159363E0,1.804748178E0
1.688747460E1,2.050461531E0,-2.333894730E0,1.763363361E0
1.689663991E1,1.977159858E0,-2.586174488E0,1.707470775E0
1.690579246E1,1.940814495E0,-2.710481882E0,1.651120186E0
1.691493225E1,1.928597450E0,-2.692003965E0,1.605764747E0
1.692409757E1,1.930124640E0,-2.511345863E0,1.575833201E0
1.693325012E1,1.933942437E0,-2.162552118E0,1.541931152E0
1.694238991E1,1.931957126E0,-1.652799964E0,1.519635320E0
1.695155522E1,1.920503736E0,-1.121362805E0,1.526354551E0
1.696070777E1,1.896375299E0,-6.910209656E-1,1.546665311E0
1.696986033E1,1.837275863E0,-3.639122546E-1,1.549719453E0
1.697901288E1,1.742136359E0,-2.102841735E-1,1.574000716E0
1.698816543E1,1.656923175E0,-1.278197914E-1,1.593547821E0
1.699730522E1,1.609887958E0,-1.032331884E-1,1.583926916E0
1.700647048E1,1.584079623E0,-1.708845198E-1,1.544221878E0
1.701562304E1,1.579498291E0,-3.104631305E-1,1.458703279E0
1.702476288E1,1.594616771E0,-4.851654470E-1,1.325233102E0
1.703392814E1,1.619661450E0,-6.688777208E-1,1.173437595E0
1.704308069E1,1.646538734E0,-8.597674966E-1,1.035233378E0
1.705222048E1,1.655548811E0,-1.046992183E0,9.071081877E-1
1.706138580E1,1.632642031E0,-1.196344376E0,7.867712975E-1
1.707053835E1,1.573542595E0,-1.281252146E0,6.691831946E-1
1.707967814E1,1.485885978E0,-1.287818789E0,5.573981404E-1
1.708884345E1,1.378529549E0,-1.222763538E0,4.540122151E-1
1.709799600E1,1.246433854E0,-1.077534556E0,3.515425920E-1
1.710713580E1,1.097081661E0,-8.864920735E-1,2.570139766E-1
1.711630111E1,9.434536099E-1,-6.780404449E-1,1.623326540E-1
1.712545366E1,7.695148587E-1,-4.847072959E-1,6.749862432E-2
1.713459345E1,5.642701387E-1,-2.913741469E-1,-3.115320951E-2
1.714375876E1,3.323009014E-1,-1.009425074E-1,-1.117850468E-1
1.715291132E1,1.026223376E-1,4.077405483E-2,-1.580567211E-1
1.716206387E1,-1.110214889E-1,1.763821393E-1,-1.901262105E-1
1.717121642E1,-3.171824515E-1,3.429907262E-1,-2.112004459E-1
1.718036897E1,-5.155550838E-1,4.914266169E-1,-2.279987335E-1
1.718950876E1,-6.855233312E-1,5.578562617E-1,-2.579302490E-1
1.719867408E1,-8.305995464E-1,4.682144225E-1,-3.046600819E-1
1.720782663E1,-1.000873208E0,2.953446507E-1,-3.730749488E-1
1.721696642E1,-1.189472318E0,2.669402659E-1,-4.793623984E-1
1.722613173E1,-1.208408594E0,4.579827189E-1,-6.267293096E-1
1.723528429E1,-8.941276670E-1,1.022558331E0,-7.702783942E-1
1.724442408E1,-6.563553810E-1,1.540709496E0,-7.537854910E-1
1.725358939E1,-1.139382839E0,1.080741525E0,-5.931326747E-1
1.726274194E1,-1.963263035E0,7.876875401E-1,-6.268820167E-1
1.727188173E1,-2.692614794E0,8.805363178E-1,-7.591304183E-1
1.728104704E1,-2.616716862E0,8.475505710E-1,-5.990884304E-1
1.729019960E1,-1.827960372E0,1.439919710E0,-1.427855492E-1
1.729933939E1,-1.192221165E0,1.770998955E0,-4.321744293E-2
1.730850470E1,-1.203063726E0,7.198835015E-1,-3.643703759E-1
1.731765720E1,-1.612178683E0,-5.183038712E-1,-4.828747511E-1
1.732679705E1,-1.670819998E0,-1.023627281E0,-2.490729690E-1
1.733596231E1,-1.508029222E0,-1.275601745E0,-1.678302884E-1
1.734511486E1,-1.319277406E0,-1.506043911E0,-3.129065037E-1
1.735425470E1,-1.133274436E0,-1.490620017E0,-4.477510452E-1
1.736341996E1,-1.096928954E0,-1.325691223E0,-4.970769584E-1
1.737257251E1,-1.164885759E0,-1.017824292E0,-5.129590034E-1
1.738171231E1,-1.191152096E0,-6.215370893E-1,-5.380037427E-1
1.739087762E1,-1.131441832E0,-2.250972092E-1,-6.055023670E-1
1.740003017E1,-1.094791055E0,2.524326444E-1,-6.783458591E-1
1.740916996E1,-1.070357084E0,6.447492838E-1,-7.230904698E-1
1.741833527E1,-1.012326598E0,8.556442857E-1,-7.404996157E-1
1.742748783E1,-1.016602516E0,1.045006990E0,-7.040014863E-1
1.743664038E1,-1.081199646E0,1.227039456E0,-6.630746722E-1
1.744579293E1,-1.107007980E0,1.260788798E0,-6.308525205E-1
1.745494548E1,-1.085322857E0,1.300188422E0,-5.917583108E-1
1.746408527E1,-1.068371892E0,1.331036210E0,-5.732801557E-1
1.747325059E1,-1.037982225E0,1.293163657E0,-5.535803437E-1
1.748240314E1,-1.053711534E0,1.191457629E0,-5.303681493E-1
1.749155569E1,-1.098303318E0,1.006370902E0,-5.280774832E-1
1.750070824E1,-1.103953719E0,8.104416132E-1,-5.401417017E-1
1.750986080E1,-1.098761559E0,6.488724947E-1,-5.625903010E-1
1.751901335E1,-1.112200141E0,5.190674663E-1,-6.004628539E-1
1.752816590E1,-1.119683027E0,4.025483429E-1,-6.548282504E-1
1.753731845E1,-1.127929449E0,3.101576865E-1,-6.969767213E-1
1.754647100E1,-1.141062737E0,2.793098986E-1,-7.269082665E-1
1.755562356E1,-1.132816195E0,3.257342875E-1,-7.397360206E-1
1.756477611E1,-1.127624035E0,4.353813827E-1,-7.305732965E-1
1.757391590E1,-1.109756708E0,5.758762360E-1,-7.281299233E-1
1.758308121E1,-1.098456025E0,7.782194018E-1,-7.598940134E-1
1.759223371E1,-1.128540277E0,1.121057391E0,-7.855495811E-1
1.760138626E1,-1.159693480E0,1.439767003E0,-7.840224504E-1
1.761053882E1,-1.144727707E0,1.618287086E0,-7.479824424E-1
1.761969137E1,-1.087766290E0,1.704111099E0,-7.207997441E-1
1.762884392E1,-1.014464617E0,1.799250603E0,-7.406523228E-1
1.763799647E1,-9.181034565E-1,1.937302113E0,-7.937960029E-1
1.764714902E1,-8.557969928E-1,2.024042368E0,-8.348754644E-1
1.765628882E1,-7.696675658E-1,1.890419602E0,-8.102889061E-1
1.766545413E1,-6.285618544E-1,1.664864182E0,-7.560762167E-1
1.767460668E1,-5.859552622E-1,1.570488334E0,-7.330167294E-1
1.768375923E1,-6.609367132E-1,1.410598993E0,-7.365291119E-1
1.769291178E1,-7.180509567E-1,1.134954214E0,-7.690566778E-1
1.770206434E1,-6.931589246E-1,9.052756429E-1,-8.035695553E-1
1.771121689E1,-6.803311110E-1,7.166765332E-1,-8.125795722E-1
1.772036944E1,-7.050704360E-1,5.876350403E-1,-8.101361990E-1
1.772952199E1,-6.771242023E-1,4.871506989E-1,-7.983773947E-1
1.773867455E1,-5.879405141E-1,3.445178568E-1,-7.707365155E-1
1.774782710E1,-5.415160656E-1,1.724116355E-1,-7.372926474E-1
1.775697965E1,-5.749599934E-1,2.672456764E-2,-6.891884208E-1
1.776613220E1,-6.019899845E-1,-6.291726977E-2,-6.447492838E-1
1.777528475E1,-5.413633585E-1,-1.157555580E-1,-5.942016840E-1
1.778443731E1,-4.477510452E-1,-2.063136548E-1,-5.292991400E-1
1.779358986E1,-4.071297050E-1,-3.735330999E-1,-4.575245976E-1
1.780274241E1,-3.834593594E-1,-5.882459283E-1,-3.674246371E-1
1.781189496E1,-3.407000601E-1,-7.962393761E-1,-2.710634768E-1
1.782104751E1,-2.809897363E-1,-8.970292211E-1,-1.887518018E-1
1.783020007E1,-1.815743446E-1,-8.791618943E-1,-1.215586066E-1
1.783935262E1,-6.062658876E-2,-7.769976854E-1,-7.009471953E-2
1.784850517E1,4.596625641E-2,-5.909947157E-1,-2.733541466E-2
1.785765772E1,1.641651988E-1,-3.002314270E-1,-4.734066315E-3
1.786681027E1,3.263451457E-1,3.573456407E-2,1.572931744E-2
1.787596283E1,5.244123936E-1,3.147390485E-1,8.414421231E-2
1.788511538E1,7.600467205E-1,4.504998624E-1,2.279987335E-1
1.789426788E1,1.023932695E0,3.384093940E-1,4.259132445E-1
1.790340772E1,1.269340634E0,-5.436540768E-2,6.471926570E-1
1.791257298E1,1.479624748E0,-5.189147592E-1,8.646543026E-1
1.792172554E1,1.614621997E0,-8.767185211E-1,1.021489382E0
1.793087809E1,1.692046881E0,-1.029735804E0,1.144422293E0
1.794003064E1,1.836817741E0,-1.102426648E0,1.301104665E0
1.794918319E1,2.081614733E0,-1.104411840E0,1.446944475E0
1.795833574E1,2.329160690E0,-1.061499834E0,1.561020136E0
1.796748830E1,2.473625898E0,-9.753703475E-1,1.619966984E0
1.797664085E1,2.478359938E0,-8.687775135E-1,1.604695797E0
1.798578064E1,2.363978863E0,-7.438592315E-1,1.544527292E0
1.799494595E1,2.195537806E0,-7.667660117E-1,1.484206080E0
1.800409850E1,2.045422077E0,-1.059361815E0,1.450304151E0
1.801323830E1,1.945243120E0,-1.514443040E0,1.454274654E0
1.802240361E1,1.936385870E0,-1.915158868E0,1.477028728E0
1.803155616E1,2.006175041E0,-2.077644348E0,1.499629974E0
1.804069595E1,2.078407764E0,-1.882936716E0,1.508029222E0
1.804986126E1,2.104979753E0,-1.403727055E0,1.513832211E0
1.805901382E1,2.143157721E0,-9.097042680E-1,1.485733271E0
1.806816637E1,2.208671093E0,-6.192464232E-1,1.434574842E0
1.807731892E1,2.226080179E0,-4.283566475E-1,1.416860223E0
1.808647147E1,2.128039122E0,-2.663294077E-1,1.409377337E0
1.809561126E1,1.971204162E0,-1.780619770E-1,1.420525312E0
1.810477658E1,1.846743941E0,-1.357607991E-1,1.474585295E0
1.811392913E1,1.774664044E0,-1.044548824E-1,1.532615781E0
1.812306892E1,1.772526026E0,-1.314848661E-1,1.519788027E0
1.813223423E1,1.819255829E0,-2.782409191E-1,1.434727550E0
1.814138678E1,1.875759244E0,-5.612159371E-1,1.316223145E0
1.815053934E1,1.914089918E0,-8.660287261E-1,1.193442822E0
1.815969189E1,1.909050345E0,-1.078603506E0,1.071426034E0
1.816884444E1,1.844453335E0,-1.242921472E0,9.587247968E-1
1.817799699E1,1.747481346E0,-1.378529549E0,8.573241234E-1
1.818714954E1,1.656006932E0,-1.447097182E0,7.577560544E-1
1.819630210E1,1.571557283E0,-1.391051888E0,6.478035450E-1
1.820544189E1,1.468324065E0,-1.228413820E0,5.254813433E-1
1.821460720E1,1.326302052E0,-1.001789451E0,3.996468186E-1
1.822375975E1,1.154654026E0,-7.857022882E-1,2.872509360E-1
1.823291231E1,9.717052579E-1,-6.103891134E-1,1.936385781E-1
1.824206486E1,7.936432958E-1,-4.512633979E-1,1.360662282E-1
1.825121741E1,6.080984473E-1,-3.016058207E-1,1.010952219E-1
1.826036991E1,3.959817290E-1,-1.327065676E-1,6.887302548E-2
1.826952246E1,1.533226669E-1,5.909947306E-2,4.016320780E-2
1.827867501E1,-1.041494608E-1,2.677038014E-1,1.924168877E-2
1.828782757E1,-3.518480062E-1,4.785988331E-1,-7.024743594E-3
1.829698012E1,-5.351021886E-1,6.433748603E-1,-2.489202656E-2
1.830613267E1,-6.349757314E-1,6.565080881E-1,-3.970507160E-2
1.831527246E1,-6.844543815E-1,4.923428893E-1,-7.727217674E-2
1.832443777E1,-7.317950130E-1,2.269297540E-1,-1.291942000E-1
1.833359033E1,-8.371661901E-1,3.894151375E-2,-2.122694254E-1
1.834273012E1,-9.923213720E-1,-1.527118147E-3,-3.159607351E-1
1.835189543E1,-1.154806733E0,1.832541823E-2,-4.269822240E-1
1.836104798E1,-1.172368646E0,1.907370538E-1,-5.402944088E-1
1.837018777E1,-8.924478292E-1,7.266027927E-1,-6.467345357E-1
1.837935309E1,-3.964398801E-1,1.194206357E0,-7.119424939E-1
1.838850564E1,-2.814478874E-1,9.782719016E-1,-6.560499668E-1
1.839764543E1,-8.440381885E-1,4.640912116E-1,-6.224533319E-1
1.840681074E1,-1.703042150E0,2.000524700E-1,-7.333221436E-1
1.841596330E1,-2.238907814E0,-4.184303805E-2,-7.533273697E-1
1.842510309E1,-2.134605646E0,5.106683373E-1,-3.567348123E-1
1.843426840E1,-1.868429065E0,1.520856977E0,-9.116895497E-2
1.844342095E1,-1.546054363E0,1.574611545E0,-3.374931216E-1
1.845256074E1,-1.350277901E0,5.051707029E-1,-6.852179170E-1
1.846172606E1,-1.351499557E0,-4.735593498E-1,-6.991146803E-1
1.847087861E1,-1.385554314E0,-8.276980519E-1,-5.050179958E-1
1.848001840E1,-1.391357303E0,-9.063445926E-1,-4.237752855E-1
1.848918371E1,-1.369672298E0,-9.668185115E-1,-4.705050886E-1
1.849833626E1,-1.343405843E0,-9.880454540E-1,-5.051707029E-1
1.850747606E1,-1.268882513E0,-9.991934299E-1,-4.784461260E-1
1.851664137E1,-1.189930439E0,-8.867974877E-1,-4.132381678E-1
1.852579392E1,-1.200620294E0,-6.022953987E-1,-3.938437700E-1
1.853494647E1,-1.207186937E0,-2.637332976E-1,-4.301891923E-1
1.854409902E1,-1.174201131E0,6.398624927E-2,-4.686725736E-1
1.855325158E1,-1.138924718E0,3.465031087E-1,-4.900522232E-1
1.856240413E1,-1.109145880E0,5.364766121E-1,-4.992149174E-1
1.857155668E1,-1.088071704E0,6.684195995E-1,-5.008947253E-1
1.858070923E1,-1.070204377E0,7.299624681E-1,-4.892886579E-1
1.858986178E1,-1.060889006E0,7.747070193E-1,-4.561502039E-1
1.859901434E1,-1.075854778E0,8.548807502E-1,-4.312581718E-1
1.860816689E1,-1.081963181E0,8.434273601E-1,-4.088095427E-1
1.861731939E1,-1.088987947E0,7.924215794E-1,-3.929274976E-1
1.862647199E1,-1.104869962E0,7.707365155E-1,-3.735330999E-1
1.863562449E1,-1.084559321E0,6.894938350E-1,-3.549022675E-1
1.864477704E1,-1.066539288E0,5.358657837E-1,-3.541387022E-1
1.865392960E1,-1.056154966E0,3.356605768E-1,-3.629959822E-1
1.866308215E1,-1.083948493E0,2.125748396E-1,-3.881934285E-1
1.867223470E1,-1.102121115E0,1.317902952E-1,-4.303418994E-1
1.868138725E1,-1.121057391E0,1.298050433E-1,-4.622586668E-1
1.869053981E1,-1.127318621E0,1.536280811E-1,-5.088357925E-1
1.869969236E1,-1.132663488E0,2.342599183E-1,-5.552601814E-1
1.870884491E1,-1.146865726E0,3.950654566E-1,-5.896202922E-1
1.871799746E1,-1.133885264E0,5.949652195E-1,-6.197045445E-1
1.872713725E1,-1.103801012E0,7.678350210E-1,-6.488724947E-1
1.873630257E1,-1.069898963E0,9.758284688E-1,-6.548282504E-1
1.874545512E1,-1.053864241E0,1.191610336E0,-6.427640319E-1
1.875460767E1,-1.042410851E0,1.357913494E0,-6.604785919E-1
1.876376022E1,-1.015533566E0,1.486649513E0,-6.951441765E-1
1.877291277E1,-9.998042583E-1,1.679524541E0,-7.336275578E-1
1.878206533E1,-9.691091776E-1,1.836665034E0,-7.719582319E-1
1.879121788E1,-9.058864713E-1,1.884769201E0,-8.144121170E-1
1.880037043E1,-8.643488884E-1,1.965401053E0,-8.648070097E-1
1.880952298E1,-8.414421082E-1,2.115822077E0,-9.087880254E-1
1.881867554E1,-7.747070193E-1,2.167133331E0,-9.191724062E-1
1.882782809E1,-6.067240238E-1,1.977770686E0,-8.739697337E-1
1.883698064E1,-4.248442650E-1,1.796959877E0,-8.176190853E-1
1.884613319E1,-3.448232710E-1,1.806733489E0,-7.927270532E-1
1.885528574E1,-4.347705245E-1,1.733737230E0,-8.035695553E-1
1.886443830E1,-5.989357233E-1,1.492299795E0,-8.278507590E-1
1.887359085E1,-5.920637250E-1,1.192984700E0,-8.128849864E-1
1.888274340E1,-4.521796703E-1,1.026376128E0,-7.562289238E-1
1.889189595E1,-4.176668227E-1,9.403993487E-1,-7.229377031E-1
1.890104850E1,-4.831801951E-1,6.888830066E-1,-7.250757217E-1
1.891020106E1,-5.066977739E-1,4.851654470E-1,-7.342383862E-1
1.891935361E1,-4.712686539E-1,3.865135908E-1,-7.284353375E-1
1.892850616E1,-4.210264683E-1,2.786990702E-1,-7.182036638E-1
1.893765871E1,-3.758237660E-1,1.035386100E-1,-7.098045349E-1
1.894681121E1,-3.712424338E-1,-7.055285573E-2,-6.913263798E-1
1.895596376E1,-4.118637741E-1,-2.229592502E-1,-6.664343476E-1
1.896511632E1,-4.395045936E-1,-3.929274976E-1,-6.390989423E-1
1.897425616E1,-4.172086716E-1,-4.263713956E-1,-5.893148780E-1
1.898342142E1,-3.633013964E-1,-3.616215885E-1,-5.230379701E-1
1.899257397E1,-2.924431264E-1,-2.527380586E-1,-4.421007037E-1
1.900172652E1,-2.399102598E-1,-8.536590636E-2,-3.642176688E-1
1.901087908E1,-1.455343664E-1,6.749862432E-2,-2.782409191E-1
1.902003163E1,2.107422985E-2,9.284878522E-2,-1.995943487E-1
1.902917142E1,2.273878902E-1,-5.344913341E-3,-1.064401343E-1
1.903833673E1,4.173613787E-1,-2.371614426E-1,2.275406010E-2
1.904748928E1,5.424323678E-1,-5.170822144E-1,1.971509457E-1
1.905664184E1,5.887040496E-1,-7.493568659E-1,3.924693763E-1
1.906579439E1,6.129852533E-1,-8.541171551E-1,5.656445622E-1
1.907494694E1,6.864396334E-1,-8.034168482E-1,7.198835015E-1
1.908409949E1,8.225058317E-1,-5.868715048E-1,8.843541145E-1
1.909325204E1,9.944593310E-1,-3.912476599E-1,1.053406119E0
1.910240460E1,1.227802992E0,-2.626643181E-1,1.172826767E0
1.911154439E1,1.456717968E0,-4.013266563E-1,1.227039456E0
1.912070970E1,1.612331390E0,-8.678612709E-1,1.288887739E0
1.912986225E1,1.755269647E0,-1.540251374E0,1.395480514E0
1.913901481E1,1.942646980E0,-2.005411625E0,1.504669547E0
1.914816736E1,2.144837379E0,-2.189276695E0,1.572778940E0
1.915731991E1,2.296174765E0,-2.096122265E0,1.598739982E0
1.916647246E1,2.370698214E0,-1.865374804E0,1.583316088E0
1.917562501E1,2.387801886E0,-1.636917949E0,1.552773714E0
1.918477757E1,2.404142141E0,-1.435185671E0,1.515512109E0
1.919391736E1,2.424299955E0,-1.250251651E0,1.474585295E0
1.920308267E1,2.397881031E0,-1.113116384E0,1.441904902E0
1.921223522E1,2.287470341E0,-1.099525094E0,1.424037695E0
1.922137501E1,2.122236013E0,-1.146254897E0,1.409988165E0
1.923054033E1,1.999913931E0,-1.185043693E0,1.393342614E0
1.923969288E1,1.969982386E0,-1.141673565E0,1.382041931E0
1.924884543E1,1.977617979E0,-1.016907930E0,1.378987670E0
1.925799798E1,1.989376783E0,-8.976400495E-1,1.394258857E0
1.926715054E1,1.997317791E0,-7.768449783E-1,1.440683246E0
1.927629033E1,2.013199806E0,-4.880669713E-1,1.480846524E0
1.928545564E1,1.993958116E0,-1.385096163E-1,1.493826985E0
1.929460819E1,1.889045119E0,1.649287641E-1,1.475196123E0
1.930374798E1,1.763516068E0,2.748812735E-1,1.458397865E0
1.931291330E1,1.684716702E0,2.108950168E-1,1.438850760E0
1.932206585E1,1.656006932E0,1.197260618E-1,1.409530044E0
1.933120564E1,1.645775199E0,-1.847812906E-2,1.351499557E0
1.934037095E1,1.621494055E0,-2.231119573E-1,1.264148355E0
1.934952350E1,1.592173338E0,-4.827220440E-1,1.157250166E0
1.935866330E1,1.582552552E0,-7.345438004E-1,1.029735804E0
1.936782861E1,1.583163381E0,-9.429954290E-1,8.773293495E-1
1.937698116E1,1.577360392E0,-1.115254402E0,7.215633392E-1
1.938613371E1,1.561783671E0,-1.243074179E0,5.822901726E-1
1.939528626E1,1.521467805E0,-1.306296825E0,4.770717025E-1
1.940443882E1,1.458397865E0,-1.303548098E0,4.033119082E-1
1.941359137E1,1.379751205E0,-1.246128440E0,3.471139669E-1
1.942274387E1,1.289498568E0,-1.116934180E0,2.854183912E-1
1.943189642E1,1.184127450E0,-9.455915689E-1,2.136438340E-1
1.944104897E1,1.058445573E0,-7.689039707E-1,1.363716573E-1
1.945020152E1,9.179506898E-1,-6.122216582E-1,7.360709459E-2
1.945935408E1,7.776085734E-1,-4.727957845E-1,2.672456764E-2
1.946850663E1,6.470399499E-1,-3.200839758E-1,-1.099525020E-2
1.947765918E1,5.286883116E-1,-1.637070626E-1,-5.222744122E-2
1.948681173E1,4.115583301E-1,-1.099525020E-2,-8.979454637E-2
1.949596428E1,2.883199155E-1,1.382041872E-1,-1.238492802E-1
1.950511684E1,1.320957243E-1,2.522799075E-1,-1.524063945E-1
1.951426939E1,-5.115845799E-2,2.935121059E-1,-1.831014603E-1
1.952342194E1,-2.206685692E-1,2.400629669E-1,-2.134911120E-1
1.953257449E1,-3.399364948E-1,1.487413049E-1,-2.302894145E-1
1.954172705E1,-4.239279926E-1,9.193251282E-2,-2.454078794E-1
1.955087960E1,-4.932591617E-1,7.299624383E-2,-2.635805905E-1
1.956003215E1,-5.775560737E-1,7.162184268E-2,-2.892361879E-1
1.956918470E1,-6.772769094E-1,8.215895295E-2,-3.321481943E-1
1.957833725E1,-7.719582319E-1,6.795676053E-2,-3.816268146E-1
1.958748981E1,-8.675557971E-1,2.550287358E-2,-4.225535989E-1
1.959664236E1,-9.918632507E-1,9.468132630E-3,-4.514161348E-1
1.960579491E1,-1.134343386E0,2.855710872E-2,-4.604261220E-1
1.961494746E1,-1.243074179E0,4.520269856E-2,-4.440859556E-1
1.962410001E1,-1.299424887E0,5.864133686E-2,-4.042281806E-1
1.963323981E1,-1.367686987E0,1.030804738E-1,-3.950654566E-1
1.964240512E1,-1.393953443E0,1.829487532E-1,-4.697415531E-1
1.965155767E1,-1.209782958E0,4.521796703E-1,-5.760289431E-1
1.966069746E1,-5.723638535E-1,8.069292307E-1,-5.741963983E-1
1.966986277E1,-4.688252881E-2,1.316986680E0,-4.176668227E-1
1.967901533E1,-5.639647245E-1,1.120141149E0,-2.953446507E-1
1.968815512E1,-1.523147583E0,1.514748454E0,-4.117110670E-1
1.969732043E1,-2.133383989E0,2.064816475E0,-8.121214509E-1
1.970647298E1,-2.046338320E0,7.557707429E-1,-1.046992183E0
1.971561277E1,-1.436712742E0,3.689517379E-1,-8.029587269E-1
1.972477809E1,-9.048175216E-1,8.631271720E-1,-5.212054253E-1
1.973393064E1,-7.808154821E-1,1.343253136E0,-4.992149174E-1
1.974307043E1,-9.684983492E-1,1.475348830E0,-5.683933496E-1
1.975223574E1,-1.141673565E0,1.532310367E0,-5.555655956E-1
1.976138830E1,-1.170841455E0,1.118308663E0,-5.305208564E-1
1.977052809E1,-1.161067963E0,3.249707520E-1,-5.977140665E-1
1.977969340E1,-1.151447058E0,-3.738385141E-1,-6.985038519E-1
1.978884595E1,-1.089751482E0,-6.389462352E-1,-7.539382577E-1
1.979799850E1,-9.617789984E-1,-7.418739796E-1,-7.499676943E-1
1.980715106E1,-8.203678727E-1,-9.330691695E-1,-7.012526393E-1
1.981630361E1,-7.293516397E-1,-1.015075445E0,-6.180247068E-1
1.982544340E1,-7.689039707E-1,-8.119687438E-1,-5.616740584E-1
1.983460871E1,-8.744278550E-1,-3.926220834E-1,-5.474718809E-1
1.984376126E1,-9.492566586E-1,1.044548824E-1,-5.441122055E-1
1.985291382E1,-1.003622055E0,5.303681493E-1,-5.173876286E-1
1.986206637E1,-1.048672080E0,8.058602214E-1,-4.793623984E-1
1.987121892E1,-1.043785214E0,9.410101771E-1,-4.573718905E-1
1.988037147E1,-1.007287145E0,9.923213720E-1,-4.480564594E-1
1.988952402E1,-9.810206890E-1,9.973608851E-1,-4.375193417E-1
1.989867658E1,-9.518527389E-1,9.208522439E-1,-4.341596961E-1
1.990782908E1,-9.199360013E-1,7.875348330E-1,-4.283566475E-1
1.991698168E1,-9.465078115E-1,6.586460471E-1,-4.320217371E-1
1.992613423E1,-9.889616966E-1,5.169295073E-1,-4.463766217E-1
1.993528679E1,-9.854493141E-1,4.764608741E-1,-4.547757804E-1
1.994443928E1,-9.631534219E-1,4.686725736E-1,-4.582881629E-1
1.995359189E1,-9.608627558E-1,4.042281806E-1,-4.656183124E-1
1.996274439E1,-9.868237376E-1,3.588727713E-1,-4.712686539E-1
1.997189694E1,-1.000415087E0,3.552076817E-1,-4.744756222E-1
1.998104949E1,-9.868237376E-1,3.547495604E-1,-4.731011987E-1
1.999020204E1,-9.831586480E-1,3.619270027E-1,-4.773771465E-1
1.999935460E1,-9.779664874E-1,3.408527672E-1,-4.851654470E-1
2.000850715E1,-9.640696645E-1,3.034383655E-1,-4.888305068E-1
2.001765970E1,-9.651386738E-1,2.823641598E-1,-4.998257756E-1
2.002681225E1,-9.726215601E-1,3.081724346E-1,-5.212054253E-1
2.003596481E1,-9.515473247E-1,3.093941510E-1,-5.375455618E-1
2.004511736E1,-9.121476412E-1,3.038965166E-1,-5.329642296E-1
2.005426991E1,-8.858812451E-1,3.228327632E-1,-5.144860744E-1
2.006342246E1,-8.892409205E-1,3.607053161E-1,-5.089884996E-1
2.007257501E1,-8.933641315E-1,4.052971601E-1,-5.311316848E-1
2.008172757E1,-9.090934396E-1,4.538595080E-1,-5.628957748E-1
2.009088012E1,-9.141329527E-1,4.749337435E-1,-5.783196688E-1
2.010003267E1,-8.780929446E-1,4.472928941E-1,-5.755708218E-1
2.010918522E1,-8.577822447E-1,4.659237564E-1,-5.772506595E-1
2.011833777E1,-8.608365059E-1,5.383091569E-1,-5.829010010E-1
2.012749033E1,-8.489249945E-1,5.767925382E-1,-5.809157491E-1
2.013664288E1,-8.215895891E-1,5.462501645E-1,-5.587725043E-1
2.014579543E1,-7.834116220E-1,5.234960914E-1,-5.438067913E-1
2.015494798E1,-7.753179073E-1,5.247178078E-1,-5.456393361E-1
2.016410054E1,-8.324320912E-1,5.010474920E-1,-5.551074743E-1
2.017325309E1,-8.660287261E-1,4.630222321E-1,-5.450284481E-1
2.018240564E1,-8.144121170E-1,4.097257853E-1,-5.079194903E-1
2.019155819E1,-7.360709310E-1,2.979407609E-1,-4.645493329E-1
2.020071074E1,-6.849125028E-1,1.491994411E-1,-4.286620617E-1
2.020986330E1,-6.642963886E-1,2.764083818E-2,-4.020902216E-1
2.021901585E1,-6.617003083E-1,-6.093201414E-2,-3.917058110E-1
2.022816840E1,-6.762079000E-1,-8.139539510E-2,-3.967452943E-1
2.023732095E1,-6.875085831E-1,-5.726693198E-2,-4.010212123E-1
2.024647350E1,-6.765133142E-1,1.924168877E-2,-4.059080184E-1
2.025562606E1,-6.598677635E-1,1.023169160E-1,-4.126273096E-1
2.026477861E1,-6.116108298E-1,1.378987730E-1,-4.123218954E-1
2.027393116E1,-5.546492934E-1,1.814216375E-1,-4.167505503E-1
2.028308371E1,-5.314370990E-1,2.188360244E-1,-4.165978432E-1
2.029223626E1,-5.399889946E-1,2.683146596E-1,-3.917058110E-1
2.030138882E1,-5.522059202E-1,3.147390485E-1,-3.723114133E-1
2.031054137E1,-5.656445622E-1,3.648285270E-1,-3.755183518E-1
2.031969392E1,-5.726693273E-1,3.990359604E-1,-3.907895386E-1
2.032884647E1,-5.247178078E-1,4.046863019E-1,-3.599417508E-1
2.033799902E1,-4.761554301E-1,3.892624080E-1,-2.991624475E-1
2.034715158E1,-4.448495209E-1,3.064926267E-1,-2.389939874E-1
2.035630413E1,-4.643966258E-1,1.962346882E-1,-2.060082406E-1
2.036545668E1,-5.486935377E-1,1.027750522E-1,-2.090624720E-1
2.037460923E1,-6.754443645E-1,3.191677108E-2,-2.244863659E-1
2.038376178E1,-7.841751575E-1,-8.093725890E-3,-2.429644912E-1
2.039291434E1,-8.574768305E-1,-8.246437646E-3,-2.599155009E-1
2.040206689E1,-8.890882134E-1,1.817270555E-2,-2.754921019E-1
2.041121944E1,-8.874083757E-1,5.848862603E-2,-2.993151546E-1
2.042037199E1,-8.648070097E-1,9.804098308E-2,-3.364241421E-1
2.042952454E1,-8.099834919E-1,1.119377613E-1,-3.788780272E-1
2.043867710E1,-7.417212725E-1,7.635590434E-2,-4.167505503E-1
2.044782965E1,-6.931589246E-1,-3.161134571E-2,-4.431696832E-1
2.045698220E1,-6.679614782E-1,-1.490467340E-1,-4.509579837E-1
2.046613475E1,-6.594096422E-1,-2.279987335E-1,-4.373666346E-1
2.047528731E1,-6.450546980E-1,-2.615953386E-1,-4.048390090E-1
2.048443986E1,-6.241331697E-1,-2.727433145E-1,-3.643703759E-1
2.049359241E1,-5.942016840E-1,-2.701472044E-1,-3.129065037E-1
2.050274496E1,-5.598415136E-1,-2.837385535E-1,-2.545706034E-1
2.051189751E1,-5.242596865E-1,-2.883199155E-1,-2.000524700E-1
2.052105007E1,-4.795151055E-1,-2.867927849E-1,-1.606528312E-1
2.053020262E1,-4.124746025E-1,-2.709107697E-1,-1.272089481E-1
2.053935517E1,-3.284831047E-1,-2.363978922E-1,-9.865183383E-2
2.054850772E1,-2.367033064E-1,-1.704263836E-1,-7.055285573E-2
2.055766027E1,-1.502684206E-1,-5.329642445E-2,-4.489727318E-2
2.056681283E1,-7.925742865E-2,6.551336497E-2,-3.344388679E-2
2.057596538E1,-4.260659590E-2,1.692046970E-1,-3.771981969E-2
2.058511793E1,-5.390727147E-2,2.680092454E-1,-4.871506989E-2
2.059427048E1,-9.361234307E-2,3.733803928E-1,-6.368082762E-2
2.060342304E1,-1.363716573E-1,4.763081372E-1,-8.002099395E-2
2.061257559E1,-1.658450365E-1,5.424323678E-1,-9.743013978E-2
2.062172809E1,-1.805053651E-1,5.297572613E-1,-1.151447073E-1
2.063088069E1,-1.901262105E-1,4.440859556E-1,-1.359135211E-1
2.064003324E1,-1.864611208E-1,3.103103936E-1,-1.455343664E-1
2.064918580E1,-1.721062213E-1,1.499630064E-1,-1.417165697E-1
2.065833835E1,-1.440072358E-1,-2.412846684E-2,-1.310267299E-1
2.066749085E1,-1.050657257E-1,-1.896680743E-1,-1.146865711E-1
2.067664340E1,-6.719319522E-2,-3.034383655E-1,-9.849911928E-2
2.068579595E1,-5.039490014E-2,-3.213056624E-1,-8.063183725E-2
2.069494856E1,-5.344913527E-2,-2.670929730E-1,-6.429167092E-2
2.070410106E1,-5.848862603E-2,-1.922641695E-1,-4.963133857E-2
2.071325361E1,-5.909947306E-2,-1.386623234E-1,-4.123219103E-2
2.072240616E1,-5.726693198E-2,-1.218640283E-1,-3.939964995E-2
2.073155871E1,-4.917320609E-2,-1.313321590E-1,-3.130592033E-2
2.074071126E1,-2.641914412E-2,-1.307213157E-1,-1.832541823E-2
2.074986382E1,4.734066315E-3,-1.070509851E-1,-4.734066315E-3
2.075901637E1,3.436015919E-2,-6.306997687E-2,5.192201585E-3
2.076816892E1,5.619794875E-2,-1.542389300E-2,8.399149403E-3
2.077732147E1,5.757235363E-2,3.771981969E-2,1.328592747E-2
2.078647402E1,4.046862945E-2,8.643488586E-2,1.130067464E-2
2.079562658E1,2.412846684E-2,1.232384369E-1,9.315420873E-3
2.080477913E1,1.481304597E-2,1.322484314E-1,7.330167107E-3
2.081393168E1,1.206423342E-2,1.026223376E-1,7.941014133E-3
2.082308423E1,1.313321572E-2,4.718795046E-2,1.236965694E-2
2.083223679E1,2.153236605E-2,-1.175880991E-2,2.092151903E-2
2.084138934E1,3.344388679E-2,-3.939964995E-2,3.390202299E-2
2.085054189E1,4.031591862E-2,-4.840964451E-2,4.184303805E-2
2.085969444E1,3.298575059E-2,-4.718795046E-2,4.184303805E-2
2.086884699E1,2.489202656E-2,-3.939964995E-2,3.558185324E-2
2.087799954E1,2.290677279E-2,-2.611372061E-2,2.947338112E-2
2.088715210E1,2.092151903E-2,-5.192201585E-3,2.031067200E-2
2.089630465E1,1.771457121E-2,1.282779220E-2,1.236965694E-2
2.090545720E1,1.527118124E-2,2.183778957E-2,7.482878864E-3
2.091460975E1,1.771457121E-2,2.428117767E-2,4.428642802E-3
2.092376231E1,2.626643144E-2,1.588202827E-2,3.206948051E-3
2.093291486E1,3.894151375E-2,-8.246437646E-3,1.527118147E-3
2.094206741E1,4.657710344E-2,-4.367557913E-2,3.512371797E-3
2.095121996E1,4.795150831E-2,-5.696150661E-2,2.901524538E-3
2.096037251E1,4.230117425E-2,-4.978405312E-2,3.970507067E-3
2.096952507E1,3.481829539E-2,-3.466558084E-2,3.359660041E-3
2.097867762E1,3.161134571E-2,-2.748812735E-2,6.413896102E-3
2.098783017E1,3.466558084E-2,-2.565558441E-2,8.246437646E-3
2.099698272E1,4.092676565E-2,-2.092151903E-2,6.413896102E-3
2.100613527E1,4.260659590E-2,-1.175880991E-2,1.527118147E-3
2.101528783E1,4.016320780E-2,-5.803049076E-3,-2.748812549E-3
2.102444038E1,3.344388679E-2,-8.246437646E-3,-3.970507067E-3
2.103359293E1,2.000524849E-2,-2.993151546E-2,-7.177455351E-3
2.104274548E1,1.160609815E-2,-6.077930331E-2,-1.206423342E-2
2.105189804E1,8.246437646E-3,-8.719844371E-2,-1.817270555E-2
2.106105059E1,9.009997360E-3,-9.391776472E-2,-2.061609551E-2
2.107020314E1,1.878355257E-2,-8.246438205E-2,-1.863084175E-2
2.107935569E1,3.084778599E-2,-6.368082762E-2,-1.740914769E-2
2.108850824E1,2.702999115E-2,-4.932591692E-2,-1.496575773E-2
2.109766080E1,1.710372418E-2,-4.504998401E-2,-1.267508045E-2
2.110681335E1,1.084253844E-2,-3.909422457E-2,-7.788302377E-3
2.111596590E1,8.246437646E-3,-2.336490713E-2,-2.290677279E-3
2.112511845E1,4.886778072E-3,-2.748812549E-3,-4.275931045E-3
2.113427100E1,6.719320081E-3,1.282779220E-2,-6.108472589E-3
2.114342356E1,1.649287529E-2,1.939439960E-2,-8.399149403E-3
2.115257611E1,2.764083818E-2,1.756185852E-2,-8.399149403E-3
2.116172866E1,3.512371704E-2,2.596100792E-3,-1.068982668E-2
2.117088121E1,3.344388679E-2,-1.252236869E-2,-1.007897966E-2
2.118003376E1,1.939439960E-2,-2.809897438E-2,-1.145338640E-2
2.118918632E1,2.290677279E-3,-3.848337755E-2,-1.389677543E-2
2.119833887E1,-3.206948051E-3,-4.031591862E-2,-1.588202827E-2
2.120749142E1,-7.024743594E-3,-3.298575059E-2,-1.588202827E-2
2.121664397E1,-8.399149403E-3,-2.336490713E-2,-1.466033421E-2
2.122579652E1,-9.620844387E-3,-1.374406368E-2,-1.588202827E-2
2.123494908E1,-1.068982761E-3,-2.901524538E-3,-1.466033421E-2
2.124410163E1,1.236965694E-2,5.497625098E-3,-1.145338640E-2
2.125325418E1,2.519745007E-2,9.773556143E-3,-9.009997360E-3
2.126240673E1,3.084778599E-2,9.773556143E-3,-8.246437646E-3
2.127155929E1,3.023693897E-2,5.650337320E-3,-4.581354558E-3
2.128071184E1,2.351761982E-2,1.374406274E-3,-3.512371797E-3
2.128986439E1,1.359135192E-2,7.635590737E-4,-4.123218823E-3
2.129901694E1,2.443389036E-3,4.886778072E-3,-3.665083554E-3
2.130816949E1,-3.054236295E-3,6.719320081E-3,-1.832541777E-3
2.131732204E1,-5.650337320E-3,1.160609815E-2,-1.221694518E-3
2.132647460E1,-3.817795310E-3,1.404948719E-2,-2.443389036E-3
2.133562715E1,-1.527118147E-4,1.634016447E-2,-4.275931045E-3
2.134477970E1,4.275931045E-3,1.511846948E-2,-4.886778072E-3
2.135393225E1,9.162709117E-3,1.099525020E-2,-5.344913341E-3
2.136308481E1,8.093725890E-3,3.206948051E-3,-5.344913341E-3
2.137223736E1,6.872031838E-3,7.635590737E-4,-5.497625098E-3
2.138138991E1,6.261184346E-3,1.527118147E-4,-6.108472589E-3
2.139054246E1,7.482878864E-3,-4.581354442E-4,-7.177455351E-3
2.139969501E1,1.420219894E-2,1.374406274E-3,-5.344913341E-3
2.140884757E1,1.603474095E-2,7.330167107E-3,-5.955760833E-3
2.141800012E1,1.160609815E-2,1.282779220E-2,-4.123218823E-3
2.142715267E1,5.344913341E-3,2.000524849E-2,-1.221694518E-3
2.143630522E1,2.290677279E-3,2.489202656E-2,-6.108472589E-4
2.144545777E1,4.123218823E-3,2.428117767E-2,1.221694518E-3
2.145461033E1,1.221694518E-2,2.000524849E-2,1.527118147E-4
2.146376288E1,1.893626526E-2,1.710372418E-2,-1.068982761E-3
2.147291543E1,1.786728203E-2,7.482878864E-3,-1.679830020E-3
2.148206798E1,9.926267900E-3,-4.581354558E-3,-1.679830020E-3
2.149122054E1,3.817795310E-3,-1.007897966E-2,-1.221694518E-3
2.150037309E1,-1.832541777E-3,-7.024743594E-3,6.108472589E-4
2.150952564E1,-5.497625098E-3,1.985253533E-3,3.054236295E-3
2.151867819E1,-6.261184346E-3,1.282779220E-2,2.443389036E-3
2.152783074E1,-6.413896102E-3,2.855710872E-2,3.665083554E-3
2.153698330E1,-6.566607859E-3,4.596625641E-2,4.275931045E-3
2.154613585E1,-1.068982761E-3,5.497625470E-2,1.221694518E-3
2.155528840E1,3.970507067E-3,5.131116882E-2,-3.054236295E-3
2.156444095E1,4.581354558E-3,4.169032723E-2,-5.497625098E-3
2.157359350E1,5.955760833E-3,2.061609551E-2,-6.108472589E-3
2.158274606E1,9.926267900E-3,1.527118147E-4,-6.566607859E-3
2.159189861E1,1.068982668E-2,-1.786728203E-2,-4.734066315E-3
2.160105116E1,6.413896102E-3,-2.932066843E-2,-4.581354442E-4
2.161020371E1,3.359660041E-3,-2.641914412E-2,1.832541777E-3
2.161935626E1,-4.581354442E-4,-1.847812906E-2,4.886778072E-3
2.162850882E1,-1.221694518E-3,-5.192201585E-3,9.162709117E-3
2.163766137E1,1.068982761E-3,9.926267900E-3,1.221694518E-2
2.164681392E1,6.566607859E-3,2.367033064E-2,1.160609815E-2
2.165596647E1,9.009997360E-3,3.329117596E-2,1.038440317E-2
2.166511902E1,9.620844387E-3,3.206948191E-2,8.551862091E-3
2.167427158E1,5.955760833E-3,2.199050039E-2,7.330167107E-3
2.168342413E1,7.330167107E-3,-3.054236295E-4,7.330167107E-3
2.169257668E1,6.413896102E-3,-2.748812735E-2,3.817795310E-3
2.170172923E1,9.620844387E-3,-4.627167806E-2,1.985253533E-3
2.171088178E1,8.551862091E-3,-5.222744122E-2,1.985253533E-3
2.172003434E1,3.512371797E-3,-5.222744122E-2,1.374406274E-3
2.172918689E1,-1.527118147E-4,-4.749337584E-2,1.221694518E-3
2.173833944E1,2.748812549E-3,-3.649812192E-2,3.054236295E-3
2.174749199E1,1.130067464E-2,-2.153236605E-2,3.206948051E-3
2.175664454E1,1.496575773E-2,-1.496575773E-2,4.428642802E-3
2.176579710E1,1.252236869E-2,-1.664558798E-2,2.596100792E-3
2.177494965E1,5.803049076E-3,-2.336490713E-2,1.374406274E-3
2.178410220E1,9.162708884E-4,-3.603998944E-2,3.054236295E-3
2.179325475E1,1.679830020E-3,-4.856235534E-2,3.054236295E-3
2.180240731E1,7.330167107E-3,-5.894676223E-2,3.206948051E-3
2.181155986E1,1.359135192E-2,-6.306997687E-2,3.206948051E-3
2.182071241E1,1.786728203E-2,-5.711421743E-2,2.596100792E-3
2.182986496E1,2.076880634E-2,-4.611896724E-2,3.206948051E-3
2.183901751E1,1.817270555E-2,-3.649812192E-2,2.596100792E-3
2.184817007E1,1.572931744E-2,-3.115320951E-2,3.817795310E-3
2.185732262E1,1.679829881E-2,-2.214321308E-2,2.596100792E-3
2.186647517E1,1.740914769E-2,-1.435491070E-2,1.527118147E-4
2.187562772E1,1.374406368E-2,-1.786728203E-2,-1.068982761E-3
2.188478027E1,7.024743594E-3,-2.580829710E-2,-1.068982761E-3
2.189393283E1,-3.054236295E-4,-3.665083647E-2,0.000000000E0
2.190308538E1,-1.985253533E-3,-5.283828825E-2,-1.832541777E-3
2.191223793E1,-1.221694518E-3,-6.322269142E-2,-2.443389036E-3
2.192139048E1,-3.054236295E-3,-6.368082762E-2,-4.275931045E-3
2.193054304E1,1.832541777E-3,-5.589252338E-2,-5.955760833E-3
2.193969559E1,9.162709117E-3,-4.627167806E-2,-5.955760833E-3
2.194884814E1,1.267508045E-2,-3.726168349E-2,-4.123218823E-3
2.195800069E1,9.620844387E-3,-3.481829539E-2,-3.512371797E-3
2.196715324E1,6.566607859E-3,-3.481829539E-2,-1.679830020E-3
2.197630580E1,4.581354442E-4,-4.260659590E-2,-1.221694518E-3
2.198545835E1,4.581354442E-4,-5.711421743E-2,6.108472589E-4
2.199461090E1,3.054236295E-3,-7.330167294E-2,7.635590737E-4
2.200376345E1,1.068982668E-2,-8.658760041E-2,-1.068982761E-3
2.201291600E1,1.817270555E-2,-9.391776472E-2,-2.748812549E-3
2.202206856E1,2.305948362E-2,-8.903098851E-2,-1.527118147E-3
2.203122111E1,2.107422985E-2,-7.818844914E-2,-1.527118147E-3
2.204037366E1,7.330167107E-3,-6.429167092E-2,-2.290677279E-3
2.204952621E1,-3.206948051E-3,-5.100574717E-2,-3.054236295E-3
2.205867876E1,-8.857285604E-3,-3.726168349E-2,-1.221694518E-3
2.206783132E1,-1.068982668E-2,-3.298575059E-2,-1.221694518E-3
2.207698387E1,-6.413896102E-3,-4.260659590E-2,-4.275931045E-3
2.208613642E1,3.665083554E-3,-5.772506446E-2,-4.734066315E-3
2.209528897E1,1.160609815E-2,-6.139015034E-2,-4.734066315E-3
2.210444152E1,1.893626526E-2,-5.344913527E-2,-2.901524538E-3
2.211359408E1,2.199050039E-2,-4.504998401E-2,-3.512371797E-3
2.212274663E1,1.710372418E-2,-4.504998401E-2,-4.123218823E-3
2.213189918E1,8.399149403E-3,-4.688252881E-2,-2.901524538E-3
2.214105173E1,1.679830020E-3,-4.443913698E-2,0.000000000E0
2.215020428E1,-4.581354558E-3,-3.726168349E-2,1.221694518E-3
2.215935684E1,-7.177455351E-3,-2.764083818E-2,-6.108472589E-4
2.216850939E1,-4.734066315E-3,-2.214321308E-2,6.108472589E-4
2.217766194E1,-1.527118147E-3,-2.809897438E-2,1.221694518E-3
2.218681449E1,-2.137965523E-3,-4.016320780E-2,0.000000000E0
2.219596704E1,1.679830020E-3,-4.504998401E-2,0.000000000E0
2.220511960E1,7.177455351E-3,-4.260659590E-2,1.985253533E-3
2.221427215E1,1.389677543E-2,-3.481829539E-2,3.206948051E-3
2.222342470E1,1.695101149E-2,-2.870982140E-2,3.817795310E-3
2.223257725E1,1.618745178E-2,-2.397575416E-2,6.261184346E-3
2.224172981E1,1.191152167E-2,-2.092151903E-2,5.039489828E-3
2.225088236E1,6.872031838E-3,-1.420219894E-2,3.206948051E-3
2.226003491E1,2.443389036E-3,-4.581354558E-3,2.443389036E-3
2.226918746E1,-1.832541777E-3,2.596100792E-3,2.443389036E-3
2.227834001E1,-4.275931045E-3,2.596100792E-3,1.832541777E-3
2.228749257E1,-0.000000000E0,-1.679830020E-3,3.665083554E-3
2.229664512E1,6.261184346E-3,-8.246437646E-3,6.719320081E-3
2.230579767E1,5.039489828E-3,-1.557660475E-2,6.719320081E-3
2.231495022E1,1.985253533E-3,-1.908897609E-2,5.497625098E-3
2.232410277E1,3.817795310E-3,-1.847812906E-2,4.886778072E-3
2.233325533E1,8.246437646E-3,-1.542389300E-2,2.596100792E-3
2.234240788E1,9.468132630E-3,-1.557660475E-2,1.985253533E-3
2.235156043E1,1.130067464E-2,-1.068982668E-2,7.635590737E-4
2.236071298E1,1.236965694E-2,7.635590737E-4,1.985253533E-3
2.236986554E1,1.099525020E-2,1.221694518E-2,4.428642802E-3
2.237901809E1,9.620844387E-3,2.244863659E-2,4.275931045E-3
2.238817064E1,7.177455351E-3,3.023693897E-2,4.886778072E-3
2.239732319E1,4.123218823E-3,2.672456764E-2,4.275931045E-3
2.240647574E1,-1.985253533E-3,9.773556143E-3,3.054236295E-3
2.241562830E1,-7.941014133E-3,-5.344913341E-3,1.832541777E-3
2.242478085E1,-7.330167107E-3,-8.399149403E-3,-2.443389036E-3
2.243393340E1,-6.108472589E-3,-4.734066315E-3,-3.665083554E-3
2.244308595E1,-2.443389036E-3,1.985253533E-3,-5.497625098E-3
2.245223850E1,6.108472589E-3,9.162709117E-3,-4.886778072E-3
2.246139106E1,1.404948719E-2,1.695101149E-2,-2.290677279E-3
2.247054361E1,1.832541823E-2,1.588202827E-2,1.374406274E-3
2.247969616E1,1.588202827E-2,1.038440317E-2,5.650337320E-3
2.248884871E1,1.359135192E-2,2.596100792E-3,6.872031838E-3
2.249800126E1,9.315420873E-3,-1.679830020E-3,9.315420873E-3
2.250715382E1,6.719320081E-3,2.596100792E-3,6.108472589E-3
2.251630637E1,7.941014133E-3,1.038440317E-2,1.221694518E-3
2.252545892E1,1.282779220E-2,1.695101149E-2,-1.679830020E-3
2.253461147E1,1.527118124E-2,1.466033421E-2,-4.123218823E-3
2.254376402E1,1.099525020E-2,1.404948719E-2,-5.344913341E-3
2.255291658E1,3.665083554E-3,1.343864016E-2,-6.108472589E-3
2.256206913E1,-5.650337320E-3,1.572931744E-2,-4.275931045E-3
2.257122168E1,-1.496575773E-2,2.428117767E-2,-5.650337320E-3
2.258037423E1,-1.679829881E-2,3.084778599E-2,-6.872031838E-3
2.258952678E1,-1.389677543E-2,3.802524135E-2,-9.315420873E-3
2.259867934E1,-7.024743594E-3,3.985778242E-2,-1.221694518E-2
2.260783189E1,-5.192201585E-3,3.558185324E-2,-1.710372418E-2
2.261698444E1,-3.206948051E-3,2.901524492E-2,-1.771457121E-2
2.262613699E1,-3.817795310E-3,1.756185852E-2,-1.527118124E-2
2.263528955E1,-1.832541777E-3,1.985253533E-3,-9.162709117E-3
2.264444210E1,7.635590737E-4,-1.191152167E-2,-4.886778072E-3
2.265359465E1,3.359660041E-3,-2.519745007E-2,1.221694518E-3
2.266274720E1,6.413896102E-3,-2.580829710E-2,6.261184346E-3
2.267189975E1,6.872031838E-3,-1.725643501E-2,1.236965694E-2