"Time (s)","Gyroscope x (rad/s)","Gyroscope y (rad/s)","Gyroscope z (rad/s)"
7.721988973E0,1.939439960E-2,1.817270555E-2,-1.771457121E-2
7.731140796E0,1.740914769E-2,2.535016090E-2,-1.649287529E-2
7.740292671E0,1.252236869E-2,3.329117596E-2,-1.771457121E-2
7.749444494E0,3.817795310E-3,3.497100621E-2,-1.603474095E-2
7.758596317E0,-4.581354442E-4,2.596100792E-2,-1.481304597E-2
7.767748192E0,-2.748812549E-3,1.267508045E-2,-1.542389300E-2
7.776900015E0,-2.596100792E-3,-6.566607859E-3,-1.542389300E-2
7.786051838E0,-3.054236295E-3,-2.519745007E-2,-1.603474095E-2
7.795203713E0,-1.679830020E-3,-3.848337755E-2,-1.542389300E-2
7.804355536E0,2.137965523E-3,-4.749337584E-2,-1.404948719E-2
7.813507359E0,7.024743594E-3,-4.627167806E-2,-1.282779220E-2
7.822659234E0,8.246437646E-3,-4.092676565E-2,-1.404948719E-2
7.831811057E0,9.315420873E-3,-3.481829539E-2,-1.527118124E-2
7.840962880E0,8.704573847E-3,-2.092151903E-2,-1.649287529E-2
7.850114755E0,1.038440317E-2,-1.068982761E-3,-1.527118124E-2
7.859266577E0,7.788302377E-3,1.389677543E-2,-1.603474095E-2
7.868418400E0,3.359660041E-3,1.695101149E-2,-1.603474095E-2
7.877570275E0,4.123218823E-3,8.551862091E-3,-1.420219894E-2
7.886722098E0,7.177455351E-3,-1.679830020E-3,-1.404948719E-2
7.895873921E0,1.221694518E-2,-9.620844387E-3,-1.221694518E-2
7.905025796E0,1.404948719E-2,-1.191152167E-2,-1.160609815E-2
7.914177619E0,1.160609815E-2,-1.374406368E-2,-1.038440317E-2
7.923329442E0,3.054236295E-3,-1.374406368E-2,-9.926267900E-3
7.932481317E0,-7.635590737E-4,-1.007897966E-2,-1.053711493E-2
7.941633140E0,-7.635590737E-4,-4.123218823E-3,-1.114796288E-2
7.950784963E0,2.901524538E-3,3.054236295E-3,-1.298050396E-2
7.959936838E0,2.137965523E-3,1.206423342E-2,-1.542389300E-2
7.969088661E0,2.748812549E-3,2.122694254E-2,-1.420219894E-2
7.978240484E0,2.596100792E-3,2.596100792E-2,-1.359135192E-2
7.987392359E0,-2.290677279E-3,2.412846684E-2,-1.298050396E-2
7.996544182E0,-7.177455351E-3,2.000524849E-2,-1.175880991E-2
8.005696005E0,-8.857285604E-3,1.389677543E-2,-1.175880991E-2
8.014847880E0,-3.206948051E-3,3.665083554E-3,-1.359135192E-2
8.023999702E0,5.955760833E-3,6.108472589E-4,-1.603474095E-2
8.033151525E0,1.328592747E-2,6.719320081E-3,-1.710372418E-2
8.042303400E0,1.389677543E-2,1.634016447E-2,-1.466033421E-2
8.051455223E0,5.803049076E-3,2.000524849E-2,-1.175880991E-2
8.060607046E0,-3.054236295E-4,1.389677543E-2,-9.926267900E-3
8.069758921E0,-3.970507067E-3,9.773556143E-3,-7.482878864E-3
8.078910744E0,-1.267508045E-2,1.572931744E-2,-8.857285604E-3
8.088062567E0,-1.343864016E-2,2.718270384E-2,-1.130067464E-2
8.097214442E0,-9.773556143E-3,3.802524135E-2,-1.053711493E-2
8.106366265E0,-2.443389036E-3,4.352286831E-2,-9.315420873E-3
8.115518088E0,6.872031838E-3,4.520269856E-2,-9.315420873E-3
8.124669963E0,1.481304597E-2,4.703523964E-2,-9.773556143E-3
8.133821786E0,1.542389300E-2,4.230117425E-2,-1.099525020E-2
8.142973609E0,1.252236869E-2,3.206948191E-2,-1.038440317E-2
8.152125484E0,1.313321572E-2,2.305948362E-2,-7.330167107E-3
8.161277307E0,1.252236869E-2,1.450762246E-2,-4.886778072E-3
8.170429130E0,7.635590620E-3,7.330167107E-3,-1.985253533E-3
8.179581005E0,5.344913341E-3,7.635590737E-4,-2.596100792E-3
8.188732827E0,4.123218823E-3,-4.581354442E-4,-4.428642802E-3
8.197884650E0,7.788302377E-3,4.886778072E-3,-1.053711493E-2
8.207036525E0,1.634016447E-2,1.939439960E-2,-1.649287529E-2
8.216188348E0,1.985253580E-2,3.084778599E-2,-1.954711229E-2
8.225340171E0,1.557660475E-2,2.596100792E-2,-1.832541823E-2
8.234492046E0,9.620844387E-3,6.108472589E-3,-1.893626526E-2
8.243643869E0,1.221694518E-3,-1.313321572E-2,-1.847812906E-2
8.252795692E0,0.000000000E0,-2.458660305E-2,-1.725643501E-2
8.261947567E0,8.093725890E-3,-3.298575059E-2,-1.404948719E-2
8.271099390E0,1.374406368E-2,-4.153761268E-2,-1.527118124E-2
8.280251213E0,1.740914769E-2,-4.566083103E-2,-1.343864016E-2
8.289403088E0,2.244863659E-2,-4.932591692E-2,-1.160609815E-2
8.298554911E0,2.611372061E-2,-5.589252338E-2,-1.023169141E-2
8.307706734E0,2.183778957E-2,-5.833591148E-2,-9.162709117E-3
8.316858609E0,1.450762246E-2,-5.650337040E-2,-9.162709117E-3
8.326010432E0,1.068982668E-2,-5.528167635E-2,-8.551862091E-3
8.335162255E0,9.468132630E-3,-5.299099907E-2,-7.330167107E-3
8.344314130E0,1.328592747E-2,-5.360184610E-2,-7.941014133E-3
8.353465952E0,1.801999472E-2,-4.993676394E-2,-7.330167107E-3
8.362617827E0,2.473931387E-2,-3.603998944E-2,-6.566607859E-3
8.371769650E0,2.764083818E-2,-1.481304597E-2,-7.788302377E-3
8.380921473E0,2.687728032E-2,3.206948051E-3,-7.941014133E-3
8.390073348E0,2.305948362E-2,1.160609815E-2,-6.719320081E-3
8.399225171E0,1.634016447E-2,9.773556143E-3,-6.719320081E-3
8.408376994E0,1.511846948E-2,5.497625098E-3,-3.665083554E-3
8.417528869E0,1.817270555E-2,2.596100792E-3,-1.832541777E-3
8.426680692E0,2.565558441E-2,3.817795310E-3,-0.000000000E0
8.435832515E0,3.176405653E-2,4.428642802E-3,1.374406274E-3
8.444984390E0,3.359659761E-2,1.374406274E-3,7.635590737E-4
8.454136213E0,3.191677108E-2,-8.246437646E-3,-2.290677279E-3
8.463288036E0,2.504473738E-2,-8.246437646E-3,-4.886778072E-3
8.472439911E0,1.466033421E-2,-1.679830020E-3,-7.330167107E-3
8.481591734E0,7.788302377E-3,2.443389036E-3,-6.719320081E-3
8.490743557E0,8.399149403E-3,7.330167107E-3,-7.941014133E-3
8.499895432E0,8.857285604E-3,1.634016447E-2,-6.719320081E-3
8.509047255E0,1.267508045E-2,1.389677543E-2,-7.941014133E-3
8.518199130E0,2.137965336E-2,6.108472589E-3,-7.941014133E-3
8.527350952E0,2.870982140E-2,1.527118147E-4,-5.955760833E-3
8.536502775E0,3.558185324E-2,-6.413896102E-3,-1.679830020E-3
8.545654650E0,3.863608837E-2,-6.413896102E-3,1.527118147E-4
8.554806473E0,3.374931216E-2,-2.748812549E-3,3.206948051E-3
8.563958296E0,2.000524849E-2,3.206948051E-3,7.941014133E-3
8.573110171E0,1.068982668E-2,9.773556143E-3,1.038440317E-2
8.582261994E0,1.130067464E-2,1.893626526E-2,1.221694518E-2
8.591413817E0,1.481304597E-2,2.794626169E-2,1.099525020E-2
8.600565692E0,1.725643501E-2,3.145863488E-2,5.497625098E-3
8.609717515E0,1.618745178E-2,2.428117767E-2,2.443389036E-3
8.618869338E0,1.695101149E-2,1.221694518E-2,-1.221694518E-3
8.628021213E0,1.939439960E-2,9.773556143E-3,-6.108472589E-4
8.637173036E0,2.489202656E-2,7.941014133E-3,-0.000000000E0
8.646324911E0,2.305948362E-2,1.985253533E-3,1.832541777E-3
8.655476734E0,2.565558441E-2,-4.581354442E-4,6.719320081E-3
8.664628557E0,2.993151546E-2,-8.246437646E-3,9.315420873E-3
8.673780432E0,3.313846514E-2,-1.542389300E-2,9.926267900E-3
8.682932255E0,3.619270027E-2,-2.214321308E-2,1.236965694E-2
8.692084077E0,3.939964995E-2,-2.092151903E-2,1.420219894E-2
8.701235952E0,3.924693540E-2,-1.603474095E-2,1.359135192E-2
8.710387775E0,3.436015919E-2,-1.359135192E-2,1.359135192E-2
8.719539598E0,3.008422814E-2,-1.252236869E-2,1.114796288E-2
8.728691473E0,2.382304333E-2,-1.496575773E-2,7.941014133E-3
8.737843296E0,2.260134928E-2,-1.191152167E-2,3.054236295E-3
8.746995171E0,2.015795931E-2,-1.130067464E-2,-0.000000000E0
8.756146994E0,1.969982497E-2,-2.031067200E-2,-3.665083554E-3
8.765298817E0,1.786728203E-2,-3.176405653E-2,-6.108472589E-3
8.774450692E0,1.679829881E-2,-3.970507160E-2,-9.162709117E-3
8.783602515E0,2.061609551E-2,-4.932591692E-2,-9.773556143E-3
8.792754338E0,2.183778957E-2,-5.772506446E-2,-7.941014133E-3
8.801906213E0,1.634016447E-2,-6.200099736E-2,-4.886778072E-3
8.811058036E0,1.023169141E-2,-6.200099736E-2,-2.443389036E-3
8.820209911E0,7.788302377E-3,-6.734590977E-2,-0.000000000E0
8.829361734E0,5.344913341E-3,-7.223268598E-2,1.221694518E-3
8.838513557E0,4.734066315E-3,-6.978929788E-2,3.054236295E-3
8.847665432E0,6.413896102E-3,-6.490252167E-2,4.886778072E-3
8.856817255E0,9.468132630E-3,-5.589252338E-2,4.886778072E-3
8.865969077E0,9.926267900E-3,-4.566083103E-2,5.497625098E-3
8.875120952E0,1.053711493E-2,-3.603998944E-2,5.497625098E-3
8.884272775E0,8.551862091E-3,-2.580829710E-2,4.886778072E-3
8.893424650E0,1.099525020E-2,-1.435491070E-2,6.108472589E-3
8.902576473E0,1.710372418E-2,-1.007897966E-2,7.941014133E-3
8.911728296E0,2.199050039E-2,-1.252236869E-2,9.162709117E-3
8.920880171E0,1.771457121E-2,-1.191152167E-2,1.221694518E-2
8.930031994E0,9.620844387E-3,-3.970507067E-3,1.511846948E-2
8.939183817E0,-3.054236295E-4,4.428642802E-3,1.267508045E-2
8.948335692E0,-9.620844387E-3,1.160609815E-2,1.267508045E-2
8.957487515E0,-1.466033421E-2,1.221694518E-2,1.191152167E-2
8.966639390E0,-1.206423342E-2,1.160609815E-2,1.206423342E-2
8.975791213E0,-6.566607859E-3,9.773556143E-3,1.145338640E-2
8.984943036E0,3.054236295E-4,6.872031838E-3,1.450762246E-2
8.994094911E0,1.527118147E-3,1.527118147E-4,1.206423342E-2
9.003246734E0,-2.137965523E-3,-4.734066315E-3,1.267508045E-2
9.012398557E0,-6.413896102E-3,-1.679830020E-3,1.389677543E-2
9.021550432E0,-5.344913341E-3,6.872031838E-3,1.450762246E-2
9.030702255E0,-2.901524538E-3,1.954711229E-2,1.817270555E-2
9.039854130E0,-3.054236295E-3,2.428117767E-2,1.939439960E-2
9.049005952E0,-7.330167107E-3,2.733541466E-2,2.000524849E-2
9.058157775E0,-1.038440317E-2,2.916795574E-2,2.046338283E-2
9.067309650E0,-1.481304597E-2,4.184303805E-2,1.924168877E-2
9.076461473E0,-1.679829881E-2,5.680879578E-2,1.496575773E-2
9.085613348E0,-2.000524849E-2,7.253811508E-2,1.374406368E-2
9.094765171E0,-2.321219631E-2,8.628217876E-2,1.435491070E-2
9.103916994E0,-2.764083818E-2,9.116895497E-2,1.542389300E-2
9.113068869E0,-2.519745007E-2,9.529217333E-2,1.481304597E-2
9.122220692E0,-1.893626526E-2,8.399149776E-2,1.801999472E-2
9.131372515E0,-1.267508045E-2,6.887302548E-2,1.924168877E-2
9.140524390E0,-8.093725890E-3,4.535540938E-2,1.878355257E-2
9.149676213E0,-8.551862091E-3,2.489202656E-2,1.695101149E-2
9.158828088E0,-9.009997360E-3,1.527118124E-2,1.695101149E-2
9.167979911E0,-7.788302377E-3,9.162709117E-3,1.695101149E-2
9.177131734E0,-1.267508045E-2,1.985253533E-3,1.740914769E-2
9.186283609E0,-2.000524849E-2,6.261184346E-3,1.740914769E-2
9.195435432E0,-2.260134928E-2,1.160609815E-2,1.740914769E-2
9.204587255E0,-1.893626526E-2,9.773556143E-3,1.557660475E-2
9.213739130E0,-1.511846948E-2,-4.581354442E-4,1.435491070E-2
9.222890952E0,-8.246437646E-3,-1.191152167E-2,1.206423342E-2
9.232042827E0,-1.221694518E-3,-2.275406010E-2,9.009997360E-3
9.241194650E0,1.221694518E-3,-3.481829539E-2,5.955760833E-3
9.250346525E0,2.596100792E-3,-3.970507160E-2,7.330167107E-3
9.259498348E0,1.832541777E-3,-3.603998944E-2,7.788302377E-3
9.268650171E0,-1.832541777E-3,-2.932066843E-2,8.399149403E-3
9.277802046E0,-8.704573847E-3,-1.786728203E-2,1.084253844E-2
9.286953869E0,-1.511846948E-2,2.596100792E-3,1.252236869E-2
9.296105692E0,-1.954711229E-2,1.939439960E-2,1.252236869E-2
9.305257567E0,-1.969982497E-2,2.718270384E-2,1.007897966E-2
9.314409390E0,-1.832541823E-2,2.535016090E-2,7.635590620E-3
9.323561265E0,-1.649287529E-2,2.183778957E-2,4.581354558E-3
9.332713088E0,-1.328592747E-2,1.328592747E-2,1.679830020E-3
9.341864911E0,-7.024743594E-3,7.330167107E-3,3.512371797E-3
9.351016786E0,-3.970507067E-3,6.108472589E-3,4.734066315E-3
9.360168609E0,-2.137965523E-3,3.206948051E-3,6.566607859E-3
9.369320484E0,-9.162708884E-4,3.817795310E-3,7.177455351E-3
9.378472307E0,9.162708884E-4,1.038440317E-2,9.009997360E-3
9.387624182E0,-1.068982761E-3,2.122694254E-2,9.620844387E-3
9.396776005E0,-4.886778072E-3,3.268032894E-2,1.267508045E-2
9.405927827E0,-8.093725890E-3,3.802524135E-2,1.206423342E-2
9.415079702E0,-1.542389300E-2,3.802524135E-2,9.468132630E-3
9.424231525E0,-2.153236605E-2,3.802524135E-2,8.857285604E-3
9.433383348E0,-2.535016090E-2,4.046862945E-2,6.413896102E-3
9.442535223E0,-2.657185495E-2,4.596625641E-2,7.635590620E-3
9.451687046E0,-2.657185495E-2,5.253286287E-2,8.246437646E-3
9.460838921E0,-2.672456764E-2,5.848862603E-2,1.007897966E-2
9.469990744E0,-2.428117767E-2,5.971032009E-2,1.191152167E-2
9.479142567E0,-2.000524849E-2,6.032116711E-2,1.313321572E-2
9.488294442E0,-9.926267900E-3,5.375456065E-2,1.374406368E-2
9.497446265E0,8.551862091E-3,4.779879749E-2,1.328592747E-2
9.506598140E0,2.519745007E-2,4.123219103E-2,1.527118124E-2
9.515749963E0,3.878879920E-2,4.550812021E-2,1.481304597E-2
9.524901786E0,4.474456236E-2,5.696150661E-2,1.786728203E-2
9.534053661E0,4.291202128E-2,6.536065787E-2,2.153236605E-2
9.543205484E0,3.787253052E-2,7.070557028E-2,2.275406010E-2
9.552357359E0,3.848337755E-2,6.948387623E-2,2.092151903E-2
9.561509182E0,3.665083647E-2,6.765133142E-2,1.771457121E-2
9.570661057E0,3.176405653E-2,6.520794332E-2,1.099525020E-2
9.579812880E0,2.932066843E-2,7.375980914E-2,2.443389036E-3
9.588964702E0,3.527642787E-2,9.116895497E-2,-2.443389036E-3
9.598116577E0,3.573456407E-2,1.099525094E-1,-3.054236295E-3
9.607268400E0,3.313846514E-2,1.224748790E-1,-0.000000000E0
9.616420223E0,2.137965336E-2,1.308740228E-1,5.344913341E-3
9.625572098E0,1.145338640E-2,1.310267299E-1,1.145338640E-2
9.634723921E0,5.344913341E-3,1.218640283E-1,1.328592747E-2
9.643875796E0,5.497625098E-3,1.116323397E-1,1.267508045E-2
9.653027619E0,1.298050396E-2,1.038440317E-1,8.399149403E-3
9.662179494E0,2.550287358E-2,8.765657991E-2,4.886778072E-3
9.671331317E0,3.924693540E-2,7.559234649E-2,-2.443389036E-3
9.680483140E0,4.963133857E-2,7.009471953E-2,-7.788302377E-3
9.689635015E0,5.039490014E-2,7.482878864E-2,-1.145338640E-2
9.698786838E0,4.230117425E-2,8.338065445E-2,-1.084253844E-2
9.707938713E0,3.359659761E-2,9.177979827E-2,-1.099525020E-2
9.717090536E0,2.672456764E-2,9.284878522E-2,-1.466033421E-2
9.726242359E0,2.932066843E-2,8.994726092E-2,-1.771457121E-2
9.735394234E0,3.863608837E-2,8.444963396E-2,-2.199050039E-2
9.744546057E0,4.352286831E-2,7.727217674E-2,-2.672456764E-2
9.753697932E0,5.222744122E-2,7.605048269E-2,-2.916795574E-2
9.762849755E0,5.528167635E-2,7.543963939E-2,-2.855710872E-2
9.772001630E0,5.299099907E-2,6.642963737E-2,-2.733541466E-2
9.781153452E0,4.993676394E-2,5.314370990E-2,-2.733541466E-2
9.790305275E0,4.810422286E-2,4.535540938E-2,-2.550287358E-2
9.799457150E0,5.253286287E-2,4.474456236E-2,-2.428117767E-2
9.808608973E0,6.291726977E-2,4.535540938E-2,-2.473931387E-2
9.817760848E0,7.467607409E-2,4.657710344E-2,-2.596100792E-2
9.826912671E0,9.376505762E-2,5.192201585E-2,-2.702999115E-2
9.836064494E0,1.122431830E-1,5.680879578E-2,-2.932066843E-2
9.845216369E0,1.337755471E-1,6.352811307E-2,-3.161134571E-2
9.854368192E0,1.595838517E-1,6.658235192E-2,-3.512371704E-2
9.863520067E0,1.867665499E-1,7.070557028E-2,-3.863608837E-2
9.872671890E0,2.137965411E-1,7.207997888E-2,-4.138490185E-2
9.881823765E0,2.385358512E-1,7.146912813E-2,-4.245388508E-2
9.890975588E0,2.570139766E-1,6.902574003E-2,-4.169032723E-2
9.900127411E0,2.730487287E-1,6.368082762E-2,-4.230117425E-2
9.909279286E0,2.880144715E-1,5.222744122E-2,-4.153761268E-2
9.918431109E0,3.023693860E-1,3.542914242E-2,-4.321744293E-2
9.927582984E0,3.167243004E-1,1.496575773E-2,-4.428642616E-2
9.936734807E0,3.371876776E-1,-1.404948719E-2,-5.146388337E-2
9.945886630E0,3.652866483E-1,-4.596625641E-2,-5.619794875E-2
9.955038505E0,4.025483429E-1,-7.773031294E-2,-5.405998230E-2
9.964190327E0,4.509579837E-1,-1.174353883E-1,-4.275930673E-2
9.973342202E0,5.115845799E-1,-1.563768983E-1,-1.969982497E-2
9.982494025E0,5.851916671E-1,-1.934858710E-1,1.206423342E-2
9.991645900E0,6.685723066E-1,-2.293731421E-1,5.421269313E-2
1.000079772E1,7.757760286E-1,-2.669402659E-1,1.081199646E-1
1.000994955E1,9.188669920E-1,-3.020639718E-1,1.763821393E-1
1.001910142E1,1.098914266E0,-3.471139669E-1,2.631224692E-1
1.002825324E1,1.303089857E0,-4.217900336E-1,3.628432751E-1
1.003740512E1,1.526812673E0,-5.296045542E-1,4.640912116E-1
1.004655694E1,1.774664044E0,-6.505523324E-1,5.618267655E-1
1.005570882E1,2.045880079E0,-7.737907767E-1,6.627692580E-1
1.006486064E1,2.323662996E0,-8.657232523E-1,7.521057129E-1
1.007399976E1,2.582509518E0,-8.748859763E-1,8.131904006E-1
1.008316434E1,2.841203213E0,-8.086090684E-1,8.386932611E-1
1.009231616E1,3.088443756E0,-7.310314775E-1,8.287670016E-1
1.010146804E1,3.268185616E0,-6.093201637E-1,7.744016051E-1
1.011061986E1,3.337669373E0,-4.149180055E-1,6.746807694E-1
1.011977173E1,3.271850586E0,-2.154763639E-1,5.451811552E-1
1.012891080E1,3.067827702E0,-1.626380831E-1,4.057552814E-1
1.013807538E1,2.788212299E0,-2.738122940E-1,3.031329513E-1
1.014722726E1,2.516843319E0,-4.472928941E-1,2.878617644E-1
1.015636632E1,2.337254286E0,-6.111527085E-1,3.672719002E-1
1.016553095E1,2.300297976E0,-7.444701195E-1,5.002838969E-1
1.017468278E1,2.362604380E0,-8.238802552E-1,6.497887969E-1
1.018383460E1,2.465379477E0,-8.593093753E-1,7.841751575E-1
1.019298647E1,2.568459988E0,-8.590039611E-1,8.722898960E-1
1.020213830E1,2.643594265E0,-7.924215794E-1,8.990144730E-1
1.021127741E1,2.656269312E0,-6.629219651E-1,8.611419201E-1
1.022044199E1,2.611066580E0,-6.024481058E-1,7.710419297E-1
1.022959387E1,2.517301559E0,-6.699467301E-1,6.500942111E-1
1.023873293E1,2.398339033E0,-7.742488980E-1,5.577035546E-1
1.024789757E1,2.283041716E0,-8.313631415E-1,5.031854510E-1
1.025704939E1,2.175379753E0,-8.290724158E-1,4.785988331E-1
1.026620121E1,2.076880693E0,-7.719582319E-1,4.847072959E-1
1.027535309E1,1.987544298E0,-7.136223316E-1,4.857762754E-1
1.028450491E1,1.909966707E0,-6.589514613E-1,4.863871336E-1
1.029365679E1,1.845064163E0,-5.764871240E-1,4.932591617E-1
1.030280861E1,1.793905735E0,-4.928010404E-1,4.982986450E-1
1.031196048E1,1.743358135E0,-4.254551232E-1,4.856235683E-1
1.032111231E1,1.695711970E0,-3.823903799E-1,4.407263100E-1
1.033026418E1,1.636612535E0,-3.634541333E-1,3.793361485E-1
1.033941600E1,1.543611050E0,-3.474193811E-1,3.413109183E-1
1.034856783E1,1.428924441E0,-3.439069986E-1,3.277195692E-1
1.035771970E1,1.325996637E0,-3.274141252E-1,2.909159958E-1
1.036687152E1,1.239103675E0,-2.970244884E-1,2.396048307E-1
1.037602340E1,1.153432369E0,-2.895416021E-1,1.919587553E-1
1.038517522E1,1.061957955E0,-3.054236174E-1,1.565296054E-1
1.039432705E1,9.675820470E-1,-3.454341292E-1,1.259872466E-1
1.040347892E1,8.638907075E-1,-3.964398801E-1,1.039967462E-1
1.041263074E1,7.582141757E-1,-4.346178174E-1,8.857285231E-2
1.042178262E1,6.612421870E-1,-4.613423944E-1,7.085828483E-2
1.043093444E1,5.665608048E-1,-4.928010404E-1,5.925218388E-2
1.044008632E1,4.769189954E-1,-5.219689608E-1,5.619794875E-2
1.044923814E1,3.944546282E-1,-5.462501645E-1,5.986303091E-2
1.045839002E1,3.019112647E-1,-5.306735635E-1,5.787777901E-2
1.046754184E1,1.881409585E-1,-4.747810364E-1,4.734066129E-2
1.047669371E1,6.872031838E-2,-4.190412164E-1,3.787253052E-2
1.048584554E1,-6.093201414E-2,-4.030064642E-1,3.512371704E-2
1.049499736E1,-2.044811249E-1,-3.988832533E-1,3.649812192E-2
1.050414923E1,-3.600944579E-1,-3.924693763E-1,4.764608666E-2
1.051330106E1,-5.066977739E-1,-4.034646153E-1,7.162184268E-2
1.052245293E1,-6.177192926E-1,-4.210264683E-1,1.050657257E-1
1.053160476E1,-6.943806410E-1,-4.161396921E-1,1.406475753E-1
1.054075663E1,-7.663078904E-1,-3.752129376E-1,1.705790907E-1
1.054990845E1,-8.631271720E-1,-3.113794029E-1,1.973036677E-1
1.055906033E1,-9.729269743E-1,-2.548760176E-1,2.257080674E-1
1.056821215E1,-1.087460876E0,-2.086043358E-1,2.487675399E-1
1.057736397E1,-1.179087877E0,-1.688992679E-1,2.615953386E-1
1.058651585E1,-1.185654521E0,-1.243074164E-1,2.614426315E-1
1.059565491E1,-9.860602021E-1,-1.023169160E-1,2.506000996E-1
1.060481955E1,-5.120427012E-1,-8.353336155E-2,2.276933193E-1
1.061397137E1,-5.833591148E-2,-1.307213157E-1,1.795890927E-1
1.062311048E1,-2.168507688E-2,-3.495573401E-1,1.165191159E-1
1.063227507E1,-2.098260373E-1,-5.969504714E-1,8.857285231E-2
1.064142694E1,-2.362451702E-1,-4.042281806E-1,8.093725890E-2
1.065056600E1,-2.414373755E-1,4.080459774E-1,6.200099736E-2
1.065973064E1,-4.511106908E-1,7.667660117E-1,6.749862432E-2
1.066888246E1,-7.443174124E-1,3.251234591E-1,6.154286116E-2
1.067802158E1,-9.199360013E-1,5.008947477E-2,5.314370990E-2
1.068718616E1,-1.028819442E0,5.263976455E-1,1.563768983E-1
1.069633798E1,-1.203369141E0,1.283237338E0,2.292204350E-1
1.070547710E1,-1.363563776E0,1.523605824E0,1.264453828E-1
1.071464168E1,-1.461910248E0,1.172674060E0,-6.383354217E-2
1.072379356E1,-1.419150949E0,5.260922313E-1,-2.206685692E-1
1.073293262E1,-1.255749226E0,1.302631795E-1,-2.838912606E-1
1.074209726E1,-1.231468081E0,9.834641218E-2,-2.843494117E-1
1.075124908E1,-1.386317849E0,4.382828996E-2,-2.884726226E-1
1.076038819E1,-1.492758036E0,-1.250709742E-1,-2.768665254E-1
1.076955278E1,-1.493063450E0,-2.669402659E-1,-1.968455315E-1
1.077870460E1,-1.413042426E0,-3.187095523E-1,-5.268557742E-2
1.078785647E1,-1.363563776E0,-3.361186981E-1,9.849911928E-2
1.079700830E1,-1.393495321E0,-3.610107303E-1,1.979145110E-1
1.080616017E1,-1.431215167E0,-4.355340898E-1,2.721324563E-1
1.081531199E1,-1.415943980E0,-5.238015056E-1,3.449759781E-1
1.082446387E1,-1.348750710E0,-5.668662786E-1,4.103366435E-1
1.083361569E1,-1.258650780E0,-5.859552622E-1,4.457657933E-1
1.084275481E1,-1.173437595E0,-5.320479870E-1,4.431696832E-1
1.085191939E1,-1.075702071E0,-4.790569544E-1,4.005630910E-1
1.086107127E1,-9.804098606E-1,-4.847072959E-1,3.229855001E-1
1.087022309E1,-9.173398614E-1,-4.656183124E-1,2.287622988E-1
1.087937496E1,-8.884773254E-1,-4.237752855E-1,1.398840249E-1
1.088852679E1,-8.677085042E-1,-3.558185399E-1,7.574506104E-2
1.089767861E1,-8.510629535E-1,-2.156290859E-1,5.207473040E-2
1.090683048E1,-8.127322793E-1,-1.832541823E-2,6.306997687E-2
1.091598231E1,-7.705838084E-1,2.191414535E-1,8.521319181E-2
1.092513418E1,-7.711946368E-1,4.234698713E-1,1.064401343E-1
1.093428600E1,-7.870767117E-1,6.157340407E-1,1.207950488E-1
1.094343788E1,-7.745543122E-1,7.696675658E-1,1.482831687E-1
1.095258970E1,-7.276718020E-1,9.013051391E-1,1.863084137E-1
1.096174158E1,-7.252284288E-1,1.030346632E0,2.070772201E-1
1.097089340E1,-7.968502641E-1,1.121057391E0,1.937913001E-1
1.098004528E1,-8.696937561E-1,1.219098449E0,1.626380831E-1
1.098919710E1,-9.301676750E-1,1.318819284E0,1.149920002E-1
1.099834897E1,-9.775083065E-1,1.387234092E0,6.642963737E-2
1.100750080E1,-9.837695360E-1,1.355775476E0,2.305948362E-2
1.101665267E1,-9.542961121E-1,1.239409089E0,-1.756185852E-2
1.102580449E1,-9.278770089E-1,1.127776742E0,-4.413371533E-2
1.103495632E1,-9.113841057E-1,1.015686274E0,-5.680879578E-2
1.104410819E1,-9.216157794E-1,9.234483242E-1,-7.269082218E-2
1.105326002E1,-9.312366247E-1,9.173398614E-1,-9.529217333E-2
1.106241189E1,-9.403993487E-1,9.816315174E-1,-1.308740228E-1
1.107156371E1,-9.796462655E-1,1.066997409E0,-1.849340051E-1
1.108071559E1,-9.910996556E-1,1.120293856E0,-2.533488870E-1
1.108986741E1,-1.008508801E0,1.239867210E0,-3.245126009E-1
1.109901929E1,-1.076923728E0,1.351041436E0,-3.781144619E-1
1.110817111E1,-1.160915256E0,1.364174604E0,-3.787252903E-1
1.111732298E1,-1.186876178E0,1.286444306E0,-3.544441164E-1
1.112647481E1,-1.156333804E0,1.175728321E0,-3.492519259E-1
1.113562668E1,-1.105175376E0,1.049130201E0,-3.574983478E-1
1.114477851E1,-1.083948493E0,9.539906979E-1,-3.700207174E-1
1.115393038E1,-1.078145385E0,8.419002295E-1,-3.735330999E-1
1.116308220E1,-1.088224411E0,7.374453545E-1,-3.735330999E-1
1.117223408E1,-1.111589313E0,6.650599241E-1,-3.840702176E-1
1.118138590E1,-1.128387570E0,6.204680800E-1,-4.042281806E-1
1.119053778E1,-1.130220175E0,5.673243999E-1,-4.341596961E-1
1.119968960E1,-1.106855273E0,5.231906772E-1,-4.749337435E-1
1.120884147E1,-1.057987452E0,5.893148780E-1,-5.241069198E-1
1.121799330E1,-1.003011227E0,7.398887277E-1,-5.745018721E-1
1.122714517E1,-9.610154629E-1,8.922951221E-1,-6.236750484E-1
1.123629699E1,-9.359707236E-1,9.410101771E-1,-6.595623493E-1
1.124544887E1,-9.265025854E-1,9.193251133E-1,-6.717792749E-1
1.125460069E1,-9.225320816E-1,8.722898960E-1,-6.545228362E-1
1.126375257E1,-9.231429100E-1,8.020424247E-1,-6.080984473E-1
1.127290439E1,-8.990144730E-1,6.841489077E-1,-5.609105229E-1
1.128205627E1,-8.594620824E-1,5.227325559E-1,-5.372401476E-1
1.129120809E1,-8.437327743E-1,3.552076817E-1,-5.401417017E-1
1.130035996E1,-8.322793841E-1,2.521272004E-1,-5.577035546E-1
1.130951179E1,-8.055548072E-1,2.316638231E-1,-5.799994469E-1
1.131866366E1,-7.655443549E-1,2.593046725E-1,-6.073349118E-1
1.132781548E1,-7.046123147E-1,2.816005945E-1,-6.293253899E-1
1.133696736E1,-6.126797795E-1,2.635805905E-1,-6.342121959E-1
1.134611918E1,-4.712686539E-1,1.524063945E-1,-6.135960817E-1
1.135527106E1,-2.828222811E-1,8.857285604E-3,-5.664080977E-1
1.136441012E1,-4.352286831E-2,-1.084253863E-1,-4.760027230E-1
1.137357476E1,2.600682080E-1,-2.157817930E-1,-3.290939629E-1
1.138272658E1,6.453601122E-1,-3.092414141E-1,-1.626380831E-1
1.139186569E1,1.103953719E0,-3.561239541E-1,-4.092676565E-2
1.140103028E1,1.601641536E0,-3.388675153E-1,7.635590620E-3
1.141018215E1,2.056875467E0,-2.603736520E-1,3.649812192E-2
1.141932126E1,2.382304192E0,-1.530172378E-1,1.072036922E-1
1.142848585E1,2.658865452E0,-1.127013192E-1,2.470877171E-1
1.143763767E1,2.877548695E0,-1.954711229E-1,4.385883212E-1
1.144677679E1,2.968259573E0,-3.782671690E-1,6.627692580E-1
1.145594137E1,2.972840786E0,-5.827482939E-1,8.919897079E-1
1.146509324E1,3.007353783E0,-8.206732869E-1,1.075702071E0
1.147423236E1,3.102340460E0,-1.080436110E0,1.199245930E0
1.148339694E1,3.225120783E0,-1.410751700E0,1.266286373E0
1.149254882E1,3.318122387E0,-1.888434291E0,1.265370131E0
1.150168788E1,3.372487783E0,-2.368865728E0,1.202147365E0
1.151085252E1,3.383482933E0,-2.596406221E0,1.120446563E0
1.152000434E1,3.361034393E0,-2.527991295E0,1.046381354E0
1.152914345E1,3.318122387E0,-2.251735687E0,9.878927469E-1
1.153830804E1,3.298880577E0,-1.857891917E0,9.397885203E-1
1.154745991E1,3.310792208E0,-1.455954432E0,8.980981708E-1
1.155659902E1,3.273072243E0,-9.921686649E-1,8.626690507E-1
1.156576361E1,3.150597334E0,-4.621059597E-1,8.565605879E-1
1.157491543E1,2.991013527E0,-4.474456236E-2,8.696937561E-1
1.158405455E1,2.838912725E0,2.087570578E-1,8.678612709E-1
1.159321918E1,2.724684238E0,3.235963285E-1,8.506048322E-1
1.160237100E1,2.670929670E0,3.371876776E-1,8.269344568E-1
1.161152288E1,2.657032967E0,2.490729690E-1,8.073873520E-1
1.162067470E1,2.647717476E0,1.201841980E-1,7.976137996E-1
1.162982658E1,2.603125572E0,1.328592747E-2,7.789829373E-1
1.163896564E1,2.535779715E0,-8.460234851E-2,7.322531343E-1
1.164813028E1,2.455147743E0,-2.038702667E-1,6.383354068E-1
1.165728210E1,2.356190681E0,-3.086305857E-1,5.161659122E-1
1.166642121E1,2.223331213E0,-3.677300513E-1,3.955236077E-1
1.167558580E1,2.066954374E0,-3.955236077E-1,2.889307439E-1
1.168473767E1,1.883852959E0,-4.196520746E-1,1.924168915E-1
1.169388955E1,1.661504507E0,-4.607315361E-1,1.096470803E-1
1.170304137E1,1.396854997E0,-4.854708612E-1,5.039490014E-2
1.171219324E1,1.129914761E0,-4.511106908E-1,7.482878864E-3
1.172133231E1,8.809944391E-1,-3.776563108E-1,-4.978405312E-2
1.173049694E1,6.288672686E-1,-2.602209449E-1,-1.145338640E-1
1.173964876E1,3.477247953E-1,-1.065928489E-1,-1.557660550E-1
1.174878788E1,4.566083103E-2,4.001049697E-2,-1.476723254E-1
1.175795246E1,-2.284568697E-1,5.299099907E-2,-8.796200156E-2
1.176710434E1,-4.259132445E-1,-3.420744836E-2,-1.374406274E-3
1.177624345E1,-5.506787896E-1,-1.185043678E-1,9.437590092E-2
1.178540804E1,-6.497887969E-1,-2.394521236E-1,1.756185889E-1
1.179455991E1,-7.637118101E-1,-4.828747511E-1,2.104368806E-1
1.180369897E1,-8.984035850E-1,-7.670714259E-1,1.840177327E-1
1.181286361E1,-1.049741030E0,-9.857547879E-1,1.122431830E-1
1.182201543E1,-1.211615562E0,-1.017824292E0,-1.099525020E-2
1.183115455E1,-1.307824016E0,-8.380824327E-1,-2.334963679E-1
1.184031918E1,-1.241852522E0,-3.582619131E-1,-5.393781066E-1
1.184947101E1,-1.002705812E0,4.624113739E-1,-7.989882231E-1
1.185861012E1,-7.974610925E-1,8.255600929E-1,-7.983773947E-1
1.186777470E1,-9.868237376E-1,2.290677279E-1,-5.526640415E-1
1.187692658E1,-1.882020354E0,-7.841751575E-1,-4.019374847E-1
1.188606569E1,-2.919239044E0,-1.055544019E0,-3.381039500E-1
1.189523028E1,-3.154720783E0,2.305948362E-2,-9.636115283E-2
1.190438215E1,-2.646953821E0,1.502073407E0,3.634541333E-1
1.191352121E1,-2.489355326E0,2.104674339E0,6.053496599E-1
1.192268585E1,-2.852198601E0,1.598434567E0,4.297310412E-1
1.193183767E1,-2.617175102E0,1.053253412E0,2.498365343E-1
1.194097679E1,-2.120556355E0,7.404996157E-1,2.005106062E-1
1.195014137E1,-2.173241854E0,1.676775664E-1,1.382041872E-1
1.195929324E1,-2.300145388E0,-4.949389994E-1,5.787777901E-2
1.196843236E1,-2.110477209E0,-1.166107416E0,4.749337584E-2
1.197759694E1,-1.758018374E0,-1.774358630E0,1.743968874E-1
1.198674882E1,-1.443432093E0,-2.100245476E0,3.660502136E-1
1.199588788E1,-1.289345860E0,-2.087570429E0,4.776825607E-1
1.200505252E1,-1.259567022E0,-1.908439517E0,4.943281412E-1
1.201420439E1,-1.259567022E0,-1.607291818E0,4.488200247E-1
1.202334345E1,-1.305227876E0,-1.143658757E0,3.730749488E-1
1.203250809E1,-1.426633716E0,-5.488462448E-1,2.820587158E-1
1.204165991E1,-1.549566746E0,-5.650337040E-2,1.831014603E-1
1.205081179E1,-1.612484097E0,3.396310806E-1,9.880454093E-2
1.205996366E1,-1.632336617E0,6.432221532E-1,6.780404598E-2
1.206911548E1,-1.630962133E0,9.119949341E-1,6.215370819E-2
1.207825460E1,-1.630809426E0,1.119224906E0,5.405998230E-2
1.208741918E1,-1.615385532E0,1.265675545E0,4.550812021E-2
1.209657106E1,-1.584690452E0,1.342795014E0,4.443913698E-2
1.210571017E1,-1.541778445E0,1.371810198E0,5.085303262E-2
1.211487476E1,-1.475348830E0,1.368297815E0,5.925218388E-2
1.212402663E1,-1.427397370E0,1.335770249E0,4.810422286E-2
1.213317845E1,-1.467407823E0,1.403727055E0,-6.108472589E-4
1.214233033E1,-1.573389769E0,1.521315098E0,-9.422318637E-2
1.215148220E1,-1.642110109E0,1.621952176E0,-2.223484069E-1
1.216063402E1,-1.642568231E0,1.725032687E0,-3.579564989E-1
1.216978590E1,-1.630809426E0,1.850561738E0,-4.752391577E-1
1.217893778E1,-1.616607308E0,1.958070874E0,-5.699204803E-1
1.218808960E1,-1.578276634E0,1.976549029E0,-6.337540150E-1
1.219724147E1,-1.535517335E0,1.895153642E0,-6.737645268E-1
1.220639330E1,-1.507112861E0,1.839108348E0,-6.911736727E-1
1.221554517E1,-1.486191392E0,1.898207903E0,-6.891884208E-1
1.222469705E1,-1.489703774E0,2.037328243E0,-6.972821355E-1
1.223384887E1,-1.572168112E0,2.164231777E0,-7.108734846E-1
1.224298798E1,-1.663337111E0,2.253720999E0,-7.597413063E-1
1.225215262E1,-1.674179673E0,2.320914268E0,-8.313631415E-1
1.226130444E1,-1.582705259E0,2.391467094E0,-8.808417320E-1
1.227044356E1,-1.448013425E0,2.427048922E0,-8.964183331E-1
1.227960814E1,-1.311489105E0,2.255706310E0,-8.884773254E-1
1.228876002E1,-1.197566032E0,1.750993609E0,-8.501466513E-1
1.229789913E1,-1.152974248E0,1.070967913E0,-7.785248160E-1
1.230706371E1,-1.205507040E0,4.795151055E-1,-6.704048514E-1
1.231621559E1,-1.268729806E0,1.296523362E-1,-5.691569448E-1
1.232535470E1,-1.302479029E0,-5.512896553E-2,-5.131117105E-1
1.233451929E1,-1.334854007E0,-2.341072112E-1,-5.150969625E-1
1.234367116E1,-1.388303161E0,-3.735330999E-1,-5.537330508E-1
1.235281028E1,-1.450609565E0,-4.130854607E-1,-6.146650314E-1
1.236197486E1,-1.472294569E0,-3.622324169E-1,-6.923953891E-1
1.237112673E1,-1.400978208E0,-2.322746664E-1,-7.603521347E-1
1.238026585E1,-1.241547108E0,-1.320957243E-1,-7.788302302E-1
1.238943043E1,-1.048061132E0,-6.887302548E-2,-7.566870451E-1
1.239858231E1,-8.678612709E-1,9.727742523E-2,-7.189671993E-1
1.240772142E1,-6.981984377E-1,3.381039500E-1,-6.665870547E-1
1.241688600E1,-4.831801951E-1,5.106683373E-1,-5.560237169E-1
1.242603788E1,-1.666085869E-1,6.021426916E-1,-3.834593594E-1
1.243518970E1,2.643441558E-1,5.627430081E-1,-1.855448484E-1
1.244434158E1,7.959339619E-1,3.863608837E-1,-2.107422985E-2
1.245349345E1,1.394716978E0,1.563768983E-1,8.338065445E-2
1.246264528E1,2.040077209E0,-8.521319181E-2,1.430909634E-1
1.247179715E1,2.689407825E0,-3.376458287E-1,2.180724740E-1
1.248094903E1,3.231381893E0,-5.573981404E-1,3.350497186E-1
1.249008814E1,3.538027287E0,-6.581879258E-1,4.778352678E-1
1.249925272E1,3.652714014E0,-6.658235192E-1,6.342121959E-1
1.250840460E1,3.632555962E0,-7.731798887E-1,7.973083854E-1
1.251754371E1,3.496031523E0,-1.105175376E0,9.875873327E-1
1.252670830E1,3.370502472E0,-1.535364628E0,1.231926203E0
1.253586017E1,3.444567680E0,-1.927223086E0,1.475196123E0
1.254499923E1,3.646910906E0,-2.242573023E0,1.643026471E0
1.255416387E1,3.779770136E0,-2.460187435E0,1.726559758E0
1.256331574E1,3.791528940E0,-2.676579952E0,1.734653473E0
1.257245481E1,3.716242075E0,-2.772788525E0,1.657381296E0
1.258161944E1,3.623240471E0,-2.585258245E0,1.556286097E0
1.259077132E1,3.664167166E0,-2.151098728E0,1.460993886E0
1.259991043E1,3.841923952E0,-1.819408536E0,1.307518601E0
1.260907502E1,3.928053379E0,-1.654785275E0,1.123653531E0
1.261822689E1,3.847421408E0,-1.403421521E0,1.007439852E0
1.262736600E1,3.711355209E0,-1.065775752E0,9.903361201E-1
1.263653059E1,3.603998899E0,-6.456655264E-1,1.031415582E0
1.264568246E1,3.484730959E0,-2.793098986E-1,1.073105931E0
1.265482158E1,3.327743053E0,-9.712471068E-2,1.068830013E0
1.266398616E1,3.174726009E0,-4.947862774E-2,9.949174523E-1
1.267313804E1,3.060955524E0,-8.612946421E-2,8.690829277E-1
1.268227715E1,2.968106747E0,-1.777565479E-1,7.383615971E-1
1.269144173E1,2.853267431E0,-3.255815804E-1,6.229115129E-1
1.270059361E1,2.720713615E0,-4.816530645E-1,5.219689608E-1
1.270974548E1,2.575942993E0,-5.833591223E-1,4.324798584E-1
1.271889731E1,2.428575993E0,-6.128324866E-1,3.422271907E-1
1.272804918E1,2.289608240E0,-6.146650314E-1,2.521272004E-1
1.273718830E1,2.118265629E0,-5.796940327E-1,1.672194302E-1
1.274635288E1,1.876064658E0,-5.268557668E-1,6.780404598E-2
1.275550476E1,1.572320819E0,-4.898995161E-1,-4.978405312E-2
1.276464387E1,1.238340139E0,-5.155550838E-1,-1.553079188E-1
1.277380845E1,9.023740888E-1,-5.519005060E-1,-2.309002578E-1
1.278296033E1,5.868715048E-1,-5.845808387E-1,-2.961082160E-1
1.279209944E1,2.748812735E-1,-6.375718117E-1,-3.208475113E-1
1.280126402E1,-6.230641901E-2,-6.632274389E-1,-2.675510943E-1
1.281041590E1,-3.924693763E-1,-6.760551929E-1,-1.637070626E-1
1.281955502E1,-6.815528274E-1,-6.484143734E-1,-5.573981255E-2
1.282871960E1,-9.268079996E-1,-4.982986450E-1,5.405998230E-2
1.283787147E1,-1.171910524E0,-2.677038014E-1,1.053711548E-1
1.284701059E1,-1.323247910E0,-1.313321590E-1,3.573456407E-2
1.285617522E1,-1.251167893E0,2.702999115E-2,-1.519482583E-1
1.286532705E1,-1.114338160E0,4.934118688E-1,-3.924693763E-1
1.287446616E1,-1.256512761E0,8.872556686E-1,-5.451811552E-1
1.288363080E1,-1.726101637E0,5.949652195E-1,-5.384618640E-1
1.289278262E1,-2.420634985E0,1.934858710E-1,-4.362976551E-1
1.290192173E1,-3.113793850E0,6.006155610E-1,-2.009687424E-1
1.291108637E1,-3.259939194E0,2.098260403E0,2.012741715E-1
1.292023819E1,-2.944741964E0,3.370807886E0,5.439594984E-1
1.292937731E1,-2.700250387E0,3.377527237E0,5.957288146E-1
1.293854194E1,-2.387038469E0,2.192025423E0,4.063661397E-1
1.294769376E1,-1.903858185E0,8.765658140E-1,2.476985604E-1
1.295683288E1,-1.710677743E0,-2.231119573E-1,1.612636745E-1
1.296599752E1,-1.677386522E0,-1.373795509E0,7.452336699E-2
1.297514939E1,-1.498102903E0,-2.029387236E0,1.389677543E-2
1.298428845E1,-1.256054640E0,-2.179502964E0,6.642963737E-2
1.299345309E1,-1.074633002E0,-2.123152256E0,2.191414535E-1
1.300260496E1,-1.077229142E0,-1.832083583E0,3.703261614E-1
1.301174402E1,-1.203216434E0,-1.462826490E0,3.758237660E-1
1.302090866E1,-1.263842940E0,-1.207492352E0,1.811162084E-1
1.303006054E1,-1.259719729E0,-9.385668039E-1,-5.971032009E-2
1.303919965E1,-1.264148355E0,-4.883723855E-1,-2.102841735E-1
1.304836423E1,-1.258803487E0,5.054761097E-2,-3.028275371E-1
1.305751611E1,-1.212379098E0,4.770717025E-1,-3.645231128E-1
1.306665522E1,-1.158013701E0,7.482879162E-1,-3.684936166E-1
1.307581981E1,-1.130831003E0,9.203941226E-1,-3.122956753E-1
1.308497168E1,-1.147323847E0,1.153279662E0,-2.283041626E-1
1.309411080E1,-1.198940516E0,1.385401607E0,-1.812689304E-1
1.310327538E1,-1.213906169E0,1.480540991E0,-1.918060333E-1
1.311242726E1,-1.197413325E0,1.444806457E0,-2.338017821E-1
1.312156637E1,-1.172368646E0,1.353637576E0,-2.756448388E-1
1.313073101E1,-1.178629756E0,1.187181592E0,-3.188622594E-1
1.313988283E1,-1.205201626E0,9.906415343E-1,-3.562766612E-1
1.314903470E1,-1.258650780E0,8.516737819E-1,-3.791834414E-1
1.315818658E1,-1.314085126E0,7.805100679E-1,-3.880407214E-1
1.316733840E1,-1.371810198E0,8.286142945E-1,-3.956763148E-1
1.317649028E1,-1.416096687E0,9.587247968E-1,-4.162923992E-1
1.318564215E1,-1.432284117E0,1.127929449E0,-4.483618736E-1
1.319479397E1,-1.495201349E0,1.295759797E0,-4.703523815E-1
1.320394585E1,-1.639208674E0,1.482831717E0,-4.781406820E-1
1.321309772E1,-1.788713455E0,1.641346574E0,-4.433223903E-1
1.322224960E1,-1.884311080E0,1.674026966E0,-3.571929336E-1
1.323140142E1,-1.972578526E0,1.651272893E0,-2.699944973E-1
1.324055330E1,-2.053973913E0,1.727170587E0,-2.608317733E-1
1.324970517E1,-1.969982386E0,1.816048861E0,-3.658975065E-1
1.325884429E1,-1.805359125E0,1.879577041E0,-5.216635466E-1
1.326800887E1,-1.736333370E0,1.865374804E0,-6.433748603E-1
1.327716074E1,-1.737860441E0,1.800014138E0,-7.195780873E-1
1.328631262E1,-1.674332380E0,1.684869409E0,-7.826480269E-1
1.329546444E1,-1.559798479E0,1.376238823E0,-8.286142945E-1
1.330461632E1,-1.430451512E0,8.532009125E-1,-8.712208867E-1
1.331375543E1,-1.272700310E0,2.368560284E-1,-8.990144730E-1
1.332292002E1,-1.126096964E0,-3.208475113E-1,-8.780929446E-1
1.333207189E1,-1.074785709E0,-6.626165509E-1,-7.876875401E-1
1.334121101E1,-1.082574010E0,-8.110524416E-1,-6.600204706E-1
1.335037564E1,-1.095707297E0,-7.846332788E-1,-5.422796607E-1
1.335952746E1,-1.127471328E0,-6.265766025E-1,-4.778352678E-1
1.336866658E1,-1.178629756E0,-2.904578745E-1,-4.796678126E-1
1.337783121E1,-1.212073684E0,1.136175916E-1,-5.328115225E-1
1.338698304E1,-1.182447553E0,4.176668227E-1,-5.987830162E-1
1.339612215E1,-1.086544514E0,5.960342288E-1,-6.372663975E-1
1.340528679E1,-9.794935584E-1,6.209262609E-1,-6.340594292E-1
1.341443866E1,-8.837432861E-1,5.851916671E-1,-5.990884304E-1
1.342357772E1,-7.507312894E-1,6.368082762E-1,-5.401417017E-1
1.343274236E1,-5.066977739E-1,8.331956863E-1,-4.795151055E-1
1.344189423E1,-1.502684206E-1,1.065470338E0,-4.214846194E-1
1.345103335E1,2.551814318E-1,1.253305912E0,-3.442124426E-1
1.346019793E1,7.391251922E-1,1.189930439E0,-2.455606014E-1
1.346934981E1,1.339588046E0,7.928797603E-1,-1.524063945E-1
1.347848892E1,1.951504230E0,2.002051920E-1,-3.787253052E-2
1.348765350E1,2.386885643E0,-3.359659910E-1,1.592784226E-1
1.349680538E1,2.592283010E0,-6.044333577E-1,4.198047817E-1
1.350595726E1,2.575026512E0,-8.616000414E-1,6.500942111E-1
1.351510908E1,2.477901936E0,-1.125486016E0,8.535063267E-1
1.352426095E1,2.543873310E0,-1.367992401E0,1.068371892E0
1.353341283E1,2.825321198E0,-1.568655729E0,1.262315869E0
1.354256470E1,3.157622099E0,-1.717091680E0,1.394869685E0
1.355171653E1,3.384857416E0,-1.990140319E0,1.444959164E0
1.356085564E1,3.480302334E0,-2.391467094E0,1.417776465E0
1.357002028E1,3.483814716E0,-2.625421524E0,1.352568507E0
1.357917215E1,3.372793198E0,-2.701930046E0,1.255443811E0
1.358831121E1,3.172893286E0,-2.703915358E0,1.141062737E0
1.359747585E1,2.997885704E0,-2.523104668E0,1.049893737E0
1.360662772E1,2.963067293E0,-2.104674339E0,9.950701594E-1
1.361576684E1,3.041866541E0,-1.590493560E0,9.561286569E-1
1.362493142E1,3.135478973E0,-1.078298092E0,9.381086826E-1
1.363408330E1,3.158996582E0,-6.123743653E-1,9.465078115E-1
1.364322241E1,3.106769085E0,-2.278460264E-1,9.854493141E-1
1.365238699E1,3.011782408E0,4.504998401E-2,1.030957460E0
1.366153887E1,2.894652367E0,2.281514555E-1,1.055696726E0
1.367067798E1,2.797069550E0,3.323009014E-1,1.055544019E0
1.367984257E1,2.757211924E0,3.237490356E-1,1.020573020E0
1.368899444E1,2.741787910E0,2.017323077E-1,9.607100487E-1
1.369813356E1,2.718881130E0,3.756710514E-2,8.982508779E-1
1.370729819E1,2.655811071E0,-1.786728203E-1,8.278507590E-1
1.371645002E1,2.563420534E0,-4.243861437E-1,7.522584200E-1
1.372558913E1,2.488591671E0,-6.447492838E-1,6.607840061E-1
1.373475376E1,2.429186821E0,-7.857022882E-1,5.519005060E-1
1.374390564E1,2.355121613E0,-9.043593407E-1,4.115583301E-1
1.375304470E1,2.230814219E0,-9.969027042E-1,2.464768738E-1
1.376220934E1,2.046338320E0,-1.041647315E0,9.865183383E-2
1.377136121E1,1.836970448E0,-1.087155461E0,-1.450762246E-2
1.378051309E1,1.614469290E0,-1.122126460E0,-9.544488788E-2
1.378966491E1,1.382500052E0,-1.140757203E0,-1.531699449E-1
1.379881679E1,1.128387570E0,-1.097845197E0,-1.824906170E-1
1.380796866E1,8.389987350E-1,-9.994988441E-1,-1.992889196E-1
1.381712054E1,5.121954083E-1,-8.374716043E-1,-2.127275616E-1
1.382627236E1,1.606528312E-1,-6.006155610E-1,-2.002051920E-1
1.383541147E1,-1.963873953E-1,-3.943018913E-1,-1.832541823E-1
1.384457611E1,-5.454866290E-1,-2.423536479E-1,-1.534753740E-1
1.385372798E1,-8.432746530E-1,-1.113269106E-1,-9.147437662E-2
1.386286705E1,-1.022711039E0,-8.246437646E-3,-2.199050039E-2
1.387203168E1,-1.064554095E0,3.527642787E-2,2.840439789E-2
1.388118356E1,-1.069746256E0,3.054236295E-4,3.206948191E-2
1.389032267E1,-1.041341901E0,-4.932591692E-2,-3.924693540E-2
1.389948726E1,-8.121214509E-1,-4.413371533E-2,-1.988307834E-1
1.390863913E1,-4.660764635E-1,3.636068404E-1,-3.840702176E-1
1.391777824E1,-4.825693369E-1,8.063184023E-1,-4.633276463E-1
1.392694283E1,-9.700254202E-1,4.051444530E-1,-3.706315756E-1
1.393609470E1,-1.795127392E0,-1.502684206E-1,-2.741177082E-1
1.394523382E1,-2.591977596E0,-2.519744933E-1,-2.313583940E-1
1.395439845E1,-2.766374588E0,6.604785919E-1,2.687728032E-2
1.396355028E1,-2.347027779E0,2.314652920E0,4.639385045E-1
1.397268939E1,-2.069855928E0,3.217332602E0,6.765133142E-1
1.398185402E1,-2.165300846E0,2.316791058E0,4.914266169E-1
1.399100585E1,-2.006175041E0,8.759549856E-1,2.562504113E-1
1.400014502E1,-1.825211644E0,-7.788302377E-3,2.715215981E-1
1.400930960E1,-1.866749167E0,-5.340332389E-1,3.869717419E-1
1.401846147E1,-1.806122661E0,-9.582666159E-1,3.614688516E-1
1.402760059E1,-1.619356036E0,-1.309809208E0,2.428117841E-1
1.403676517E1,-1.479930162E0,-1.558271408E0,2.640387416E-1
1.404591705E1,-1.497797489E0,-1.570335627E0,4.483618736E-1
1.405505616E1,-1.513832211E0,-1.364938259E0,5.964923501E-1
1.406422074E1,-1.380514860E0,-1.215891480E0,5.589252710E-1
1.407337262E1,-1.263690233E0,-1.153279662E0,3.434488773E-1
1.408251173E1,-1.251015186E0,-1.083184958E0,7.971556485E-2
1.409167637E1,-1.257734537E0,-8.525900841E-1,-1.262926757E-1
1.410082819E1,-1.279877663E0,-5.025745630E-1,-2.713688910E-1
1.410996731E1,-1.315306902E0,-1.491994411E-1,-3.489464819E-1
1.411913194E1,-1.308434844E0,2.063136548E-1,-3.662029207E-1
1.412828382E1,-1.271325827E0,5.693096519E-1,-3.258870244E-1
1.413743564E1,-1.256818295E0,8.599202037E-1,-2.722851634E-1
1.414658752E1,-1.276365399E0,1.101815701E0,-2.304421216E-1
1.415573939E1,-1.288276911E0,1.264606595E0,-2.031067163E-1
1.416487850E1,-1.267508030E0,1.339435339E0,-1.988307834E-1
1.417404309E1,-1.212226391E0,1.294232607E0,-2.075353563E-1
1.418319496E1,-1.211310148E0,1.204438090E0,-2.226538211E-1
1.419233408E1,-1.247502804E0,1.106091619E0,-2.284568697E-1
1.420149871E1,-1.261705041E0,1.045159698E0,-2.223484069E-1
1.421065054E1,-1.246281147E0,9.704836011E-1,-2.179197669E-1
1.421980241E1,-1.229177356E0,9.391776323E-1,-2.367033064E-1
1.422895429E1,-1.250557065E0,9.239065051E-1,-2.643441558E-1
1.423810616E1,-1.271325827E0,9.040539265E-1,-2.693836391E-1
1.424725798E1,-1.329509020E0,9.298622608E-1,-2.696890533E-1
1.425640986E1,-1.421441555E0,1.022405624E0,-2.820587158E-1
1.426556173E1,-1.461452127E0,1.096470833E0,-3.025220931E-1
1.427471361E1,-1.485275149E0,1.211920977E0,-3.254288733E-1
1.428386543E1,-1.558271408E0,1.324469566E0,-3.510844707E-1
1.429301731E1,-1.634016395E0,1.468934894E0,-3.687990308E-1
1.430216918E1,-1.663031697E0,1.694795728E0,-3.880407214E-1
1.431132106E1,-1.644248128E0,1.819255829E0,-4.411844313E-1
1.432047288E1,-1.582247138E0,1.878813505E0,-5.152496696E-1
1.432962476E1,-1.491536260E0,1.899276853E0,-5.812211633E-1
1.433877663E1,-1.426175594E0,1.860488057E0,-6.265766025E-1
1.434792850E1,-1.394564271E0,1.705638289E0,-6.536065936E-1
1.435706762E1,-1.355164647E0,1.430909753E0,-6.488724947E-1
1.436623220E1,-1.252694964E0,1.064706802E0,-6.412369013E-1
1.437538408E1,-1.100899458E0,5.628957748E-1,-6.580352187E-1
1.438453595E1,-1.028208613E0,-5.238015205E-2,-6.760551929E-1
1.439368778E1,-1.021183848E0,-4.981459379E-1,-6.580352187E-1
1.440283965E1,-9.623898268E-1,-6.250494719E-1,-6.256603003E-1
1.441197876E1,-8.951966763E-1,-4.880669713E-1,-6.045860648E-1
1.442114340E1,-9.199360013E-1,-2.192941606E-1,-5.694623590E-1
1.443029522E1,-9.842276573E-1,-9.468132630E-3,-5.291464329E-1
1.443944710E1,-1.018740535E0,1.947075576E-1,-5.283828974E-1
1.444859897E1,-1.004996419E0,3.319954872E-1,-5.595360994E-1
1.445775085E1,-9.956810474E-1,3.283303976E-1,-5.795413256E-1
1.446690267E1,-1.012173891E0,3.126010895E-1,-5.686988235E-1
1.447605455E1,-1.012784719E0,4.404208660E-1,-5.584670901E-1
1.448520642E1,-9.533798695E-1,6.942279339E-1,-5.575508475E-1
1.449434554E1,-8.225058317E-1,9.452861547E-1,-5.280774832E-1
1.450351012E1,-6.042806506E-1,1.043021679E0,-4.515688419E-1
1.451266199E1,-2.576248348E-1,1.032484531E0,-3.513898849E-1
1.452180111E1,1.968455315E-1,8.716790676E-1,-1.973036677E-1
1.453096574E1,6.948387623E-1,5.044071078E-1,-2.901524538E-3
1.454011762E1,1.222305417E0,1.195733473E-1,1.389677525E-1
1.454925668E1,1.725948930E0,-1.301104724E-1,1.953184158E-1
1.455842132E1,2.094137192E0,-1.559187621E-1,2.095206082E-1
1.456757319E1,2.349776745E0,-8.551861346E-2,2.484621257E-1
1.457671231E1,2.500350475E0,-1.499630064E-1,3.301629424E-1
1.458587689E1,2.633515358E0,-2.979407609E-1,5.053234100E-1
1.459502876E1,2.865331888E0,-5.690042377E-1,7.568397522E-1
1.460416788E1,3.125400066E0,-9.642223716E-1,1.009425044E0
1.461333252E1,3.304989100E0,-1.367992401E0,1.240478039E0
1.462248434E1,3.370807886E0,-1.987391591E0,1.395327806E0
1.463162345E1,3.424715042E0,-2.799360275E0,1.421288848E0
1.464078809E1,3.466863632E0,-3.138380527E0,1.332715988E0
1.464993996E1,3.412498236E0,-3.108296394E0,1.166870952E0
1.465907908E1,3.314457178E0,-2.813256979E0,1.011410356E0
1.466824366E1,3.276584625E0,-2.319539785E0,9.032903910E-1
1.467739554E1,3.355842113E0,-1.902789235E0,8.156337738E-1
1.468653465E1,3.447774649E0,-1.459314108E0,7.495095730E-1
1.469569929E1,3.433877945E0,-9.188669920E-1,7.281299233E-1
1.470485111E1,3.270934343E0,-4.057552814E-1,7.353073955E-1
1.471399022E1,3.049654961E0,-7.177455351E-3,7.455390692E-1
1.472315486E1,2.864720821E0,2.125748396E-1,7.417212725E-1
1.473230673E1,2.776453495E0,2.961082160E-1,7.385143638E-1
1.474144585E1,2.761182308E0,3.436015844E-1,7.408050299E-1
1.475061043E1,2.760113239E0,3.979669809E-1,7.615737915E-1
1.475976231E1,2.735832214E0,4.071297050E-1,7.930324674E-1
1.476890142E1,2.680397749E0,3.245126009E-1,7.963921428E-1
1.477806601E1,2.584342003E0,1.378987730E-1,7.342383862E-1
1.478721788E1,2.486453772E0,-1.043021679E-1,6.079457402E-1
1.479635699E1,2.433157444E0,-3.443651497E-1,4.337015450E-1
1.480552163E1,2.402309656E0,-5.228852630E-1,2.583884001E-1
1.481467351E1,2.338017941E0,-6.620057225E-1,1.298050433E-1
1.482381262E1,2.201798916E0,-8.319739699E-1,4.214845970E-2
1.483297720E1,2.002051830E0,-1.001789451E0,-1.038440317E-2
1.484212908E1,1.761378050E0,-1.102426648E0,-4.184303805E-2
1.485126819E1,1.491536260E0,-1.092042208E0,-7.314895838E-2
1.486043278E1,1.204285383E0,-1.011868477E0,-1.168245375E-1
1.486958465E1,8.854231238E-1,-8.330429196E-1,-1.429382563E-1
1.487872376E1,5.392253995E-1,-5.702258945E-1,-1.693574041E-1
1.488788840E1,1.699682474E-1,-2.709107697E-1,-1.918060333E-1
1.489704028E1,-1.928750277E-1,-1.771457121E-2,-1.736333370E-1
1.490619210E1,-4.755446017E-1,8.307522535E-2,-1.507265568E-1
1.491534397E1,-6.697940230E-1,1.091889441E-1,-6.536065787E-2
1.492449585E1,-7.753179073E-1,1.371352077E-1,6.872031838E-2
1.493363496E1,-8.831323981E-1,7.543963939E-2,1.950129867E-1
1.494279960E1,-1.087460876E0,-7.345438004E-2,2.693836391E-1
1.495195142E1,-1.311947227E0,-3.234436214E-1,2.539597452E-1
1.496109054E1,-1.490009189E0,-6.306998134E-1,1.479777545E-1
1.497025517E1,-1.615690947E0,-7.171346545E-1,1.099525020E-2
1.497940705E1,-1.618745208E0,-4.475983381E-1,-1.035386100E-1
1.498854616E1,-1.412584305E0,1.015533581E-1,-1.721062213E-1
1.499771074E1,-1.228413820E0,6.174138784E-1,-2.017323077E-1
1.500686262E1,-1.363563776E0,7.498150319E-2,-2.058555335E-1
1.501600173E1,-1.699682474E0,-1.041341901E0,-1.414111406E-1
1.502516637E1,-2.118265629E0,-1.140604496E0,-6.016845629E-2
1.503431819E1,-2.563878775E0,8.154810965E-2,1.417165697E-1
1.504345731E1,-2.728960037E0,1.517344594E0,4.770717025E-1
1.505262194E1,-2.784852743E0,2.364742517E0,6.916317940E-1
1.506177382E1,-2.774468184E0,2.568001986E0,7.508839965E-1
1.507091293E1,-2.413304806E0,2.121778011E0,7.908945084E-1
1.508007752E1,-2.047559977E0,1.508487344E0,8.599202037E-1
1.508922939E1,-1.958681703E0,7.426375747E-1,8.525900841E-1
1.509836851E1,-1.851019859E0,-6.621584296E-1,6.161921620E-1
1.510753314E1,-1.702431321E0,-1.970898628E0,2.811424434E-1
1.511668496E1,-1.683036923E0,-2.472862482E0,8.750387281E-2
1.512582408E1,-1.659977436E0,-2.290371895E0,6.306997687E-2
1.513498871E1,-1.482220888E0,-1.839261055E0,8.658760041E-2
1.514414059E1,-1.236965656E0,-1.450456858E0,1.786728203E-2
1.515327970E1,-1.140604496E0,-1.315459609E0,-1.721062213E-1
1.516244429E1,-1.221694469E0,-1.159235358E0,-4.176668227E-1
1.517159616E1,-1.382805467E0,-6.962131858E-1,-6.042806506E-1
1.518074804E1,-1.511999726E0,-3.695625812E-2,-7.166765332E-1
1.518989991E1,-1.559034944E0,5.856497884E-1,-8.194515705E-1
1.519905179E1,-1.547428846E0,1.048824787E0,-9.002361298E-1
1.520819085E1,-1.528950691E0,1.400214672E0,-8.926005363E-1
1.521735548E1,-1.572320819E0,1.737402320E0,-7.849387527E-1
1.522650736E1,-1.643026471E0,2.113837004E0,-6.306998134E-1
1.523564647E1,-1.672041655E0,2.411472321E0,-5.059342384E-1
1.524481106E1,-1.609277129E0,2.551967144E0,-4.657710493E-1
1.525396293E1,-1.521009684E0,2.606943369E0,-4.738647640E-1
1.526310205E1,-1.473821759E0,2.567849159E0,-4.900522232E-1
1.527226668E1,-1.457939744E0,2.461103678E0,-5.099047422E-1
1.528141856E1,-1.450151443E0,2.298923731E0,-5.378510356E-1
1.529057038E1,-1.441446781E0,2.099940062E0,-5.896202922E-1
1.529972226E1,-1.440988660E0,1.876064658E0,-6.595623493E-1
1.530887413E1,-1.454427361E0,1.684716702E0,-7.279772162E-1
1.531802600E1,-1.494895935E0,1.612178683E0,-7.757760286E-1
1.532717788E1,-1.527576327E0,1.618134379E0,-7.931851745E-1
1.533632970E1,-1.537960649E0,1.683189631E0,-7.828007340E-1
1.534548158E1,-1.493826985E0,1.751451850E0,-7.484406233E-1
1.535463345E1,-1.404796004E0,1.701209664E0,-6.951441765E-1
1.536378533E1,-1.349819779E0,1.582705259E0,-6.435275674E-1
1.537293715E1,-1.321720719E0,1.544832706E0,-6.273401380E-1
1.538208902E1,-1.267966151E0,1.606375575E0,-6.361974478E-1
1.539124090E1,-1.246433854E0,1.616149187E0,-6.384881139E-1
1.540039278E1,-1.311641812E0,1.581789017E0,-6.187883019E-1
1.540954465E1,-1.424801230E0,1.612331390E0,-6.012263894E-1
1.541869653E1,-1.497950196E0,1.731599212E0,-5.945070982E-1
1.542784835E1,-1.500546336E0,1.809329629E0,-5.806103349E-1
1.543700022E1,-1.459314108E0,1.736638784E0,-5.593833923E-1
1.544615210E1,-1.364632726E0,1.549414039E0,-5.421269536E-1
1.545529121E1,-1.226428628E0,1.119377613E0,-5.335750580E-1
1.546445585E1,-1.102121115E0,5.019637346E-1,-5.285356045E-1
1.547360767E1,-1.037371397E0,-6.306997687E-2,-5.118899941E-1
1.548274679E1,-1.048213840E0,-4.075878263E-1,-4.712686539E-1
1.549191142E1,-1.083948493E0,-5.595360994E-1,-4.282039404E-1
1.550106330E1,-1.092042208E0,-6.250494719E-1,-3.939964771E-1
1.551020241E1,-1.035386086E0,-6.465818286E-1,-3.648285270E-1
1.551936699E1,-9.532271624E-1,-5.967977643E-1,-3.342861533E-1
1.552851887E1,-8.620582223E-1,-5.418215394E-1,-3.124483824E-1
1.553767074E1,-7.466080785E-1,-5.590779781E-1,-3.145863414E-1
1.554682262E1,-6.427640319E-1,-6.560499668E-1,-3.339807391E-1
1.555597449E1,-5.709894896E-1,-7.583668828E-1,-3.419217467E-1
1.556512632E1,-4.801259339E-1,-7.882983685E-1,-3.211529553E-1
1.557427819E1,-3.526115716E-1,-7.342383862E-1,-2.884726226E-1
1.558343007E1,-1.980672181E-1,-6.435275674E-1,-2.753393948E-1
1.559258194E1,-2.809897438E-2,-5.470137000E-1,-2.851129472E-1
1.560173382E1,1.560714692E-1,-3.906368315E-1,-2.936648130E-1
1.561088564E1,3.599417508E-1,-1.684411317E-1,-2.802261710E-1
1.562003752E1,5.754181147E-1,1.243074164E-1,-2.415900975E-1
1.562918939E1,8.025006056E-1,4.912739098E-1,-1.786728203E-1
1.563834127E1,1.073258638E0,8.408312798E-1,-1.000262350E-1
1.564749314E1,1.408002973E0,1.103648305E0,-8.811471611E-2
1.565664502E1,1.806580782E0,1.238492846E0,-1.525591016E-1
1.566579684E1,2.221498728E0,1.145185947E0,-1.264453828E-1
1.567493595E1,2.504015684E0,7.356128097E-1,1.189625040E-1
1.568410059E1,2.624810696E0,5.864133686E-2,5.044071078E-1
1.569325246E1,2.653673172E0,-8.582404256E-1,8.698465228E-1
1.570239158E1,2.709107637E0,-1.763210654E0,1.156639338E0
1.571155616E1,2.827917337E0,-2.124526739E0,1.370283127E0
1.572070804E1,3.065536976E0,-1.989376783E0,1.454885483E0
1.572984715E1,3.331560850E0,-1.868581772E0,1.404032469E0
1.573901179E1,3.474346399E0,-1.939898133E0,1.292858243E0
1.574816366E1,3.479691505E0,-2.205005884E0,1.182600260E0
1.575730278E1,3.377068996E0,-2.347638845E0,1.096470833E0
1.576646736E1,3.181292534E0,-2.342751980E0,1.029124975E0
1.577561923E1,2.975895166E0,-2.425369024E0,9.654440880E-1
1.578475835E1,2.863651991E0,-2.463699818E0,8.901571631E-1
1.579392298E1,2.855405569E0,-2.256164312E0,8.185353279E-1
1.580307486E1,2.879534006E0,-1.766723037E0,8.023478985E-1
1.581221397E1,2.873425484E0,-1.110825777E0,8.696937561E-1
1.582137856E1,2.855710983E0,-4.952444136E-1,9.869764447E-1
1.583053043E1,2.843952179E0,-1.062874198E-1,1.070204377E0
1.583968231E1,2.820281744E0,6.123743951E-2,1.089446068E0
1.584883418E1,2.776758909E0,9.788827598E-2,1.068982720E0
1.585798600E1,2.721477270E0,9.590301663E-2,1.052795291E0
1.586712512E1,2.649397373E0,1.488940120E-1,1.054016948E0
1.587628976E1,2.561740637E0,2.307475507E-1,1.066233873E0
1.588544163E1,2.473320484E0,2.727433145E-1,1.066844702E0
1.589458074E1,2.393604994E0,2.231119573E-1,1.031415582E0
1.590374538E1,2.328549862E0,8.704573661E-2,9.529217482E-1
1.591289720E1,2.270824671E0,-9.666658193E-2,8.457180262E-1
1.592203632E1,2.192025423E0,-3.122956753E-1,7.244648337E-1
1.593120095E1,2.081462145E0,-5.178457499E-1,6.065713167E-1
1.594035283E1,1.969066143E0,-7.203416228E-1,5.045598149E-1
1.594950470E1,1.853768706E0,-8.732061386E-1,4.031592011E-1
1.595865652E1,1.719229579E0,-9.510892034E-1,2.886253297E-1
1.596780840E1,1.568197608E0,-9.655967951E-1,1.844758689E-1
1.597696028E1,1.389066696E0,-9.469659925E-1,9.941539168E-2
1.598611215E1,1.167023659E0,-9.203941226E-1,4.535540938E-2
1.599526402E1,8.961129189E-1,-8.703046441E-1,1.710372418E-2
1.600440314E1,5.943543911E-1,-8.160919547E-1,-3.054236295E-4
1.601356778E1,2.802261710E-1,-7.514948249E-1,-3.008422814E-2
1.602271960E1,-4.443913698E-2,-6.123743653E-1,-7.696675509E-2
1.603185871E1,-3.610107303E-1,-4.071297050E-1,-1.252236813E-1
1.604102335E1,-6.438329816E-1,-2.087570578E-1,-1.475196183E-1
1.605017522E1,-8.765658140E-1,-3.008422814E-2,-1.345391124E-1
1.605931434E1,-1.073564053E0,1.223221645E-1,-7.253811508E-2
1.606847892E1,-1.242310643E0,2.012741715E-1,2.260134928E-2
1.607763080E1,-1.355622768E0,1.447708011E-1,9.575030953E-2
1.608676991E1,-1.376697063E0,-4.749337584E-2,1.189625040E-1
1.609593455E1,-1.326149344E0,-2.451024652E-1,9.025268257E-2
1.610508642E1,-1.313474298E0,-3.333698809E-1,1.893626526E-2
1.611422554E1,-1.382958174E0,-2.869454920E-1,-1.061347127E-1
1.612339012E1,-1.393342614E0,-6.887302548E-2,-2.854183912E-1
1.613254199E1,-1.213753462E0,4.080459774E-1,-4.627167881E-1
1.614168111E1,-1.098456025E0,7.911999226E-1,-5.355603099E-1
1.615084574E1,-1.340809703E0,3.547495604E-1,-4.654656053E-1
1.615999762E1,-1.813758254E0,-3.031329513E-1,-3.785725832E-1
1.616913673E1,-2.342141151E0,-2.596100867E-1,-2.834331393E-1
1.617830137E1,-2.705595255E0,8.121214509E-1,-6.383354217E-2
1.618745319E1,-2.630919218E0,2.034884930E0,2.582356930E-1
1.619659231E1,-2.319234371E0,2.412541151E0,5.526640415E-1
1.620575694E1,-2.042367697E0,1.988155127E0,6.661289334E-1
1.621490882E1,-1.720756769E0,1.405101418E0,6.247440577E-1
1.622404793E1,-1.370435834E0,6.513158679E-1,5.111264586E-1
1.623321252E1,-1.133274436E0,-4.335488379E-1,3.542914093E-1
1.624236439E1,-1.187487125E0,-1.485275149E0,1.940967143E-1
1.625150351E1,-1.419609070E0,-1.889045119E0,1.200314835E-1
1.626066814E1,-1.537960649E0,-1.704569221E0,1.569877416E-1
1.626982002E1,-1.494590521E0,-1.383263588E0,1.832541823E-1
1.627895913E1,-1.355928183E0,-1.208561301E0,1.072036922E-1
1.628812371E1,-1.253305912E0,-1.093416572E0,-7.849387079E-2
1.629727559E1,-1.265828252E0,-8.996253014E-1,-2.741177082E-1
1.630641470E1,-1.356080890E0,-5.244123936E-1,-4.220954478E-1
1.631557934E1,-1.398382068E0,-7.223268598E-2,-5.436540842E-1
1.632473121E1,-1.395480514E0,2.738122940E-1,-6.342121959E-1
1.633387033E1,-1.391510010E0,4.581354558E-1,-6.673506498E-1
1.634303496E1,-1.399756551E0,6.168029904E-1,-6.271874309E-1
1.635218679E1,-1.455343604E0,8.568660021E-1,-5.380037427E-1
1.636133866E1,-1.494590521E0,1.133121610E0,-4.518742561E-1
1.637049054E1,-1.484969735E0,1.359898686E0,-3.926220834E-1
1.637964241E1,-1.449235082E0,1.545138121E0,-3.730749488E-1
1.638878153E1,-1.418998241E0,1.614469290E0,-3.613161445E-1
1.639794616E1,-1.401894450E0,1.617676258E0,-3.336753249E-1
1.640709798E1,-1.411668062E0,1.605612040E0,-3.067980409E-1
1.641623710E1,-1.427397370E0,1.568350315E0,-3.051182032E-1
1.642540173E1,-1.429382563E0,1.516886473E0,-3.342861533E-1
1.643455361E1,-1.431367874E0,1.489092946E0,-3.739912212E-1
1.644370548E1,-1.440377831E0,1.399145603E0,-4.100312293E-1
1.645285736E1,-1.467865944E0,1.317139387E0,-4.291202128E-1
1.646200923E1,-1.503295064E0,1.281404853E0,-4.349232614E-1
1.647116106E1,-1.500546336E0,1.247655511E0,-4.275930822E-1
1.648031293E1,-1.441904902E0,1.170841455E0,-4.178195298E-1
1.648946481E1,-1.381583810E0,1.105175376E0,-4.114056230E-1
1.649861668E1,-1.376391530E0,1.126860499E0,-4.057552814E-1
1.650776856E1,-1.429993391E0,1.203979969E0,-4.062134326E-1
1.651692043E1,-1.459619522E0,1.276823521E0,-3.906368315E-1
1.652607231E1,-1.426175594E0,1.240325332E0,-3.524588645E-1
1.653522413E1,-1.364938259E0,1.128998399E0,-3.251234591E-1
1.654437600E1,-1.311183691E0,1.060889006E0,-3.582619131E-1
1.655352788E1,-1.268729806E0,1.111894727E0,-4.373666346E-1
1.656267976E1,-1.224596024E0,1.161067963E0,-4.987567961E-1
1.657183163E1,-1.201994658E0,1.114185452E0,-4.998257756E-1
1.658098351E1,-1.210852027E0,9.793408513E-1,-4.558447599E-1
1.659013533E1,-1.195886254E0,8.823688626E-1,-4.324798584E-1
1.659928720E1,-1.128082156E0,7.522584200E-1,-4.367557764E-1
1.660843908E1,-1.034469843E0,5.325061083E-1,-4.401154518E-1
1.661759095E1,-9.909469485E-1,3.631486893E-1,-4.434750974E-1
1.662674283E1,-9.944593310E-1,3.529170156E-1,-4.636330605E-1
1.663589470E1,-9.819369912E-1,4.196520746E-1,-4.897467792E-1
1.664504658E1,-9.283351302E-1,4.220954478E-1,-5.022691488E-1
1.665419840E1,-8.228112459E-1,2.632751763E-1,-5.013529062E-1
1.666335028E1,-7.204943299E-1,-7.635590620E-3,-4.912739098E-1
1.667250215E1,-6.985038519E-1,-2.257080674E-1,-4.695888162E-1
1.668165402E1,-7.418739796E-1,-2.745758295E-1,-4.472928941E-1
1.669080590E1,-7.815790772E-1,-2.367033064E-1,-4.421007037E-1
1.669995778E1,-7.748597264E-1,-2.234173864E-1,-4.585935771E-1
1.670910965E1,-7.250757217E-1,-2.800734639E-1,-4.764608741E-1
1.671826147E1,-6.497887969E-1,-4.222481549E-1,-4.844018817E-1
1.672741335E1,-5.546492934E-1,-5.882459283E-1,-4.701996744E-1
1.673656522E1,-4.242334068E-1,-7.253811359E-1,-4.300364852E-1
1.674571710E1,-2.677038014E-1,-8.008207679E-1,-3.825430870E-1
1.675486897E1,-1.056765765E-1,-8.136485219E-1,-3.440597057E-1
1.676402085E1,4.123219103E-2,-7.873821259E-1,-2.997733057E-1
1.677317272E1,1.698155403E-1,-7.742488980E-1,-2.463241518E-1
1.678232460E1,2.866400778E-1,-7.811209559E-1,-1.820324808E-1
1.679147642E1,3.677300513E-1,-7.921161652E-1,-9.651386738E-2
1.680061554E1,4.072824121E-1,-7.788302302E-1,1.542389300E-2
1.680978017E1,4.308000207E-1,-6.445965767E-1,1.346918195E-1
1.681893205E1,4.981459379E-1,-3.549022675E-1,2.313583940E-1
1.682807116E1,6.797202826E-1,1.221694518E-3,2.835858464E-1
1.683723580E1,1.030804753E0,3.698680103E-1,2.901524603E-1
1.684638767E1,1.535670042E0,6.520794630E-1,2.782409191E-1
1.685552679E1,2.028929234E0,6.826218367E-1,3.177932799E-1
1.686469137E1,2.351303816E0,3.985778391E-1,4.650074840E-1
1.687384324E1,2.554715872E0,-1.931804419E-1,6.890357137E-1
1.688299512E1,2.671998739E0,-8.515210748E-1,8.863393664E-1
1.689214699E1,2.692614794E0,-1.285528064E0,9.985825419E-1
1.690129887E1,2.707275152E0,-1.296065211E0,1.053711534E0
1.691045074E1,2.864568233E0,-1.178324342E0,1.061957955E0
1.691960262E1,3.123720169E0,-1.126707792E0,1.045465112E0
1.692875444E1,3.337974787E0,-1.185349107E0,1.061805248E0
1.693789356E1,3.441666126E0,-1.367534280E0,1.106549859E0
1.694705819E1,3.427464008E0,-1.565143347E0,1.116323352E0
1.695621007E1,3.284220219E0,-1.727170587E0,1.055696726E0
1.696534918E1,3.077142954E0,-1.886449099E0,9.633061290E-1
1.697451382E1,2.939091682E0,-1.922489047E0,8.725953102E-1
1.698366569E1,2.910534382E0,-1.793294787E0,8.014315963E-1
1.699280481E1,2.938480854E0,-1.526965380E0,7.666133046E-1
1.700196939E1,2.970550299E0,-1.169619799E0,7.598940134E-1
1.701112126E1,2.970855713E0,-7.357655168E-1,7.785248160E-1
1.702026038E1,2.950697660E0,-3.552076817E-1,8.495358229E-1
1.702942502E1,2.906411171E0,-4.886778072E-2,9.126058221E-1
1.703857689E1,2.849755287E0,1.301104724E-1,9.333745837E-1
1.704771600E1,2.785158157E0,2.087570578E-1,9.097042680E-1
1.705688064E1,2.691240311E0,2.440334857E-1,8.777875304E-1
1.706603246E1,2.593962908E0,2.312056869E-1,8.704573512E-1
1.707517163E1,2.525089741E0,1.588202864E-1,8.620582223E-1
1.708433621E1,2.476680279E0,6.459710002E-2,8.293778896E-1
1.709348809E1,2.454536915E0,1.252236869E-2,7.744016051E-1
1.710262720E1,2.440793037E0,-6.612421572E-2,7.084301114E-1
1.711179184E1,2.402462244E0,-1.551551968E-1,6.164975762E-1
1.712094371E1,2.308238983E0,-2.461714447E-1,4.944808483E-1
1.713008283E1,2.151862144E0,-3.576510847E-1,3.694098890E-1
1.713924741E1,1.958681703E0,-4.807367921E-1,2.557922900E-1
1.714839929E1,1.761378050E0,-5.735855699E-1,1.721062213E-1
1.715755116E1,1.574153423E0,-6.331431866E-1,1.238492802E-1
1.716670304E1,1.402047157E0,-6.716265678E-1,8.719844371E-2
1.717585491E1,1.220320106E0,-6.569662094E-1,3.878879920E-2
1.718500679E1,1.014464617E0,-5.767925382E-1,-1.343864016E-2
1.719415866E1,8.014315963E-1,-4.894413650E-1,-7.605048269E-2
1.720331054E1,5.664080977E-1,-4.370612204E-1,-1.514901221E-1
1.721246241E1,2.991624475E-1,-4.352286756E-1,-2.035648525E-1
1.722161423E1,1.099525020E-2,-4.712686539E-1,-2.012741715E-1
1.723076611E1,-2.568612695E-1,-5.306735635E-1,-1.591257155E-1
1.723991798E1,-4.720322192E-1,-5.566345453E-1,-1.203369126E-1
1.724906986E1,-6.557445526E-1,-4.862344265E-1,-8.261708915E-2
1.725822173E1,-8.725953102E-1,-3.344388604E-1,-8.551862091E-3
1.726736085E1,-1.092653036E0,-1.472141892E-1,4.902049154E-2
1.727652548E1,-1.246739268E0,-6.383354217E-2,4.169032723E-2
1.728567736E1,-1.362189412E0,-9.788827598E-2,7.635590737E-4
1.729482923E1,-1.433811188E0,-1.959292591E-1,-6.994201243E-2
1.730398106E1,-1.462826490E0,-2.765611112E-1,-1.873773932E-1
1.731313293E1,-1.356539011E0,-1.462979168E-1,-3.600944579E-1
1.732227205E1,-1.055085897E0,4.007157981E-1,-5.276193023E-1
1.733143668E1,-8.225058317E-1,7.618792653E-1,-5.871769190E-1
1.734058856E1,-1.041952729E0,2.137965336E-2,-4.747810364E-1
1.734972767E1,-1.675401330E0,-6.688777208E-1,-4.127800465E-1
1.735889231E1,-2.434531689E0,-2.316638231E-1,-3.530697227E-1
1.736804418E1,-2.815700531E0,1.325538516E0,-3.634541109E-2
1.737718330E1,-2.637943983E0,2.579302549E0,3.390202224E-1
1.738634788E1,-2.378486633E0,2.652604103E0,4.781406820E-1
1.739549976E1,-2.008771181E0,1.967080832E0,3.530697227E-1
1.740463887E1,-1.581789017E0,1.200773001E0,2.235700935E-1
1.741380350E1,-1.541014910E0,7.185090780E-1,1.997470558E-1
1.742295538E1,-1.737555027E0,8.918370306E-2,1.957765520E-1
1.743209449E1,-1.779703498E0,-6.306998134E-1,1.459924877E-1
1.744125913E1,-1.604237556E0,-1.282626510E0,8.719844371E-2
1.745041100E1,-1.439767003E0,-1.631725788E0,1.227803007E-1
1.745955012E1,-1.422357798E0,-1.566212416E0,2.376195788E-1
1.746871470E1,-1.384332657E0,-1.414111376E0,2.603736520E-1
1.747786658E1,-1.193595529E0,-1.444501042E0,1.169772521E-1
1.748700569E1,-1.031110168E0,-1.536128163E0,-8.994726092E-2
1.749617033E1,-1.021031141E0,-1.405406833E0,-2.585411072E-1
1.750532220E1,-1.112658262E0,-1.039509296E0,-3.706315756E-1
1.751446132E1,-1.198482275E0,-5.686988235E-1,-4.442386627E-1
1.752362595E1,-1.253153205E0,-8.506047726E-2,-4.747810364E-1
1.753277783E1,-1.284306407E0,3.538332880E-1,-4.314108789E-1
1.754192965E1,-1.303395391E0,7.307260633E-1,-3.182514310E-1
1.755108152E1,-1.310267329E0,1.024848938E0,-1.988307834E-1
1.756023340E1,-1.326454878E0,1.289498568E0,-1.362189353E-1
1.756937252E1,-1.309656501E0,1.468629479E0,-1.345391124E-1
1.757853715E1,-1.248571754E0,1.474585295E0,-1.485885978E-1
1.758768902E1,-1.189777732E0,1.389677525E0,-1.591257155E-1
1.759682814E1,-1.157860994E0,1.266133666E0,-1.673721522E-1
1.760599278E1,-1.155417562E0,1.132968903E0,-1.727170646E-1
1.761514465E1,-1.153585076E0,1.010035992E0,-1.843231618E-1
1.762429653E1,-1.126555085E0,8.965710402E-1,-2.212794125E-1
1.763344835E1,-1.109145880E0,8.252546191E-1,-2.661767006E-1
1.764260022E1,-1.135259628E0,7.902836204E-1,-2.921377122E-1
1.765175210E1,-1.160457134E0,7.823426127E-1,-3.075616062E-1
1.766090397E1,-1.171452284E0,8.484668136E-1,-3.174878657E-1
1.767005585E1,-1.180309653E0,9.503256083E-1,-3.260397315E-1
1.767920772E1,-1.162747741E0,1.054627776E0,-3.168770075E-1
1.768835960E1,-1.132052660E0,1.124875188E0,-2.788517773E-1
1.769751147E1,-1.119224906E0,1.112352848E0,-2.249445021E-1
1.770666335E1,-1.125486016E0,1.176949978E0,-1.953184158E-1
1.771581522E1,-1.169161677E0,1.379903913E0,-2.170034945E-1
1.772496705E1,-1.226581335E0,1.569877505E0,-2.768665254E-1
1.773411892E1,-1.285833478E0,1.671430826E0,-3.329117596E-1
1.774327080E1,-1.340656996E0,1.612178683E0,-3.765873313E-1
1.775242267E1,-1.333174109E0,1.557813168E0,-4.308000207E-1
1.776156179E1,-1.235285878E0,1.532310367E0,-5.015056133E-1
1.777072642E1,-1.101052165E0,1.361120462E0,-5.474718809E-1
1.777987830E1,-1.031110168E0,1.132358074E0,-5.517477989E-1
1.778901741E1,-9.776610136E-1,9.402466416E-1,-5.419742465E-1
1.779818205E1,-9.327637553E-1,7.328640223E-1,-5.305208564E-1
1.780733392E1,-9.718579650E-1,5.341859460E-1,-5.076140761E-1
1.781648574E1,-9.845330715E-1,4.341596961E-1,-4.837910235E-1
1.782563762E1,-9.294040799E-1,3.764346242E-1,-4.674508572E-1
1.783478949E1,-8.582404256E-1,2.174616307E-1,-4.650074840E-1
1.784394137E1,-8.406785131E-1,-1.985253580E-2,-4.726430774E-1
1.785309324E1,-8.913788795E-1,-2.206685692E-1,-4.789042473E-1
1.786224512E1,-9.455915689E-1,-2.870981991E-1,-4.958552718E-1
1.787139699E1,-9.634588361E-1,-1.921114624E-1,-5.312843919E-1
1.788054887E1,-9.324583411E-1,-5.894676223E-2,-5.685460567E-1
1.788970074E1,-8.559496999E-1,1.038440317E-2,-5.850389600E-1
1.789885262E1,-7.716528177E-1,2.626643144E-2,-5.703786016E-1
1.790800449E1,-7.035433054E-1,5.528167635E-2,-5.511369109E-1
1.791715632E1,-6.447492838E-1,1.423274130E-1,-5.331169367E-1
1.792629548E1,-5.566345453E-1,2.076880634E-1,-4.836383164E-1
1.793546007E1,-4.037700295E-1,2.221956849E-1,-3.768927455E-1
1.794461194E1,-1.913478971E-1,2.496838123E-1,-2.160872221E-1
1.795376382E1,6.948387623E-2,2.886253297E-1,-4.871506989E-2
1.796291569E1,4.182776511E-1,3.144336343E-1,5.925218388E-2
1.797206757E1,8.625163436E-1,4.048390090E-1,6.841489673E-2
1.798121944E1,1.341420531E0,5.796940327E-1,1.313321572E-2
1.799037132E1,1.722436547E0,7.157602906E-1,9.009997360E-3
1.799952319E1,1.969524264E0,8.196043372E-1,9.009996802E-2
1.800866231E1,2.094442606E0,6.418477297E-1,2.046338320E-1
1.801782689E1,2.167744160E0,1.424801201E-1,3.800997138E-1
1.802697877E1,2.303199530E0,-4.607315361E-1,6.471926570E-1
1.803611788E1,2.551814318E0,-9.407047629E-1,8.990144730E-1
1.804528252E1,2.835247517E0,-1.283695459E0,1.072800517E0
1.805443439E1,3.088596344E0,-1.479930162E0,1.192679286E0
1.806358626E1,3.262382507E0,-1.578276634E0,1.256818295E0
1.807273814E1,3.311861038E0,-1.727017879E0,1.238492846E0
1.808189002E1,3.221150398E0,-1.964942932E0,1.169467092E0
1.809102913E1,3.076837540E0,-2.335421801E0,1.092500329E0
1.810019376E1,2.972840786E0,-2.665584803E0,1.000415087E0
1.810934564E1,2.905953169E0,-2.771108627E0,8.612946272E-1
1.811848476E1,2.838607311E0,-2.549371004E0,7.331694365E-1
1.812764939E1,2.776148081E0,-2.015795946E0,6.668924689E-1
1.813680121E1,2.727585793E0,-1.383110881E0,6.557445526E-1
1.814594033E1,2.684673786E0,-8.028060198E-1,6.861341596E-1
1.815510496E1,2.651535273E0,-3.681881726E-1,7.498149872E-1
1.816425684E1,2.610913992E0,-3.955236077E-2,8.066238165E-1
1.817340871E1,2.560671806E0,1.739387512E-1,8.580876589E-1
1.818256059E1,2.492562294E0,3.269560039E-1,8.959602118E-1
1.819171246E1,2.395895720E0,4.503471553E-1,9.194778204E-1
1.820085158E1,2.311445951E0,4.413371384E-1,9.261971712E-1
1.821001621E1,2.260287523E0,3.025220931E-1,9.126058221E-1
1.821916809E1,2.225774765E0,1.053711548E-1,8.709154725E-1
1.822830720E1,2.210961580E0,-1.240019947E-1,8.087617755E-1
1.823747179E1,2.203784227E0,-3.387148082E-1,7.466080785E-1
1.824662366E1,2.184084415E0,-5.155550838E-1,6.788040400E-1
1.825576283E1,2.128039122E0,-6.184828281E-1,5.832064152E-1
1.826492741E1,2.035495758E0,-6.974348426E-1,4.805840850E-1
1.827407929E1,1.916991353E0,-7.678350210E-1,3.869717419E-1
1.828323116E1,1.780314326E0,-8.208259940E-1,3.054236174E-1
1.829238304E1,1.617523551E0,-8.599202037E-1,2.365505993E-1
1.830153491E1,1.437170863E0,-8.530482054E-1,1.815743446E-1
1.831068679E1,1.234675050E0,-7.999044657E-1,1.391204596E-1
1.831983866E1,1.003469348E0,-7.119424939E-1,1.058292910E-1
1.832899054E1,7.594358325E-1,-6.256603003E-1,7.956285775E-2
1.833814241E1,5.079194903E-1,-5.477772951E-1,6.001574174E-2
1.834729429E1,2.597627938E-1,-5.030327439E-1,5.451811850E-2
1.835644616E1,3.924693540E-2,-5.111264586E-1,5.971032009E-2
1.836559798E1,-1.324011385E-1,-5.500679612E-1,4.993676394E-2
1.837474986E1,-2.802261710E-1,-5.599942207E-1,3.741439432E-2
1.838390173E1,-4.422534108E-1,-5.257867575E-1,6.673506647E-2
1.839305361E1,-6.152759194E-1,-4.993676245E-1,1.308740228E-1
1.840220548E1,-8.060129285E-1,-4.999784827E-1,1.800472289E-1
1.841135736E1,-1.030499339E0,-4.756973088E-1,1.791309565E-1
1.842049647E1,-1.243379593E0,-4.129327536E-1,1.183516532E-1
1.842966111E1,-1.390593767E0,-3.194731176E-1,3.787253052E-2
1.843881298E1,-1.454732776E0,-2.144073844E-1,-2.428117767E-2
1.844796486E1,-1.428924441E0,-1.885990947E-1,-7.055285573E-2
1.845711673E1,-1.339282632E0,-2.718270421E-1,-1.120904684E-1
1.846626861E1,-1.118308663E0,-2.837385535E-1,-1.733279079E-1
1.847540772E1,-7.134696245E-1,5.467082933E-2,-2.458660156E-1
1.848457236E1,-4.164451063E-1,4.908157587E-1,-2.666348219E-1
1.849372423E1,-5.390726924E-1,1.637070626E-1,-1.615691036E-1
1.850286335E1,-9.680401683E-1,-2.391466945E-1,-6.245913357E-2
1.851202798E1,-1.641193867E0,1.345391124E-1,-9.376505762E-2
1.852117981E1,-2.241198540E0,1.082574010E0,-1.133121699E-1
1.853031897E1,-2.296327591E0,2.172936440E0,1.206423342E-1
1.853948356E1,-2.074131966E0,2.777064323E0,4.198047817E-1
1.854863543E1,-1.911188364E0,2.498670816E0,3.570402265E-1
1.855777455E1,-1.770388126E0,1.750077367E0,1.148392856E-1
1.856693918E1,-1.684105873E0,1.114643574E0,-3.420744836E-2
1.857609106E1,-1.668529272E0,4.291202128E-1,-9.345962852E-2
1.858523017E1,-1.701973200E0,-2.912214398E-1,-1.579040140E-1
1.859439481E1,-1.718466043E0,-7.592831254E-1,-2.420482337E-1
1.860354668E1,-1.657839417E0,-9.736905098E-1,-2.719797492E-1
1.861269856E1,-1.499782681E0,-1.102732062E0,-2.029540092E-1
1.862185043E1,-1.318819284E0,-1.118461370E0,-1.204896197E-1
1.863100231E1,-1.208561301E0,-1.097845197E0,-1.330119967E-1
1.864014142E1,-1.147934675E0,-1.155875683E0,-2.186833173E-1
1.864930606E1,-1.103801012E0,-1.150225401E0,-3.057290614E-1
1.865845793E1,-1.120904684E0,-9.472714067E-1,-3.510844707E-1
1.866759705E1,-1.189166903E0,-6.129852533E-1,-3.720059693E-1
1.867676163E1,-1.273921967E0,-2.154763639E-1,-3.875826001E-1
1.868591351E1,-1.342489600E0,2.182251811E-1,-3.840702176E-1
1.869506538E1,-1.392731786E0,6.372663975E-1,-3.225273490E-1
1.870421726E1,-1.412889719E0,9.883508682E-1,-2.160872221E-1
1.871336913E1,-1.401436329E0,1.271936655E0,-1.362189353E-1
1.872252100E1,-1.356844425E0,1.444501042E0,-1.067455560E-1
1.873167288E1,-1.296217918E0,1.486191392E0,-9.895725548E-2
1.874082476E1,-1.242005229E0,1.467560530E0,-7.666133344E-2
1.874997663E1,-1.211157441E0,1.442515850E0,-3.665083647E-2
1.875912850E1,-1.189625025E0,1.360814929E0,-5.344913341E-3
1.876828038E1,-1.138161182E0,1.265675545E0,-9.773556143E-3
1.877743226E1,-1.053864241E0,1.157708287E0,-5.726693198E-2
1.878658413E1,-9.741486907E-1,1.041341901E0,-1.250709742E-1
1.879573601E1,-9.489512444E-1,9.283351302E-1,-1.901262105E-1
1.880488788E1,-9.814788103E-1,8.057075143E-1,-2.287622988E-1
1.881403976E1,-1.024238110E0,7.502731681E-1,-2.412846684E-1
1.882319163E1,-1.046839476E0,7.284353375E-1,-2.467822880E-1
1.883234350E1,-1.045312405E0,7.151494026E-1,-2.632751763E-1
1.884149538E1,-1.052031636E0,7.162184119E-1,-2.884726226E-1
1.885064726E1,-1.081352353E0,7.577560544E-1,-3.020639718E-1
1.885979913E1,-1.121821046E0,8.070819378E-1,-2.980934680E-1
1.886895100E1,-1.163053155E0,8.588512540E-1,-2.875563502E-1
1.887810288E1,-1.192068458E0,9.463551044E-1,-2.895416021E-1
1.888725470E1,-1.184127450E0,1.030652046E0,-3.017585576E-1
1.889640658E1,-1.178782463E0,1.129303813E0,-3.237490356E-1
1.890555845E1,-1.204743505E0,1.215891480E0,-3.619270027E-1
1.891471033E1,-1.259261608E0,1.339740753E0,-4.075878263E-1
1.892386220E1,-1.319735527E0,1.439614296E0,-4.410317242E-1
1.893301408E1,-1.337755442E0,1.544832706E0,-4.778352678E-1
1.894216595E1,-1.263842940E0,1.652647257E0,-5.409052372E-1
1.895131783E1,-1.153890491E0,1.725948930E0,-6.116108298E-1
1.896046970E1,-1.123806238E0,1.682578802E0,-6.365028620E-1
1.896962158E1,-1.181989431E0,1.547734261E0,-6.050441861E-1
1.897877345E1,-1.169008970E0,1.456870675E0,-5.578562617E-1
1.898792533E1,-1.047755718E0,1.326454878E0,-5.276193023E-1
1.899707720E1,-9.394831061E-1,1.050657272E0,-4.960079789E-1
1.900622908E1,-8.890882134E-1,7.814263701E-1,-4.692834020E-1
1.901538095E1,-8.539644480E-1,6.375718117E-1,-4.653128982E-1
1.902453283E1,-8.405258060E-1,4.369085133E-1,-4.607315361E-1
1.903368470E1,-8.590039611E-1,1.663031727E-1,-4.556920528E-1
1.904283658E1,-9.006943107E-1,-1.084253844E-2,-4.553866386E-1
1.905198845E1,-9.107732773E-1,-5.008947477E-2,-4.627167881E-1
1.906114033E1,-8.834378719E-1,1.374406368E-2,-4.931064546E-1
1.907029220E1,-8.260182142E-1,8.780929446E-2,-5.209000111E-1
1.907944408E1,-7.733326554E-1,4.031591862E-2,-5.106683373E-1
1.908859595E1,-7.585195899E-1,-5.222744122E-2,-4.628695250E-1
1.909774783E1,-7.673768401E-1,-1.189625040E-1,-4.219427407E-1
1.910689970E1,-7.821899056E-1,-1.117850468E-1,-4.159869850E-1
1.911605158E1,-7.779139876E-1,-3.833066672E-2,-4.337015450E-1
1.912520345E1,-7.346965671E-1,4.367557913E-2,-4.425588250E-1
1.913435533E1,-6.575770974E-1,9.269607067E-2,-4.274403751E-1
1.914350720E1,-5.746545792E-1,1.073564067E-1,-3.907895386E-1
1.915265908E1,-5.164713860E-1,1.262926757E-1,-3.367295563E-1
1.916181095E1,-4.874561131E-1,1.627907902E-1,-2.932066917E-1
1.917096283E1,-4.598152637E-1,2.368560284E-1,-2.802261710E-1
1.918011470E1,-3.965925872E-1,3.419217467E-1,-2.724378705E-1
1.918926658E1,-2.761029601E-1,4.295783341E-1,-2.509055138E-1
1.919841845E1,-1.014006436E-1,4.601207078E-1,-2.144073844E-1
1.920757033E1,1.090362370E-1,4.141544402E-1,-1.682884246E-1
1.921672220E1,3.283303976E-1,2.707580328E-1,-1.146865711E-1
1.922587408E1,5.357130170E-1,5.451811850E-2,-4.718795046E-2
1.923502595E1,7.261446714E-1,-1.925695986E-1,4.596625641E-2
1.924417783E1,9.066500664E-1,-4.413371384E-1,1.646233350E-1
1.925332970E1,1.083184958E0,-6.839962006E-1,2.895416021E-1
1.926248158E1,1.272089362E0,-8.990144730E-1,3.947600424E-1
1.927163345E1,1.479166627E0,-1.064095974E0,4.708105326E-1
1.928078533E1,1.704263806E0,-1.174353838E0,5.244123936E-1
1.928993720E1,1.946464777E0,-1.268424392E0,5.665608048E-1
1.929908908E1,2.179044962E0,-1.302326322E0,5.845808387E-1
1.930824095E1,2.337712526E0,-1.191152096E0,5.819846988E-1
1.931739283E1,2.387496471E0,-8.820634484E-1,5.821374655E-1
1.932653194E1,2.400782347E0,-5.149442554E-1,6.094728708E-1
1.933569658E1,2.374057770E0,-3.063398898E-1,6.507050395E-1
1.934484845E1,2.316638231E0,-3.393256664E-1,7.223268747E-1
1.935398757E1,2.261814594E0,-5.202891231E-1,8.173136115E-1
1.936315220E1,2.307933569E0,-6.778877378E-1,8.886300325E-1
1.937230408E1,2.505389929E0,-8.342646360E-1,9.042066336E-1
1.938145595E1,2.769734144E0,-9.784246087E-1,8.976400495E-1
1.939060783E1,2.987195730E0,-1.093721986E0,8.985562921E-1
1.939975970E1,3.094857693E0,-1.145949483E0,8.858812451E-1
1.940891158E1,3.117611647E0,-1.181225896E0,8.428165317E-1
1.941806345E1,3.090123653E0,-1.241699815E0,7.724163532E-1
1.942721533E1,3.032398462E0,-1.301868200E0,6.749862432E-1
1.943635444E1,2.954210043E0,-1.339740753E0,5.810684562E-1
1.944551908E1,2.850976944E0,-1.353179336E0,5.479300022E-1
1.945467095E1,2.724684238E0,-1.294843435E0,5.732801557E-1
1.946381007E1,2.600071430E0,-1.121210098E0,6.418477297E-1
1.947297470E1,2.488286257E0,-9.162709117E-1,7.287407517E-1
1.948212658E1,2.395284891E0,-6.913263798E-1,7.921161652E-1
1.949127845E1,2.326411724E0,-4.245388508E-1,8.128849864E-1
1.950043033E1,2.291440725E0,-1.618745178E-1,7.867712975E-1
1.950958220E1,2.280140162E0,8.628217876E-2,7.577560544E-1
1.951873408E1,2.272657156E0,2.422009408E-1,7.374453545E-1
1.952788595E1,2.243031025E0,3.301629424E-1,7.255338430E-1
1.953703783E1,2.158428907E0,4.191939235E-1,7.224795818E-1
1.954617694E1,2.021751642E0,4.581354558E-1,7.397360206E-1
1.955534158E1,1.876828194E0,3.796415627E-1,7.663078904E-1
1.956449345E1,1.776496530E0,2.174616307E-1,7.742488980E-1
1.957363257E1,1.739540339E0,1.496575773E-2,7.601994276E-1
1.958279720E1,1.731599212E0,-1.743968874E-1,7.339329720E-1
1.959194908E1,1.710525036E0,-3.746020794E-1,7.058340311E-1
1.960110095E1,1.685938478E0,-6.248967648E-1,6.575770974E-1
1.961025283E1,1.660435557E0,-8.470924497E-1,5.758762360E-1
1.961940470E1,1.644706249E0,-1.047450304E0,4.897467792E-1
1.962855658E1,1.618439794E0,-1.253916740E0,4.194993675E-1
1.963770845E1,1.566212416E0,-1.448166132E0,3.611634374E-1
1.964686033E1,1.488634825E0,-1.588355541E0,3.162661791E-1
1.965601220E1,1.414264083E0,-1.663184404E0,2.857238054E-1
1.966516408E1,1.351957679E0,-1.641804695E0,2.573194206E-1
1.967431595E1,1.282168388E0,-1.539487839E0,2.255553454E-1
1.968346783E1,1.180920482E0,-1.359745979E0,1.928750277E-1
1.969261970E1,1.045465112E0,-1.153432369E0,1.589729935E-1
1.970177158E1,8.886300325E-1,-9.675820470E-1,1.221694499E-1
1.971092350E1,7.288935184E-1,-7.999044657E-1,7.635590434E-2
1.972007538E1,5.856497884E-1,-6.778877378E-1,4.230117425E-2
1.972922726E1,4.498890042E-1,-5.883986354E-1,2.473931387E-2
1.973837913E1,3.043546379E-1,-5.024218559E-1,2.000524849E-2
1.974753101E1,1.522536725E-1,-3.804051280E-1,2.015795931E-2
1.975668288E1,2.046338283E-2,-2.570139766E-1,1.908897609E-2
1.976583476E1,-7.803573459E-2,-1.330119967E-1,1.160609815E-2
1.977498663E1,-1.521009654E-1,2.580829710E-2,-5.497625098E-3
1.978413850E1,-2.255553454E-1,1.786728203E-1,-2.137965336E-2
1.979329038E1,-2.983988822E-1,2.593046725E-1,-2.076880634E-2
1.980244226E1,-3.710896969E-1,2.454078794E-1,-9.009997360E-3
1.981159413E1,-4.428642690E-1,1.380514801E-1,9.162708884E-4
1.982074600E1,-5.129590034E-1,-1.450762246E-2,1.206423342E-2
1.982989788E1,-5.822901726E-1,-1.417165697E-1,2.031067200E-2
1.983904976E1,-6.542174220E-1,-2.357870489E-1,2.718270384E-2
1.984820168E1,-7.137750387E-1,-3.364241421E-1,3.894151375E-2
1.985735351E1,-7.653915882E-1,-4.372139275E-1,6.184828654E-2
1.986650543E1,-8.177717924E-1,-5.070032477E-1,9.147437662E-2
1.987565731E1,-8.586985469E-1,-5.581616759E-1,1.198787764E-1
1.988480918E1,-8.713735938E-1,-6.051968932E-1,1.418692768E-1
1.989396106E1,-8.724426031E-1,-6.242858768E-1,1.577513069E-1
1.990311293E1,-8.703046441E-1,-6.128324866E-1,1.742441803E-1
1.991226481E1,-8.828269839E-1,-5.874823332E-1,1.924168915E-1
1.992141668E1,-9.148964882E-1,-5.326588154E-1,2.092151791E-1
1.993056856E1,-9.718579650E-1,-4.324798584E-1,2.315111160E-1
1.993972043E1,-1.040272832E0,-3.217637837E-1,2.589992285E-1
1.994887231E1,-1.110825777E0,-2.192941606E-1,2.718270421E-1
1.995802418E1,-1.192526579E0,-1.044548824E-1,2.632751763E-1
1.996717606E1,-1.271783948E0,2.428117767E-2,2.363978922E-1
1.997632798E1,-1.334243178E0,1.282779276E-1,1.997470558E-1
1.998547981E1,-1.381889224E0,1.792836636E-1,1.536280811E-1
1.999463173E1,-1.404185176E0,2.110477239E-1,9.727742523E-2
2.000378361E1,-1.324316859E0,2.620534599E-1,4.092676565E-2
2.001292272E1,-1.048519373E0,3.141281903E-1,1.527118147E-4
2.002208736E1,-5.832064152E-1,2.817533016E-1,-2.840439789E-2
2.003123923E1,-5.467082933E-2,3.420744836E-2,-3.848337755E-2
2.004037835E1,2.770192325E-1,-3.984251320E-1,-1.023169141E-2
2.004954298E1,3.439069986E-1,-7.995990515E-1,9.009997360E-3
2.005869486E1,2.589992285E-1,-5.280774832E-1,-1.634016447E-2
2.006783402E1,4.245388508E-2,5.486935377E-1,-1.456870735E-1
2.007699866E1,-2.122694254E-1,1.260635972E0,-2.822114229E-1
2.008615054E1,-4.776825607E-1,9.885035753E-1,-4.048390090E-1
2.009528965E1,-7.757760286E-1,3.771981895E-1,-4.889832437E-1
2.010445429E1,-9.797990322E-1,2.764083743E-1,-4.353813827E-1
2.011360616E1,-1.107466102E0,8.432746530E-1,-2.797680497E-1
2.012274528E1,-1.285986185E0,1.387234092E0,-1.336228400E-1
2.013190991E1,-1.422205091E0,1.508334637E0,-9.009996802E-2
2.014106179E1,-1.404796004E0,1.371962905E0,-1.404948682E-1
2.015020095E1,-1.288429618E0,9.993461370E-1,-2.286095917E-1
2.015936559E1,-1.210241079E0,4.827220440E-1,-2.985515893E-1
2.016851746E1,-1.267355323E0,6.490252167E-2,-3.242071867E-1
2.017766934E1,-1.241852522E0,-2.368560284E-1,-3.312319219E-1
2.018682121E1,-1.118461370E0,-5.187620521E-1,-3.393256664E-1
2.019597309E1,-1.155417562E0,-6.832326651E-1,-3.260397315E-1
2.020511220E1,-1.327371120E0,-7.001836896E-1,-2.721324563E-1
2.021427684E1,-1.430757046E0,-6.193991303E-1,-1.979145110E-1
2.022342871E1,-1.458397865E0,-3.793361485E-1,-1.377460510E-1
2.023256788E1,-1.513068676E0,-7.666133344E-2,-6.887302548E-2
2.024173252E1,-1.609277129E0,1.687465608E-1,4.886778072E-3
2.025088439E1,-1.640124917E0,3.665083647E-1,3.619270027E-2
2.026003626E1,-1.553995371E0,6.021426916E-1,1.588202827E-2
2.026918814E1,-1.479472041E0,7.780666947E-1,-2.702999115E-2
2.027834002E1,-1.517802715E0,7.995990515E-1,-5.971032009E-2
2.028749189E1,-1.555827975E0,7.892146707E-1,-7.635590434E-2
2.029664377E1,-1.512915969E0,8.180772066E-1,-8.536590636E-2
2.030579564E1,-1.446180940E0,7.994463444E-1,-9.590301663E-2
2.031494757E1,-1.411820769E0,7.470661998E-1,-1.059819981E-1
2.032409944E1,-1.413805962E0,6.403206587E-1,-1.211004704E-1
2.033325132E1,-1.408613801E0,5.474718809E-1,-1.406475753E-1
2.034240319E1,-1.405406833E0,4.726430774E-1,-1.606528312E-1
2.035155507E1,-1.408002973E0,3.509317636E-1,-1.710372269E-1
2.036070694E1,-1.360356808E0,2.510582209E-1,-1.577513069E-1
2.036985882E1,-1.294079900E0,1.947075576E-1,-1.291942000E-1
2.037901074E1,-1.256665468E0,1.441599578E-1,-1.136175916E-1
2.038816262E1,-1.229482770E0,6.704048812E-2,-1.267508119E-1
2.039731449E1,-1.212379098E0,3.619270027E-2,-1.595838517E-1
2.040646637E1,-1.212837219E0,1.101052165E-1,-1.998997629E-1
2.041561824E1,-1.208866715E0,2.455606014E-1,-2.330382317E-1
2.042477012E1,-1.210546613E0,4.329380095E-1,-2.594573796E-1
2.043392199E1,-1.217723966E0,6.375718117E-1,-2.870981991E-1
2.044307392E1,-1.235591292E0,8.562551737E-1,-3.100049794E-1
2.045222580E1,-1.270867705E0,1.078603506E0,-3.261924386E-1
2.046137767E1,-1.286138892E0,1.278045177E0,-3.295520842E-1
2.047052955E1,-1.246281147E0,1.439003468E0,-3.190149665E-1
2.047968142E1,-1.209630251E0,1.536738992E0,-2.950392365E-1
2.048883330E1,-1.220778227E0,1.536280870E0,-2.748812735E-1
2.049798517E1,-1.226886749E0,1.457328796E0,-2.614426315E-1
2.050712434E1,-1.175881028E0,1.321262598E0,-2.487675399E-1
2.051628897E1,-1.101204872E0,1.165954709E0,-2.377723008E-1
2.052544085E1,-1.039814711E0,9.797990322E-1,-2.322746664E-1
2.053459272E1,-9.973608851E-1,7.689039707E-1,-2.228065431E-1
2.054374460E1,-9.713998437E-1,5.497625470E-1,-2.180724740E-1
2.055289647E1,-9.315420985E-1,3.785725832E-1,-2.299840003E-1
2.056204840E1,-8.912261724E-1,2.930539846E-1,-2.380777150E-1
2.057120028E1,-8.580876589E-1,2.961082160E-1,-2.342599183E-1
2.058035215E1,-8.209787011E-1,3.474193811E-1,-2.241809368E-1
2.058950402E1,-7.948650122E-1,3.872771561E-1,-2.118112892E-1
2.059865590E1,-7.747070193E-1,4.030064642E-1,-2.018850148E-1
2.060780778E1,-7.492041588E-1,3.700207174E-1,-1.962346882E-1
2.061695965E1,-6.930062175E-1,2.809897363E-1,-1.853921413E-1
2.062611158E1,-6.261184216E-1,1.840177327E-1,-1.745496094E-1
2.063526345E1,-5.891621709E-1,1.191152185E-1,-1.748550236E-1
2.064441533E1,-5.897729993E-1,5.085303262E-2,-1.863084137E-1
2.065356720E1,-5.993938446E-1,-3.771981969E-2,-2.076880634E-1
2.066271908E1,-5.935907960E-1,-7.101099193E-2,-2.089097649E-1
2.067187095E1,-5.764871240E-1,-5.879404768E-2,-1.824906170E-1
2.068102288E1,-5.624375939E-1,-7.177454978E-2,-1.450762302E-1
2.069017476E1,-5.450284481E-1,-1.096470803E-1,-1.133121699E-1
2.069932663E1,-5.341859460E-1,-1.469087601E-1,-9.300149232E-2
2.070847851E1,-5.483881235E-1,-2.246390730E-1,-9.055810422E-2
2.071763038E1,-5.864133835E-1,-2.409792393E-1,-1.061347127E-1
2.072678226E1,-6.154286265E-1,-1.476723254E-1,-1.180462316E-1
2.073593418E1,-6.169557571E-1,-4.886778072E-2,-1.168245375E-1
2.074508606E1,-6.018372774E-1,-2.473931387E-2,-1.160609797E-1
2.075423793E1,-6.039752364E-1,-6.520794332E-2,-1.166718230E-1
2.076338981E1,-6.322268844E-1,-1.417165697E-1,-1.223221645E-1
2.077254168E1,-6.464291215E-1,-1.979145110E-1,-1.346918195E-1
2.078169361E1,-6.129852533E-1,-2.044811249E-1,-1.417165697E-1
2.079084548E1,-5.581616759E-1,-2.055501044E-1,-1.475196183E-1
2.079999736E1,-5.094466209E-1,-2.092151791E-1,-1.545443535E-1
2.080914923E1,-4.731011987E-1,-2.047865391E-1,-1.536280811E-1
2.081830111E1,-4.399627447E-1,-2.560977042E-1,-1.484358907E-1
2.082745298E1,-3.990359604E-1,-2.945810854E-1,-1.371352077E-1
2.083660486E1,-3.429907262E-1,-2.165453583E-1,-1.191152185E-1
2.084575679E1,-2.925958335E-1,-7.131642103E-2,-1.139230132E-1
2.085490866E1,-2.591519356E-1,5.467082933E-2,-1.168245375E-1
2.086406054E1,-2.309002578E-1,1.385096163E-1,-1.191152185E-1
2.087321241E1,-1.976090819E-1,2.043284029E-1,-9.819369763E-2
2.088236429E1,-1.594311297E-1,2.570139766E-1,-4.245388508E-2
2.089151621E1,-1.275143623E-1,3.014531136E-1,3.344388679E-2
2.090066809E1,-1.091889441E-1,3.516952991E-1,1.075091213E-1
2.090981996E1,-1.209477559E-1,4.133908749E-1,1.543916464E-1
2.091897184E1,-1.673721522E-1,4.903576374E-1,1.490467340E-1
2.092812371E1,-1.976090819E-1,6.016845703E-1,1.146865711E-1
2.093727559E1,-1.805053651E-1,6.925480962E-1,7.742489129E-2
2.094642752E1,-1.392731816E-1,7.099572420E-1,5.268557742E-2
2.095557939E1,-1.068982705E-1,6.720846891E-1,4.932591692E-2
2.096473126E1,-1.072036922E-1,6.449019909E-1,5.115845799E-2
2.097388314E1,-1.437018216E-1,6.641436815E-1,4.657710344E-2
2.098303502E1,-1.921114624E-1,7.056813240E-1,4.062134400E-2
2.099218694E1,-2.269297540E-1,7.267554998E-1,4.169032723E-2
2.100133882E1,-2.446443290E-1,7.122479081E-1,4.581354558E-2
2.101049069E1,-2.487675399E-1,6.784985662E-1,4.337015375E-2
2.101964257E1,-2.499892414E-1,6.265766025E-1,3.237490356E-2
2.102879444E1,-2.414373755E-1,5.656445622E-1,8.704573847E-3
2.103794637E1,-2.356343269E-1,4.883723855E-1,-1.801999472E-2
2.104709824E1,-2.359397560E-1,3.936910629E-1,-4.550812021E-2
2.105625012E1,-2.441861928E-1,2.916795611E-1,-7.711946964E-2
2.106540199E1,-2.513636351E-1,2.072299272E-1,-1.070509851E-1
2.107455387E1,-2.463241518E-1,1.450762302E-1,-1.272089481E-1
2.108370574E1,-2.385358512E-1,1.010952219E-1,-1.288887709E-1
2.109285767E1,-2.324273884E-1,9.452861547E-2,-1.154501289E-1
2.110200955E1,-2.315111160E-1,1.180462316E-1,-9.956810623E-2
2.111116142E1,-2.316638231E-1,1.440072358E-1,-9.040539712E-2
2.112031330E1,-2.144073844E-1,1.507265568E-1,-8.857285231E-2
2.112946517E1,-1.772984117E-1,1.320957243E-1,-8.643488586E-2
2.113861710E1,-1.406475753E-1,9.116895497E-2,-7.879929990E-2
2.114776897E1,-1.217113137E-1,3.710897267E-2,-6.215370819E-2
2.115692085E1,-1.226275861E-1,-1.099525020E-2,-3.695625812E-2
2.116607272E1,-1.351499557E-1,-5.971032009E-2,-1.634016447E-2
2.117522460E1,-1.415638477E-1,-1.127013192E-1,3.206948051E-3
2.118437652E1,-1.345391124E-1,-1.554606259E-1,2.336490713E-2
2.119352840E1,-1.165191159E-1,-1.866138428E-1,4.489727318E-2
2.120268028E1,-1.035386100E-1,-1.907370538E-1,5.543438718E-2
2.121183215E1,-9.208522737E-2,-1.534753740E-1,5.054761097E-2
2.122098402E1,-7.956285775E-2,-9.804098308E-2,3.420744836E-2
2.123013595E1,-6.413896382E-2,-2.107422985E-2,8.551862091E-3
2.123928783E1,-6.062658876E-2,8.139539510E-2,-1.710372418E-2
2.124843970E1,-7.879929990E-2,1.902789176E-1,-3.817795217E-2
2.125759158E1,-1.116323397E-1,2.895416021E-1,-5.008947477E-2
2.126674345E1,-1.400367320E-1,3.619270027E-1,-5.451811850E-2
2.127589538E1,-1.545443535E-1,3.936910629E-1,-5.833591148E-2
2.128504726E1,-1.548497826E-1,3.816268146E-1,-6.566607952E-2
2.129419913E1,-1.391204596E-1,3.376458287E-1,-7.162184268E-2
2.130335100E1,-1.139230132E-1,2.774773538E-1,-7.513421029E-2
2.131250288E1,-7.818844914E-2,2.166980654E-1,-7.666133344E-2
2.132165481E1,-3.161134571E-2,1.727170646E-1,-6.948387623E-2
2.133080668E1,1.969982497E-2,1.360662282E-1,-5.635065958E-2
2.133995856E1,5.650337040E-2,8.994726092E-2,-3.710897267E-2
2.134911043E1,6.673506647E-2,4.230117425E-2,-1.679829881E-2
2.135826231E1,6.444438547E-2,3.817795310E-3,-3.359660041E-3
2.136741423E1,5.864133686E-2,-3.649812192E-2,-3.054236295E-4
2.137656611E1,5.421269313E-2,-7.879929990E-2,-3.359660041E-3
2.138571798E1,5.192201585E-2,-1.107160673E-1,-4.581354558E-3
2.139486986E1,4.642439261E-2,-1.281252056E-1,-9.162708884E-4
2.140402173E1,4.306473210E-2,-1.485885978E-1,9.162708884E-4
2.141317366E1,4.321744293E-2,-1.667613089E-1,-9.162708884E-4
2.142232554E1,4.764608666E-2,-1.776038408E-1,-5.803049076E-3
2.143147741E1,4.764608666E-2,-1.890572309E-1,-1.068982668E-2
2.144062929E1,4.169032723E-2,-2.070772201E-1,-1.435491070E-2
2.144978121E1,3.558185324E-2,-2.168507725E-1,-1.313321572E-2
2.145893309E1,3.115320951E-2,-2.029540092E-1,-1.328592747E-2
2.146808496E1,2.733541466E-2,-1.782146841E-1,-1.878355257E-2
2.147723684E1,2.641914412E-2,-1.385096163E-1,-2.794626169E-2
2.148638871E1,2.901524492E-2,-8.979454637E-2,-3.344388679E-2
2.149554064E1,3.176405653E-2,-3.848337755E-2,-3.527642787E-2
2.150469252E1,3.145863488E-2,-1.068982761E-3,-3.161134571E-2
2.151384439E1,2.870982140E-2,1.939439960E-2,-2.626643144E-2
2.152299626E1,1.771457121E-2,1.267508045E-2,-2.809897438E-2
2.153214819E1,1.527118147E-4,-2.764083818E-2,-3.069507517E-2
2.154130007E1,-1.053711493E-2,-7.650861889E-2,-2.825168520E-2
2.155045194E1,-1.404948719E-2,-1.041494608E-1,-2.519745007E-2
2.155960382E1,-5.192201585E-3,-1.186570823E-1,-2.702999115E-2
2.156875569E1,9.620844387E-3,-1.241547018E-1,-2.443389036E-2
2.157790757E1,2.916795574E-2,-1.076618284E-1,-1.939439960E-2
2.158705949E1,4.550812021E-2,-8.108997345E-2,-1.450762246E-2
2.159621137E1,5.222744122E-2,-7.223268598E-2,-1.252236869E-2
2.160536324E1,4.978405312E-2,-7.757759839E-2,-1.374406368E-2
2.161451512E1,4.810422286E-2,-8.536590636E-2,-1.496575773E-2
2.162366705E1,5.008947477E-2,-1.029277667E-1,-1.435491070E-2
2.163281892E1,5.650337040E-2,-1.269035190E-1,-1.679829881E-2
2.164197080E1,6.459710002E-2,-1.432436854E-1,-2.275406010E-2
2.165112267E1,7.330167294E-2,-1.456870735E-1,-2.519745007E-2
2.166027455E1,8.490777016E-2,-1.479777545E-1,-1.527118124E-2
2.166942647E1,8.490777016E-2,-1.545443535E-1,-6.108472589E-4
2.167857835E1,7.024743408E-2,-1.666085869E-1,1.145338640E-2
2.168773022E1,4.398100078E-2,-1.853921413E-1,4.581354558E-3
2.169688210E1,1.695101149E-2,-1.939440072E-1,-9.620844387E-3
2.170603402E1,5.344913341E-3,-2.000524700E-1,-1.710372418E-2
2.171518590E1,1.099525020E-2,-2.084516287E-1,-1.893626526E-2
2.172433778E1,2.565558441E-2,-2.096733153E-1,-1.572931744E-2
2.173348965E1,3.924693540E-2,-2.076880634E-1,-8.857285604E-3
2.174264158E1,4.169032723E-2,-2.089097649E-1,-4.581354558E-3
2.175179345E1,3.374931216E-2,-2.154763639E-1,-3.970507067E-3
2.176094533E1,2.031067200E-2,-2.305948436E-1,-5.955760833E-3
2.177009720E1,1.542389300E-2,-2.397575527E-1,-1.206423342E-2
2.177924908E1,2.657185495E-2,-2.360924631E-1,-1.572931744E-2
2.178840100E1,5.161659420E-2,-2.125748396E-1,-1.557660475E-2
2.179755288E1,7.605048269E-2,-1.811162084E-1,-1.175880991E-2
2.180670476E1,8.124268800E-2,-1.444653720E-1,-1.175880991E-2
2.181585663E1,6.306997687E-2,-1.125486046E-1,-1.496575773E-2
2.182500856E1,3.100049868E-2,-9.697200358E-2,-1.634016447E-2
2.183416043E1,2.596100792E-3,-9.575030953E-2,-1.847812906E-2
2.184331231E1,-1.359135192E-2,-8.857285231E-2,-2.336490713E-2
2.185246418E1,-1.420219894E-2,-8.139539510E-2,-2.702999115E-2
2.186161606E1,-5.497625098E-3,-7.956285775E-2,-3.191677108E-2
2.187076798E1,8.551862091E-3,-7.650861889E-2,-3.115320951E-2
2.187991986E1,2.199050039E-2,-6.810946763E-2,-2.932066843E-2
2.188907173E1,2.260134928E-2,-5.344913527E-2,-2.626643144E-2
2.189822366E1,1.832541777E-3,-2.412846684E-2,-2.336490713E-2
2.190737554E1,-2.611372061E-2,1.695101149E-2,-2.046338283E-2
2.191652741E1,-4.795150831E-2,4.398100078E-2,-1.954711229E-2
2.192567929E1,-5.803048983E-2,6.261184067E-2,-2.321219631E-2
2.193483116E1,-5.818320066E-2,7.773031294E-2,-2.870982140E-2
2.194398309E1,-5.573981255E-2,9.147437662E-2,-3.420744836E-2
2.195313496E1,-5.451811850E-2,9.269607067E-2,-3.665083647E-2
2.196228684E1,-4.825693369E-2,8.490777016E-2,-3.787253052E-2
2.197143871E1,-3.573456407E-2,6.994201243E-2,-3.649812192E-2
2.198059064E1,-2.336490713E-2,5.360184610E-2,-3.145863488E-2
2.198974252E1,-1.771457121E-2,3.741439432E-2,-2.596100792E-2
2.199889439E1,-2.382304333E-2,2.825168520E-2,-2.351761982E-2
2.200804626E1,-3.497100621E-2,2.764083818E-2,-1.817270555E-2
2.201719814E1,-3.985778242E-2,2.779355086E-2,-1.023169141E-2
2.202635007E1,-3.512371704E-2,3.680354729E-2,-4.123218823E-3
2.203550194E1,-2.840439789E-2,5.008947477E-2,-1.068982761E-3
2.204465382E1,-2.672456764E-2,6.642963737E-2,-3.054236295E-4
2.205380569E1,-2.932066843E-2,7.788302749E-2,1.374406274E-3
2.206295762E1,-3.115320951E-2,8.078455180E-2,3.206948051E-3
2.207210949E1,-2.504473738E-2,8.139539510E-2,6.261184346E-3
2.208126137E1,-1.710372418E-2,8.628217876E-2,7.635590620E-3
2.209041324E1,-1.343864016E-2,9.345962852E-2,6.413896102E-3
2.209956517E1,-7.788302377E-3,8.811471611E-2,7.024743594E-3
2.210871705E1,1.679830020E-3,6.826218218E-2,2.901524538E-3
2.211786892E1,1.481304597E-2,4.779879749E-2,-1.985253533E-3
2.212702080E1,2.901524492E-2,4.062134400E-2,-6.108472589E-4
2.213617267E1,3.649812192E-2,3.283303976E-2,5.650337320E-3
2.214532460E1,3.222219273E-2,1.832541823E-2,1.343864016E-2
2.215447647E1,2.061609551E-2,3.054236295E-4,1.893626526E-2
2.216362835E1,7.788302377E-3,-1.664558798E-2,1.939439960E-2
2.217278022E1,-3.817795310E-3,-2.580829710E-2,1.511846948E-2
2.218193215E1,-1.053711493E-2,-1.969982497E-2,1.206423342E-2
2.219108403E1,-1.313321572E-2,-1.130067464E-2,1.007897966E-2
2.220023590E1,-1.252236869E-2,-8.857285604E-3,9.468132630E-3
2.220938778E1,-9.468132630E-3,-7.177455351E-3,5.344913341E-3
2.221853970E1,-4.581354558E-3,-4.123218823E-3,2.290677279E-3
2.222769158E1,2.290677279E-3,-4.123218823E-3,-1.374406274E-3
2.223684345E1,7.788302377E-3,-7.788302377E-3,-3.206948051E-3
2.224599533E1,1.404948719E-2,-8.857285604E-3,1.832541777E-3
2.225514726E1,2.626643144E-2,-1.679830020E-3,9.162709117E-3
2.226429913E1,3.420744836E-2,1.985253533E-3,1.603474095E-2
2.227345101E1,3.054236248E-2,3.817795310E-3,1.771457121E-2
2.228260288E1,2.611372061E-2,1.053711493E-2,1.771457121E-2
2.229175481E1,2.046338283E-2,1.649287529E-2,1.710372418E-2
2.230090668E1,1.863084175E-2,1.404948719E-2,1.527118124E-2
2.231005856E1,1.817270555E-2,6.872031838E-3,1.588202827E-2
2.231921043E1,2.260134928E-2,-7.635590620E-3,1.832541823E-2
2.232836236E1,2.825168520E-2,-2.199050039E-2,2.015795931E-2
2.233751423E1,3.084778599E-2,-3.649812192E-2,2.214321308E-2
2.234666611E1,3.084778599E-2,-4.917320609E-2,2.031067200E-2
2.235581798E1,2.428117767E-2,-5.696150661E-2,1.649287529E-2
2.236496986E1,2.000524849E-2,-5.940489471E-2,1.282779220E-2
2.237412179E1,2.168507688E-2,-5.222744122E-2,1.221694518E-2
2.238327366E1,3.390202299E-2,-4.321744293E-2,1.359135192E-2
2.239242554E1,4.566083103E-2,-3.649812192E-2,1.725643501E-2
2.240157746E1,4.856235534E-2,-2.321219631E-2,1.542389300E-2
2.241072934E1,3.680354729E-2,-9.926267900E-3,1.053711493E-2
2.241988121E1,2.000524849E-2,5.650337320E-3,4.275931045E-3
2.242903309E1,1.313321572E-2,2.122694254E-2,1.160609815E-2
2.243818502E1,2.733541466E-2,1.542389300E-2,2.504473738E-2
2.244733689E1,4.657710344E-2,-1.771457121E-2,3.313846514E-2
2.245648877E1,6.001574174E-2,-6.047387794E-2,3.390202299E-2
2.246564064E1,6.337540597E-2,-9.727742523E-2,3.573456407E-2
2.247479257E1,5.375456065E-2,-1.224748790E-1,3.695625812E-2
2.248394444E1,4.275930673E-2,-1.340809762E-1,3.863608837E-2
2.249309632E1,3.161134571E-2,-1.267508119E-1,3.802524135E-2
2.250224819E1,2.092151903E-2,-1.033858955E-1,3.420744836E-2
2.251140007E1,1.634016447E-2,-7.024743408E-2,3.054236248E-2
2.252055199E1,1.542389300E-2,-3.588727489E-2,2.504473738E-2
2.252970387E1,1.023169141E-2,-1.053711493E-2,1.756185852E-2
2.253885574E1,-9.162708884E-4,-1.679830020E-3,1.023169141E-2
2.254800767E1,-1.756185852E-2,-1.068982761E-3,-3.054236295E-4
2.255715955E1,-2.977880463E-2,-7.177455351E-3,-1.130067464E-2
2.256631142E1,-3.069507517E-2,-2.046338283E-2,-2.046338283E-2
2.257546330E1,-2.260134928E-2,-3.726168349E-2,-2.535016090E-2
2.258461522E1,-1.252236869E-2,-5.299099907E-2,-2.641914412E-2
2.259376710E1,-7.024743594E-3,-5.238015205E-2,-2.702999115E-2
2.260291897E1,-9.009997360E-3,-3.848337755E-2,-2.702999115E-2
2.261207085E1,-1.282779220E-2,-1.740914769E-2,-2.336490713E-2
2.262122272E1,-1.374406368E-2,-3.512371797E-3,-1.496575773E-2
2.263037465E1,-8.857285604E-3,6.719320081E-3,-9.315420873E-3
2.263952652E1,-4.123218823E-3,1.634016447E-2,-6.261184346E-3
2.264867840E1,-4.123218823E-3,2.183778957E-2,-8.093725890E-3
2.265783033E1,-5.344913341E-3,2.061609551E-2,-8.093725890E-3
2.266698220E1,-1.084253844E-2,1.206423342E-2,-7.482878864E-3
2.267613408E1,-1.557660475E-2,4.275931045E-3,-1.007897966E-2
2.268528595E1,-1.801999472E-2,-7.177455351E-3,-8.857285604E-3
2.269443788E1,-1.908897609E-2,-2.397575416E-2,-1.252236869E-2
2.270358976E1,-1.771457121E-2,-4.031591862E-2,-1.557660475E-2
2.271274163E1,-1.084253844E-2,-4.581354558E-2,-1.847812906E-2
2.272189350E1,-1.679830020E-3,-4.153761268E-2,-2.092151903E-2
2.273104543E1,3.206948051E-3,-2.336490713E-2,-1.847812906E-2
2.274019731E1,1.068982761E-3,3.054236295E-3,-1.481304597E-2
2.274934918E1,-1.679830020E-3,3.390202299E-2,-8.704573847E-3
2.275850106E1,2.901524538E-3,5.986303091E-2,-2.596100792E-3
2.276765298E1,5.344913341E-3,6.765133142E-2,2.901524538E-3
2.277680486E1,5.497625098E-3,5.558710173E-2,6.566607859E-3
2.278595673E1,6.261184346E-3,3.390202299E-2,7.177455351E-3
2.279510866E1,1.252236869E-2,1.404948719E-2,8.399149403E-3
2.280426054E1,2.076880634E-2,-6.413896102E-3,9.773556143E-3
2.281341241E1,2.641914412E-2,-2.382304333E-2,7.941014133E-3
2.282256429E1,2.718270384E-2,-3.894151375E-2,4.886778072E-3
2.283171621E1,1.924168877E-2,-4.016320780E-2,1.832541777E-3
2.284086809E1,1.053711493E-2,-2.504473738E-2,6.108472589E-4
2.285001996E1,4.123218823E-3,-3.970507067E-3,1.679830020E-3
2.285917184E1,-1.527118147E-3,1.282779220E-2,1.068982761E-3
2.286832377E1,-1.023169141E-2,1.695101149E-2,-3.359660041E-3
2.287747564E1,-1.328592747E-2,1.939439960E-2,-2.748812549E-3
2.288662752E1,-9.009997360E-3,1.404948719E-2,-9.162708884E-4
2.289577939E1,-7.635590737E-4,-1.068982761E-3,-7.635590737E-4
2.290493132E1,5.497625098E-3,-1.908897609E-2,-3.817795310E-3
2.291408319E1,7.482878864E-3,-2.702999115E-2,-5.497625098E-3
2.292323507E1,5.497625098E-3,-2.519745007E-2,-2.596100792E-3
2.293238694E1,2.443389036E-3,-1.801999472E-2,-1.527118147E-4
2.294153887E1,-2.596100792E-3,-1.313321572E-2,-7.635590737E-4
2.295069074E1,-5.803049076E-3,-1.068982761E-3,-7.635590737E-4
2.295984262E1,-2.901524538E-3,1.343864016E-2,-1.374406274E-3
2.296899455E1,5.192201585E-3,1.939439960E-2,-2.596100792E-3
2.297814642E1,1.634016447E-2,1.695101149E-2,-4.275931045E-3
2.298729830E1,2.122694254E-2,9.773556143E-3,-4.275931045E-3
2.299645017E1,1.756185852E-2,5.497625098E-3,-1.832541777E-3
2.300560210E1,5.344913341E-3,-4.581354442E-4,1.068982761E-3
2.301475397E1,-5.803049076E-3,-5.955760833E-3,2.901524538E-3
2.302390585E1,-1.374406368E-2,-1.435491070E-2,2.748812549E-3
2.303305772E1,-1.481304597E-2,-2.336490713E-2,3.054236295E-4
2.304220965E1,-5.039489828E-3,-1.801999472E-2,-7.635590737E-4
2.305136152E1,3.512371797E-3,-5.955760833E-3,-1.985253533E-3
2.306051340E1,5.955760833E-3,6.719320081E-3,-1.985253533E-3
2.306966533E1,7.635590737E-4,2.183778957E-2,4.581354442E-4
2.307881720E1,-3.054236295E-3,2.962609194E-2,2.901524538E-3
2.308796908E1,-2.901524538E-3,2.779355086E-2,2.290677279E-3
2.309712095E1,1.374406274E-3,1.939439960E-2,-7.635590737E-4
2.310627288E1,5.803049076E-3,1.511846948E-2,-1.985253533E-3
2.311542476E1,4.581354558E-3,1.343864016E-2,-1.527118147E-4
2.312457663E1,-4.734066315E-3,1.282779220E-2,3.512371797E-3
2.313372856E1,-1.267508045E-2,6.108472589E-3,3.359660041E-3
2.314288043E1,-1.557660475E-2,-1.068982761E-3,1.527118147E-3
2.315203231E1,-1.007897966E-2,-3.512371797E-3,4.581354442E-4
2.316118418E1,-3.054236295E-4,1.527118147E-4,4.581354442E-4
2.317033611E1,7.635590620E-3,7.330167107E-3,1.679830020E-3
2.317948798E1,8.246437646E-3,1.710372418E-2,5.344913341E-3
2.318863986E1,1.985253533E-3,2.611372061E-2,1.206423342E-2
2.319779179E1,-5.497625098E-3,2.367033064E-2,1.695101149E-2
2.320694366E1,-1.023169141E-2,1.343864016E-2,1.740914769E-2
2.321609554E1,-1.145338640E-2,1.374406274E-3,1.267508045E-2
2.322524741E1,-8.704573847E-3,-1.007897966E-2,1.679830020E-3
2.323439934E1,-1.832541777E-3,-2.153236605E-2,-8.704573847E-3
2.324355121E1,1.053711493E-2,-2.947338112E-2,-1.282779220E-2
2.325270309E1,2.977880463E-2,-3.359659761E-2,-1.099525020E-2
2.326185496E1,4.382828996E-2,-3.115320951E-2,-7.177455351E-3
2.327100689E1,4.627167806E-2,-2.565558441E-2,1.985253533E-3
2.328015877E1,3.145863488E-2,-2.458660305E-2,9.162709117E-3
2.328931064E1,7.330167107E-3,-2.519745007E-2,1.023169141E-2
2.329846257E1,-1.298050396E-2,-2.886253223E-2,8.246437646E-3
2.330761444E1,-2.214321308E-2,-2.764083818E-2,3.970507067E-3
2.331676632E1,-1.725643501E-2,-3.237490356E-2,-9.162708884E-4
2.332591824E1,-8.551862091E-3,-3.787253052E-2,-7.482878864E-3
2.333507012E1,-1.068982761E-3,-4.031591862E-2,-1.175880991E-2
2.334422199E1,4.581354558E-3,-4.398100078E-2,-1.710372418E-2
2.335337387E1,8.857285604E-3,-4.810422286E-2,-2.015795931E-2
2.336252580E1,1.496575773E-2,-4.688252881E-2,-1.893626526E-2
2.337167767E1,2.046338283E-2,-4.398100078E-2,-1.527118124E-2
2.338082955E1,2.305948362E-2,-4.504998401E-2,-1.038440317E-2
2.338998142E1,2.367033064E-2,-4.627167806E-2,-5.497625098E-3
2.339913335E1,2.367033064E-2,-4.871506989E-2,-4.275931045E-3
2.340828522E1,2.489202656E-2,-4.627167806E-2,-3.665083554E-3
2.341743710E1,2.733541466E-2,-4.627167806E-2,-5.344913341E-3
2.342658903E1,3.527642787E-2,-4.443913698E-2,-5.344913341E-3
2.343574090E1,4.886778072E-2,-3.955236077E-2,-2.290677279E-3
2.344489278E1,5.986303091E-2,-3.420744836E-2,9.162708884E-4
2.345404470E1,6.841489673E-2,-2.932066843E-2,5.803049076E-3
2.346319658E1,7.269082218E-2,-2.809897438E-2,9.009997360E-3
2.347234845E1,7.330167294E-2,-2.076880634E-2,1.023169141E-2
2.348150033E1,7.070557028E-2,-1.053711493E-2,1.007897966E-2
2.349065226E1,6.810946763E-2,-9.162708884E-4,1.007897966E-2
2.349980413E1,6.688777357E-2,9.162708884E-4,9.468132630E-3
2.350895600E1,6.627693027E-2,5.039489828E-3,5.803049076E-3
2.351810793E1,6.306997687E-2,9.926267900E-3,9.162708884E-4
2.352725981E1,5.757235363E-2,7.482878864E-3,-5.192201585E-3
2.353641168E1,5.024218559E-2,1.985253533E-3,-7.788302377E-3
2.354556356E1,3.924693540E-2,1.527118147E-4,-1.023169141E-2
2.355471548E1,2.321219631E-2,7.941014133E-3,-1.160609815E-2
2.356386736E1,1.267508045E-2,1.756185852E-2,-1.282779220E-2
2.357301923E1,8.246437646E-3,1.939439960E-2,-1.175880991E-2
2.358217116E1,4.734066315E-3,6.719320081E-3,-1.175880991E-2
2.359132304E1,8.093725890E-3,-1.908897609E-2,-1.298050396E-2
2.360047491E1,1.267508045E-2,-5.115845799E-2,-1.343864016E-2
2.360962684E1,1.954711229E-2,-7.207997888E-2,-7.941014133E-3
2.361877871E1,2.504473738E-2,-7.879929990E-2,-1.068982761E-3
2.362793059E1,2.626643144E-2,-7.330167294E-2,5.650337320E-3
2.363708246E1,2.428117767E-2,-5.940489471E-2,1.038440317E-2
2.364623439E1,1.863084175E-2,-4.443913698E-2,1.038440317E-2
2.365538626E1,1.053711493E-2,-2.565558441E-2,8.551862091E-3
2.366453814E1,5.955760833E-3,-5.192201585E-3,4.123218823E-3
2.367369007E1,7.635590620E-3,2.061609551E-2,-7.635590737E-4
2.368284194E1,1.786728203E-2,4.779879749E-2,-1.221694518E-3
2.369199382E1,3.115320951E-2,6.459710002E-2,3.054236295E-3
2.370114569E1,4.291202128E-2,6.169557199E-2,1.175880991E-2
2.371029762E1,4.535540938E-2,5.573981255E-2,1.847812906E-2
2.371944949E1,4.169032723E-2,5.024218559E-2,2.336490713E-2
2.372860137E1,4.566083103E-2,2.794626169E-2,2.458660305E-2
2.373775330E1,5.360184610E-2,2.748812735E-2,2.336490713E-2
2.374690517E1,6.291726977E-2,2.626643144E-2,2.351761982E-2
2.375605705E1,7.773031294E-2,2.260134928E-2,2.107422985E-2
2.376520897E1,9.071081877E-2,2.260134928E-2,2.305948362E-2
2.377436085E1,9.376505762E-2,2.809897438E-2,3.038965166E-2
2.378351272E1,8.735115826E-2,4.321744293E-2,3.955236077E-2
2.379266465E1,7.299624383E-2,6.245913357E-2,4.672981426E-2
2.380181653E1,5.314370990E-2,7.024743408E-2,4.963133857E-2
2.381096840E1,3.833066672E-2,6.841489673E-2,4.764608666E-2
2.382012028E1,3.100049868E-2,6.841489673E-2,4.520269856E-2
2.382927220E1,3.603998944E-2,6.780404598E-2,3.909422457E-2
2.383842408E1,4.657710344E-2,6.658235192E-2,3.008422814E-2
2.384757595E1,5.344913527E-2,5.940489471E-2,1.725643501E-2
2.385672788E1,5.482354015E-2,4.840964451E-2,4.428642802E-3
2.386587976E1,5.299099907E-2,4.062134400E-2,-1.679830020E-3
2.387503163E1,4.627167806E-2,3.878879920E-2,-4.734066315E-3
2.388418356E1,3.833066672E-2,3.390202299E-2,-4.581354442E-4
2.389333543E1,3.283303976E-2,2.015795931E-2,4.886778072E-3
2.390248731E1,3.802524135E-2,-3.359660041E-3,8.093725890E-3
2.391163918E1,5.299099907E-2,-3.283303976E-2,9.926267900E-3