"Time (s)","Gyroscope x (rad/s)","Gyroscope y (rad/s)","Gyroscope z (rad/s)"
8.464733957E0,3.344388679E-2,2.580829710E-2,3.054236295E-3
8.473886196E0,3.374931216E-2,5.528167635E-2,7.330167107E-3
8.483038436E0,3.420744836E-2,6.551336497E-2,7.330167107E-3
8.492190675E0,2.886253223E-2,5.039490014E-2,4.275931045E-3
8.501342915E0,2.290677279E-2,3.115320951E-2,1.221694518E-3
8.510495154E0,2.290677279E-2,3.176405653E-2,-1.832541777E-3
8.519647394E0,2.275406010E-2,4.795150831E-2,-3.054236295E-3
8.528799634E0,2.382304333E-2,7.574506104E-2,-2.443389036E-3
8.537951821E0,2.305948362E-2,8.964183182E-2,-2.443389036E-3
8.547104061E0,1.191152167E-2,9.025268257E-2,-3.206948051E-3
8.556256300E0,3.054236295E-4,8.108997345E-2,-7.482878864E-3
8.565408540E0,-9.162708884E-4,7.391251624E-2,-9.926267900E-3
8.574560779E0,6.566607859E-3,7.452336699E-2,-9.926267900E-3
8.583713019E0,9.009997360E-3,8.170082420E-2,-1.175880991E-2
8.592865259E0,5.192201585E-3,8.658760041E-2,-1.175880991E-2
8.602017498E0,-5.344913341E-3,8.780929446E-2,-1.068982668E-2
8.611169738E0,-1.007897966E-2,7.437065244E-2,-4.581354558E-3
8.620321977E0,-6.719320081E-3,4.672981426E-2,-3.359660041E-3
8.629474217E0,-4.123218823E-3,2.260134928E-2,-8.704573847E-3
8.638626457E0,-5.344913341E-3,2.382304333E-2,-1.359135192E-2
8.647778696E0,-4.886778072E-3,4.062134400E-2,-1.114796288E-2
8.656930884E0,-1.985253533E-3,5.405998230E-2,-6.261184346E-3
8.666083123E0,4.581354442E-4,6.734590977E-2,4.581354442E-4
8.675235363E0,2.137965523E-3,7.574506104E-2,4.123218823E-3
8.684387602E0,1.527118147E-3,7.635590434E-2,2.290677279E-3
8.693539842E0,1.068982761E-3,6.551336497E-2,-1.985253533E-3
8.702692082E0,5.955760833E-3,6.612421572E-2,-4.428642802E-3
8.711844321E0,7.635590620E-3,8.780929446E-2,-3.206948051E-3
8.720996561E0,3.054236295E-3,1.148392856E-1,4.581354442E-4
8.730148800E0,-0.000000000E0,1.191152185E-1,3.970507067E-3
8.739301040E0,3.206948051E-3,1.009425074E-1,4.123218823E-3
8.748453279E0,6.413896102E-3,8.353336155E-2,-1.985253533E-3
8.757605519E0,7.788302377E-3,7.330167294E-2,-6.261184346E-3
8.766757759E0,1.084253844E-2,7.024743408E-2,-3.206948051E-3
8.775909946E0,1.389677543E-2,6.673506647E-2,-1.527118147E-4
8.785062186E0,9.162709117E-3,5.879404768E-2,-3.206948051E-3
8.794214425E0,1.221694518E-3,5.100574717E-2,-6.261184346E-3
8.803366665E0,-1.221694518E-3,4.489727318E-2,-9.315420873E-3
8.812518904E0,5.039489828E-3,4.260659590E-2,-1.175880991E-2
8.821671144E0,1.298050396E-2,4.611896724E-2,-1.053711493E-2
8.830823384E0,1.847812906E-2,5.283828825E-2,-6.719320081E-3
8.839975623E0,1.527118124E-2,5.589252338E-2,-4.428642802E-3
8.849127863E0,6.108472589E-3,5.467082933E-2,-2.596100792E-3
8.858280102E0,-0.000000000E0,4.856235534E-2,-2.596100792E-3
8.867432342E0,-3.054236295E-3,3.833066672E-2,-8.704573847E-3
8.876584582E0,2.596100792E-3,3.115320951E-2,-1.420219894E-2
8.885736821E0,1.496575773E-2,3.176405653E-2,-1.603474095E-2
8.894889061E0,2.351761982E-2,4.367557913E-2,-1.221694518E-2
8.904041248E0,2.199050039E-2,6.551336497E-2,-7.330167107E-3
8.913193488E0,1.145338640E-2,8.108997345E-2,-7.482878864E-3
8.922345727E0,4.581354558E-3,9.254335612E-2,-6.261184346E-3
8.931497967E0,1.527118147E-4,9.315420687E-2,-5.039489828E-3
8.940650207E0,-1.374406274E-3,7.085828483E-2,-6.872031838E-3
8.949802446E0,3.665083554E-3,5.039490014E-2,-1.298050396E-2
8.958954686E0,9.315420873E-3,4.550812021E-2,-1.725643501E-2
8.968106925E0,1.603474095E-2,5.451811850E-2,-1.893626526E-2
8.977259165E0,1.710372418E-2,6.245913357E-2,-1.832541823E-2
8.986411404E0,7.941014133E-3,6.536065787E-2,-1.908897609E-2
8.995563644E0,-3.206948051E-3,6.719319522E-2,-1.725643501E-2
9.004715884E0,-6.872031838E-3,5.879404768E-2,-1.664558798E-2
9.013868123E0,-5.497625098E-3,5.039490014E-2,-1.969982497E-2
9.023020363E0,-3.054236295E-3,5.146388337E-2,-2.351761982E-2
9.032172550E0,1.832541777E-3,5.925218388E-2,-2.473931387E-2
9.041324790E0,2.290677279E-3,7.620319724E-2,-2.473931387E-2
9.050477029E0,1.527118147E-3,8.948912472E-2,-2.168507688E-2
9.059629269E0,-1.068982761E-3,9.254335612E-2,-1.725643501E-2
9.068781509E0,-3.359660041E-3,8.765657991E-2,-1.725643501E-2
9.077933748E0,-3.970507067E-3,8.231166750E-2,-1.969982497E-2
9.087085988E0,-6.413896102E-3,8.108997345E-2,-2.122694254E-2
9.096238227E0,-7.788302377E-3,8.948912472E-2,-1.924168877E-2
9.105390467E0,-6.719320081E-3,1.093416587E-1,-1.557660475E-2
9.114542707E0,-1.985253533E-3,1.328592747E-1,-1.374406368E-2
9.123694946E0,4.123218823E-3,1.426328421E-1,-1.420219894E-2
9.132847186E0,5.955760833E-3,1.430909634E-1,-1.847812906E-2
9.141999425E0,4.581354442E-4,1.412584335E-1,-2.046338283E-2
9.151151665E0,-7.635590737E-4,1.316375881E-1,-2.183778957E-2
9.160303904E0,4.275931045E-3,1.287360638E-1,-1.908897609E-2
9.169456144E0,1.771457121E-2,1.408002973E-1,-1.481304597E-2
9.178608384E0,2.855710872E-2,1.559187621E-1,-1.160609815E-2
9.187760571E0,2.748812735E-2,1.498102844E-1,-1.343864016E-2
9.196912811E0,2.580829710E-2,1.287360638E-1,-1.954711229E-2
9.206065050E0,2.916795574E-2,1.111742035E-1,-2.641914412E-2
9.215217290E0,3.649812192E-2,1.094943732E-1,-2.947338112E-2
9.224369529E0,4.016320780E-2,1.136175916E-1,-2.947338112E-2
9.233521769E0,3.939964995E-2,1.244601309E-1,-2.580829710E-2
9.242674009E0,4.062134400E-2,1.311794519E-1,-2.275406010E-2
9.251826248E0,4.672981426E-2,1.353026628E-1,-2.321219631E-2
9.260978488E0,5.680879578E-2,1.201841980E-1,-2.626643144E-2
9.270130727E0,6.062658876E-2,1.070509851E-1,-3.054236248E-2
9.279282967E0,6.352811307E-2,1.214058921E-1,-3.603998944E-2
9.288435207E0,6.704048812E-2,1.430909634E-1,-3.405473381E-2
9.297587446E0,6.016845629E-2,1.485885978E-1,-2.993151546E-2
9.306739686E0,4.672981426E-2,1.316375881E-1,-2.565558441E-2
9.315891925E0,4.016320780E-2,1.111742035E-1,-2.641914412E-2
9.325044165E0,5.024218559E-2,9.376505762E-2,-2.748812735E-2
9.334196404E0,6.688777357E-2,9.025268257E-2,-3.038965166E-2
9.343348644E0,8.276980370E-2,1.015533581E-1,-3.023693897E-2
9.352500832E0,9.498675168E-2,1.209477559E-1,-2.718270384E-2
9.361653071E0,1.052184403E-1,1.401894391E-1,-2.168507688E-2
9.370805311E0,1.186570823E-1,1.548497826E-1,-1.710372418E-2
9.379957550E0,1.351499557E-1,1.669140160E-1,-1.588202827E-2
9.389109790E0,1.517955512E-1,1.753131598E-1,-1.817270555E-2
9.398262029E0,1.664558798E-1,1.885990947E-1,-1.985253580E-2
9.407414269E0,1.817270666E-1,2.108950168E-1,-1.801999472E-2
9.416566509E0,1.988307834E-1,2.241809368E-1,-1.114796288E-2
9.425718748E0,2.154763639E-1,2.194468826E-1,-4.275931045E-3
9.434870988E0,2.347180545E-1,2.002051920E-1,2.596100792E-3
9.444023227E0,2.638860047E-1,1.750077456E-1,8.857285604E-3
9.453175467E0,2.997733057E-1,1.479777545E-1,1.710372418E-2
9.462327707E0,3.425326049E-1,1.215586066E-1,2.779355086E-2
9.471479946E0,3.851391971E-1,1.017060652E-1,3.665083647E-2
9.480632186E0,4.253024161E-1,8.735115826E-2,4.611896724E-2
9.489784425E0,4.593571424E-1,7.299624383E-2,5.054761097E-2
9.498936665E0,4.921901822E-1,5.925218388E-2,5.573981255E-2
9.508088904E0,5.260922313E-1,4.963133857E-2,6.215370819E-2
9.517241144E0,5.642701387E-1,4.734066129E-2,7.269082218E-2
9.526393384E0,5.993938446E-1,4.871506989E-2,8.215895295E-2
9.535545623E0,6.308525205E-1,4.688252881E-2,9.269607067E-2
9.544697863E0,6.572716236E-1,4.398100078E-2,1.021642014E-1
9.553850102E0,6.868977547E-1,3.374931216E-2,1.108687744E-1
9.563002290E0,7.171346545E-1,2.305948362E-2,1.189625040E-1
9.572154529E0,7.511894107E-1,1.053711493E-2,1.290414780E-1
9.581306769E0,7.852441669E-1,-6.261184346E-3,1.385096163E-1
9.590459009E0,8.167027831E-1,-2.733541466E-2,1.484358907E-1
9.599611248E0,8.434273601E-1,-4.886778072E-2,1.609582454E-1
9.608763488E0,8.664868474E-1,-8.246438205E-2,1.733279079E-1
9.617915727E0,8.848122358E-1,-1.336228400E-1,1.863084137E-1
9.627067967E0,8.976400495E-1,-1.998997629E-1,1.986780763E-1
9.636220207E0,9.100096822E-1,-2.829749882E-1,2.073826492E-1
9.645372446E0,9.387195110E-1,-3.991886973E-1,2.185306102E-1
9.654524686E0,9.927794933E-1,-5.340332389E-1,2.429644912E-1
9.663676925E0,1.051573515E0,-6.452074051E-1,2.794626355E-1
9.672829165E0,1.090667725E0,-7.033905983E-1,3.298575282E-1
9.681981404E0,1.101815701E0,-7.291989326E-1,3.807105422E-1
9.691133644E0,1.097692490E0,-7.681404352E-1,4.300364852E-1
9.700285884E0,1.100899458E0,-8.794673681E-1,4.735593498E-1
9.709438123E0,1.132510781E0,-1.059361815E0,5.160132051E-1
9.718590363E0,1.196344376E0,-1.254374862E0,5.599942207E-1
9.727742602E0,1.271478534E0,-1.404032469E0,6.088619828E-1
9.736894842E0,1.335464835E0,-1.474890709E0,6.533011198E-1
9.746047082E0,1.377002478E0,-1.456107140E0,6.786513329E-1
9.755199321E0,1.400825500E0,-1.366923451E0,6.812474132E-1
9.764351561E0,1.412737012E0,-1.228261113E0,6.617003083E-1
9.773503800E0,1.417623758E0,-1.064554095E0,6.230642200E-1
9.782656040E0,1.404643297E0,-9.145910740E-1,5.874823332E-1
9.791808279E0,1.392579079E0,-7.960866690E-1,5.610632300E-1
9.800960519E0,1.388913989E0,-7.142331600E-1,5.486935377E-1
9.810112759E0,1.394716978E0,-6.762079000E-1,5.474718809E-1
9.819264946E0,1.417012930E0,-7.050704360E-1,5.622848868E-1
9.828417186E0,1.454885483E0,-8.037222624E-1,5.919110179E-1
9.837569425E0,1.505738497E0,-9.312366247E-1,6.296308041E-1
9.846721665E0,1.562547326E0,-1.042410851E0,6.765133142E-1
9.855873904E0,1.616760015E0,-1.143811464E0,7.447755337E-1
9.865026144E0,1.657381296E0,-1.231468081E0,8.312104344E-1
9.874178384E0,1.687618256E0,-1.262010455E0,8.828269839E-1
9.883330623E0,1.701973200E0,-1.219251156E0,8.597674966E-1
9.892482863E0,1.708539724E0,-1.149003744E0,7.760814428E-1
9.901635102E0,1.724574566E0,-1.100594044E0,6.734591126E-1
9.910787342E0,1.755727768E0,-1.104564548E0,5.882459283E-1
9.919939582E0,1.799097896E0,-1.158929944E0,5.311316848E-1
9.929091821E0,1.836665034E0,-1.220320106E0,5.112791657E-1
9.938244061E0,1.854684949E0,-1.239561796E0,5.170822144E-1
9.947396300E0,1.841704488E0,-1.163663983E0,5.265503526E-1
9.956548540E0,1.801235914E0,-9.877400398E-1,5.231906772E-1
9.965700779E0,1.737860441E0,-7.728744745E-1,4.969242513E-1
9.974853019E0,1.682120681E0,-5.772506595E-1,4.547757804E-1
9.984005259E0,1.641651988E0,-4.497362971E-1,4.184303582E-1
9.993157498E0,1.604084849E0,-4.390464723E-1,3.924693763E-1
1.000230974E1,1.563005447E0,-5.175403357E-1,3.660502136E-1
1.001146198E1,1.524216652E0,-5.894675851E-1,3.400892019E-1
1.002061422E1,1.483900666E0,-6.106945276E-1,3.177932799E-1
1.002976646E1,1.426328301E0,-5.789304972E-1,2.961082160E-1
1.003891870E1,1.353790283E0,-5.152496696E-1,2.716743052E-1
1.004807094E1,1.279877663E0,-4.456130862E-1,2.431172132E-1
1.005722318E1,1.214211583E0,-3.868190348E-1,2.125748396E-1
1.006637542E1,1.156639338E0,-3.452814221E-1,1.846285909E-1
1.007552765E1,1.097234368E0,-3.177932799E-1,1.733279079E-1
1.008467989E1,1.028819442E0,-3.106158376E-1,1.728697717E-1
1.009383213E1,9.517000318E-1,-3.095468581E-1,1.795890927E-1
1.010298437E1,8.709154725E-1,-3.132119179E-1,1.765348613E-1
1.011213661E1,7.869240046E-1,-3.484883606E-1,1.601946950E-1
1.012128885E1,7.030851841E-1,-4.022429287E-1,1.333174109E-1
1.013044109E1,6.168029904E-1,-4.567610323E-1,9.849911928E-2
1.013959333E1,5.242596865E-1,-4.992149174E-1,6.306997687E-2
1.014874552E1,4.259132445E-1,-5.254813433E-1,3.436015919E-2
1.015789776E1,3.312319219E-1,-5.534276366E-1,1.114796288E-2
1.016705000E1,2.354816198E-1,-5.783196688E-1,-4.734066315E-3
1.017620224E1,1.369825006E-1,-5.948125124E-1,-1.771457121E-2
1.018535448E1,3.848337755E-2,-5.961869359E-1,-2.702999115E-2
1.019450672E1,-5.741964281E-2,-5.613686442E-1,-2.535016090E-2
1.020365896E1,-1.427855492E-1,-4.705050886E-1,-1.481304597E-2
1.021281120E1,-2.156290859E-1,-3.060344756E-1,3.359660041E-3
1.022196344E1,-2.828222811E-1,-1.951656938E-1,2.428117767E-2
1.023111568E1,-3.649812341E-1,-1.783674061E-1,4.871506989E-2
1.024026792E1,-4.672981501E-1,-1.826433241E-1,7.727217674E-2
1.024942015E1,-5.703786016E-1,-1.838650256E-1,1.076618284E-1
1.025857239E1,-6.708629727E-1,-1.948602796E-1,1.392731816E-1
1.026772463E1,-7.705838084E-1,-2.328855246E-1,1.569877416E-1
1.027687687E1,-8.735115528E-1,-2.872509360E-1,1.551551968E-1
1.028602911E1,-9.791881442E-1,-3.194731176E-1,1.317902952E-1
1.029518135E1,-1.095707297E0,-3.017585576E-1,9.666658193E-2
1.030433359E1,-1.231773496E0,-2.376195788E-1,5.482354015E-2
1.031348583E1,-1.386317849E0,-1.614163816E-1,1.527118124E-2
1.032263807E1,-1.536433578E0,-1.046075895E-1,-2.687728032E-2
1.033179031E1,-1.611720443E0,-7.055285573E-2,-7.085828483E-2
1.034092979E1,-1.547123432E0,-3.573456407E-2,-1.113269106E-1
1.035009479E1,-1.344780207E0,3.084778599E-2,-1.508792788E-1
1.035924703E1,-1.005759954E0,1.084253863E-1,-1.777565479E-1
1.036838651E1,-5.606050491E-1,3.726168349E-2,-2.002051920E-1
1.037755151E1,-9.727742523E-2,-3.029802442E-1,-1.918060333E-1
1.038670375E1,2.438807636E-1,-7.023216486E-1,-1.269035190E-1
1.039584323E1,3.342861533E-1,-6.710157394E-1,-1.435491070E-2
1.040500823E1,1.404948682E-1,-1.244601309E-1,8.460234851E-2
1.041416047E1,-3.347443044E-1,3.263451457E-1,1.408002973E-1
1.042329995E1,-9.370396733E-1,2.761029601E-1,1.487413049E-1
1.043246495E1,-1.411973476E0,5.205945969E-1,1.598892659E-1
1.044161719E1,-1.716175318E0,1.141215444E0,2.525853515E-1
1.045075666E1,-1.964637518E0,1.717855215E0,3.590254784E-1
1.045992167E1,-2.058402538E0,2.185458899E0,4.043808877E-1
1.046907390E1,-1.974105597E0,2.354357958E0,3.877353072E-1
1.047821338E1,-1.874232054E0,2.134758472E0,2.854183912E-1
1.048737838E1,-1.829182148E0,1.648982167E0,9.071081877E-2
1.049653062E1,-1.886296391E0,1.054322362E0,-1.597365588E-1
1.050567010E1,-1.958223581E0,5.754181147E-1,-3.894151151E-1
1.051483510E1,-2.020835400E0,1.215586066E-1,-5.398362875E-1
1.052398734E1,-2.028623819E0,-3.689517379E-1,-5.706840754E-1
1.053312682E1,-1.941425323E0,-6.702521443E-1,-4.378247857E-1
1.054229182E1,-1.858808160E0,-7.782194018E-1,-1.940967143E-1
1.055144406E1,-1.840635538E0,-7.327113152E-1,5.696150661E-2
1.056058354E1,-1.826738715E0,-5.525113344E-1,2.029540092E-1
1.056974854E1,-1.817881465E0,-3.096995652E-1,2.009687424E-1
1.057890078E1,-1.839566469E0,-2.993151546E-2,9.300149232E-2
1.058804026E1,-1.856975675E0,2.677038014E-1,-5.741964281E-2
1.059720526E1,-1.862167835E0,5.667135715E-1,-2.031067163E-1
1.060635750E1,-1.853768706E0,7.988355160E-1,-3.203893900E-1
1.061549698E1,-1.809482336E0,9.118422270E-1,-4.057552814E-1
1.062466198E1,-1.730377555E0,9.842276573E-1,-4.450022280E-1
1.063381422E1,-1.614469290E0,1.034469843E0,-4.318690002E-1
1.064296646E1,-1.498713732E0,1.094485521E0,-3.768927455E-1
1.065211870E1,-1.402963400E0,1.187792540E0,-3.113794029E-1
1.066127094E1,-1.323553324E0,1.301868200E0,-2.663294077E-1
1.067042318E1,-1.277587056E0,1.466644287E0,-2.484621257E-1
1.067957542E1,-1.288735032E0,1.681662560E0,-2.541124523E-1
1.068872765E1,-1.316070437E0,1.870719671E0,-2.826695740E-1
1.069787989E1,-1.332868695E0,2.027249336E0,-3.066453338E-1
1.070703213E1,-1.320804477E0,2.127275467E0,-3.115321100E-1
1.071618437E1,-1.298050404E0,2.203936815E0,-2.967190444E-1
1.072533661E1,-1.263232112E0,2.232341290E0,-2.788517773E-1
1.073448885E1,-1.234369636E0,2.167896986E0,-2.748812735E-1
1.074364109E1,-1.206575990E0,2.026333094E0,-2.849602401E-1
1.075279333E1,-1.157708287E0,1.877591729E0,-2.961082160E-1
1.076194557E1,-1.105480790E0,1.688992620E0,-2.913741469E-1
1.077109781E1,-1.063637733E0,1.471072912E0,-2.677038014E-1
1.078025005E1,-1.040272832E0,1.258498073E0,-2.509055138E-1
1.078940229E1,-1.011563063E0,1.081352353E0,-2.542651594E-1
1.079855453E1,-9.604045749E-1,9.391776323E-1,-2.628170252E-1
1.080770677E1,-9.054283500E-1,7.994463444E-1,-2.635805905E-1
1.081685901E1,-8.725953102E-1,6.969767213E-1,-2.596100867E-1
1.082601125E1,-8.666395545E-1,6.523848772E-1,-2.547233105E-1
1.083516349E1,-8.904625773E-1,6.319214702E-1,-2.444916219E-1
1.084431573E1,-9.161182046E-1,6.548282504E-1,-2.232646793E-1
1.085346797E1,-9.103151560E-1,6.856760383E-1,-1.902789176E-1
1.086262021E1,-8.929060102E-1,6.569662094E-1,-1.681357026E-1
1.087177245E1,-8.577822447E-1,5.847335458E-1,-1.653869003E-1
1.088092469E1,-8.075400591E-1,4.822639227E-1,-1.820324808E-1
1.089007692E1,-7.427902818E-1,3.556658030E-1,-2.157817930E-1
1.089922917E1,-6.797202826E-1,2.851129472E-1,-2.487675399E-1
1.090838140E1,-6.209262609E-1,3.304683566E-1,-2.570139766E-1
1.091753364E1,-5.676298141E-1,4.341596961E-1,-2.365505993E-1
1.092668588E1,-5.467082858E-1,4.909684956E-1,-2.028012872E-1
1.093583812E1,-5.460974574E-1,4.851654470E-1,-1.783674061E-1
1.094499036E1,-5.444176197E-1,4.213318825E-1,-1.698155403E-1
1.095414260E1,-5.491516590E-1,3.362714052E-1,-1.801999360E-1
1.096329484E1,-5.515950918E-1,2.794626355E-1,-2.069245130E-1
1.097244708E1,-5.514423847E-1,2.776300907E-1,-2.386885732E-1
1.098159932E1,-5.473191738E-1,3.184041381E-1,-2.661767006E-1
1.099075156E1,-5.445703268E-1,3.617742956E-1,-2.942756712E-1
1.099990380E1,-5.470137000E-1,3.808632791E-1,-3.341334462E-1
1.100905604E1,-5.357130170E-1,3.727695346E-1,-3.846810758E-1
1.101820828E1,-5.056288242E-1,3.377985358E-1,-4.156815708E-1
1.102734776E1,-4.610369802E-1,2.958027720E-1,-4.030064642E-1
1.103651276E1,-4.115583301E-1,2.658712566E-1,-3.574983478E-1
1.104566500E1,-3.730749488E-1,2.643441558E-1,-2.954973578E-1
1.105481724E1,-3.248180151E-1,2.953446507E-1,-2.353289127E-1
1.106396948E1,-2.476985604E-1,3.373403847E-1,-1.890572309E-1
1.107312172E1,-1.482831687E-1,3.695625961E-1,-1.491994411E-1
1.108227396E1,-2.580829710E-2,3.753656447E-1,-1.142284349E-1
1.109142620E1,1.188097894E-1,3.793361485E-1,-8.322793990E-2
1.110057849E1,2.701472044E-1,3.959817290E-1,-4.260659590E-2
1.110973068E1,4.191939235E-1,3.765873313E-1,1.404948719E-2
1.111888292E1,5.691569448E-1,2.565558553E-1,8.368607610E-2
1.112803521E1,7.298097610E-1,3.405473381E-2,1.624853760E-1
1.113718745E1,9.210049510E-1,-2.153236568E-1,2.586938143E-1
1.114633969E1,1.165343881E0,-4.482091665E-1,3.808632791E-1
1.115549193E1,1.448013425E0,-6.340594292E-1,5.251759291E-1
1.116463140E1,1.728545070E0,-7.716528177E-1,6.653653979E-1
1.117379640E1,2.020224571E0,-9.255862832E-1,7.829535007E-1
1.118294864E1,2.389787197E0,-1.154806733E0,8.871029615E-1
1.119208812E1,2.795695305E0,-1.442973971E0,9.848384857E-1
1.120125312E1,3.164188862E0,-1.535975456E0,1.090056896E0
1.121040536E1,3.475568295E0,-1.245823026E0,1.183669329E0
1.121955760E1,3.717158318E0,-8.748859763E-1,1.169772506E0
1.122870984E1,3.811076164E0,-7.102626562E-1,1.037218690E0
1.123786208E1,3.654699087E0,-6.061131954E-1,8.950439692E-1
1.124700156E1,3.346221209E0,-5.506787896E-1,8.603783846E-1
1.125616656E1,3.065689564E0,-6.719319820E-1,9.671239257E-1
1.126531880E1,2.899233818E0,-9.695672989E-1,1.180615067E0
1.127447104E1,2.801651001E0,-1.273158431E0,1.420678020E0
1.128362328E1,2.712620020E0,-1.336381078E0,1.611262321E0
1.129277552E1,2.621298313E0,-1.219861984E0,1.707012653E0
1.130191500E1,2.557312012E0,-1.242310643E0,1.704722047E0
1.131108000E1,2.569987059E0,-1.454732776E0,1.636001706E0
1.132023224E1,2.679634094E0,-1.668834686E0,1.514137626E0
1.132937172E1,2.807301283E0,-1.788255334E0,1.305685997E0
1.133853672E1,2.850213289E0,-1.912257314E0,1.041189194E0
1.134768896E1,2.771872044E0,-1.999455810E0,7.963921428E-1
1.135682844E1,2.661614180E0,-1.950129867E0,6.490252018E-1
1.136599344E1,2.598086119E0,-1.775580287E0,6.184828281E-1
1.137514568E1,2.572888613E0,-1.536738992E0,6.687250137E-1
1.138429792E1,2.542346239E0,-1.254527569E0,7.508839965E-1
1.139345015E1,2.473625898E0,-9.747595191E-1,8.258655071E-1
1.140260239E1,2.367338657E0,-7.692093849E-1,8.799254894E-1
1.141175463E1,2.248681545E0,-6.626165509E-1,8.930587173E-1
1.142090687E1,2.133231401E0,-6.238277555E-1,8.609892130E-1
1.143005911E1,2.034274101E0,-6.271874309E-1,7.882983685E-1
1.143919859E1,1.936843991E0,-6.464291215E-1,6.862868667E-1
1.144836359E1,1.830861926E0,-6.549809575E-1,5.670189857E-1
1.145751583E1,1.712968469E0,-6.574243903E-1,4.520269632E-1
1.146665536E1,1.570641041E0,-6.743753552E-1,3.411581814E-1
1.147582031E1,1.404185176E0,-6.972821355E-1,2.313583940E-1
1.148497260E1,1.218793035E0,-7.275190949E-1,1.273616552E-1
1.149412484E1,1.016144395E0,-7.643226385E-1,3.802524135E-2
1.150327708E1,8.002098799E-1,-7.835643291E-1,-3.069507517E-2
1.151242932E1,5.770979524E-1,-7.661551833E-1,-8.780929446E-2
1.152158156E1,3.591781855E-1,-7.027797699E-1,-1.406475753E-1
1.153073380E1,1.606528312E-1,-6.183301210E-1,-1.872246861E-1
1.153988604E1,-8.857285604E-3,-5.234960914E-1,-2.209739983E-1
1.154903828E1,-1.516428292E-1,-3.936910629E-1,-2.367033064E-1
1.155819052E1,-2.906105816E-1,-2.287622988E-1,-2.432699203E-1
1.156734276E1,-4.450022280E-1,-1.204896197E-1,-2.327328026E-1
1.157649500E1,-6.067240238E-1,-1.181989461E-1,-1.838650256E-1
1.158564724E1,-7.618792653E-1,-2.525853515E-1,-1.018587798E-1
1.159479948E1,-8.968765140E-1,-4.408790171E-1,2.290677279E-3
1.160393896E1,-1.032942772E0,-5.709894896E-1,8.628217876E-2
1.161310396E1,-1.195580840E0,-6.591041684E-1,1.207950488E-1
1.162225620E1,-1.388303161E0,-6.673506498E-1,9.987352788E-2
1.163139568E1,-1.568044901E0,-5.890094638E-1,1.359135192E-2
1.164056068E1,-1.608055353E0,-3.997995257E-1,-1.181989461E-1
1.164971292E1,-1.370588541E0,1.382041872E-1,-2.469350100E-1
1.165885239E1,-8.611419201E-1,9.811733961E-1,-3.287885487E-1
1.166801739E1,-4.744756222E-1,1.185349107E0,-3.770454824E-1
1.167716963E1,-4.172086716E-1,2.958027720E-1,-4.124746025E-1
1.168630911E1,-6.536065936E-1,-7.114843726E-1,-4.104893506E-1
1.169547411E1,-1.173284888E0,-8.484668136E-1,-3.938437700E-1
1.170462635E1,-1.504211426E0,4.581354442E-4,-2.788517773E-1
1.171376588E1,-1.441446781E0,1.368755937E0,9.666658193E-2
1.172293083E1,-1.449235082E0,2.375126839E0,5.746545792E-1
1.173208307E1,-1.752520800E0,2.382457018E0,7.172874212E-1
1.174122260E1,-2.048629045E0,1.666544080E0,5.099047422E-1
1.175038755E1,-2.086959600E0,1.219709277E0,3.121429384E-1
1.175953984E1,-1.957307339E0,1.137855768E0,2.770192325E-1
1.176867932E1,-1.797265291E0,9.697200060E-1,2.250972092E-1
1.177784432E1,-1.819866657E0,5.393781066E-1,5.192201585E-2
1.178699656E1,-1.986628056E0,1.220167428E-1,-1.353026628E-1
1.179613604E1,-2.073521137E0,-1.971509457E-1,-2.156290859E-1
1.180530104E1,-1.973952889E0,-3.952181637E-1,-1.798945218E-1
1.181445328E1,-1.756491303E0,-4.758500159E-1,-9.834641218E-2
1.182360552E1,-1.548039675E0,-5.079194903E-1,-8.399149776E-2
1.183275776E1,-1.400367379E0,-4.990622103E-1,-1.806580722E-1
1.184191000E1,-1.313627005E0,-3.451287150E-1,-3.121429384E-1
1.185104948E1,-1.285528064E0,-7.070557028E-2,-3.952181637E-1
1.186021448E1,-1.313474298E0,2.406738251E-1,-4.237752855E-1
1.186936672E1,-1.386012435E0,5.641174316E-1,-4.323271513E-1
1.187850620E1,-1.458092451E0,9.153546095E-1,-4.381301999E-1
1.188767120E1,-1.496423125E0,1.281710267E0,-4.428642690E-1
1.189682344E1,-1.493521571E0,1.588355541E0,-4.466820657E-1
1.190597568E1,-1.454121947E0,1.796959877E0,-4.440859556E-1
1.191512792E1,-1.390135646E0,1.888128877E0,-4.370612204E-1
1.192428015E1,-1.334854007E0,1.886449099E0,-4.207210541E-1
1.193343239E1,-1.299730301E0,1.822615504E0,-3.953709006E-1
1.194258469E1,-1.280794024E0,1.749313831E0,-3.648285270E-1
1.195173692E1,-1.283390045E0,1.688534498E0,-3.379512429E-1
1.196088917E1,-1.300188422E0,1.613858461E0,-3.261924386E-1
1.197004140E1,-1.320499063E0,1.543305635E0,-3.214583695E-1
1.197919364E1,-1.351499557E0,1.504669547E0,-3.234436214E-1
1.198834588E1,-1.377002478E0,1.471531034E0,-3.390202224E-1
1.199749812E1,-1.373642802E0,1.444959164E0,-3.565820754E-1
1.200665036E1,-1.348750710E0,1.421441555E0,-3.710896969E-1
1.201580260E1,-1.322789788E0,1.414111376E0,-3.813214004E-1
1.202495484E1,-1.307824016E0,1.411820769E0,-3.939964771E-1
1.203410708E1,-1.304464340E0,1.374253631E0,-4.013266563E-1
1.204325932E1,-1.306754947E0,1.285833478E0,-3.932329118E-1
1.205241156E1,-1.315306902E0,1.120141149E0,-3.694098890E-1
1.206156380E1,-1.321720719E0,9.298622608E-1,-3.321481943E-1
1.207071604E1,-1.313168883E0,7.643226385E-1,-2.725905776E-1
1.207986828E1,-1.273616552E0,6.429167390E-1,-1.940967143E-1
1.208902052E1,-1.216044188E0,5.645755529E-1,-1.038440317E-1
1.209817276E1,-1.190083146E0,5.286883116E-1,-1.801999472E-2
1.210732500E1,-1.223068953E0,5.282301903E-1,3.542914242E-2
1.211647724E1,-1.290872931E0,5.395308137E-1,3.191677108E-2
1.212562953E1,-1.360967636E0,5.561764240E-1,-2.061609551E-2
1.213478177E1,-1.392579079E0,5.334223509E-1,-1.001789495E-1
1.214393401E1,-1.357760787E0,4.686725736E-1,-1.841704547E-1
1.215307349E1,-1.253153205E0,3.854446113E-1,-2.632751763E-1
1.216223849E1,-1.104869962E0,3.197785318E-1,-3.362714052E-1
1.217139073E1,-9.524635673E-1,2.635805905E-1,-4.083513916E-1
1.218054297E1,-8.108997345E-1,2.322746664E-1,-4.677563012E-1
1.218969521E1,-6.786513329E-1,2.673983872E-1,-4.869979918E-1
1.219884745E1,-5.610632300E-1,3.478775024E-1,-4.514161348E-1
1.220799969E1,-4.915793240E-1,4.602734149E-1,-3.692571819E-1
1.221715193E1,-5.045598149E-1,6.336013079E-1,-2.802261710E-1
1.222630416E1,-5.942016840E-1,7.843278646E-1,-2.241809368E-1
1.223545640E1,-7.056813240E-1,9.078717232E-1,-2.153236568E-1
1.224460864E1,-7.499676943E-1,1.042563558E0,-2.425063550E-1
1.225376088E1,-6.985038519E-1,1.111131191E0,-2.916795611E-1
1.226290042E1,-5.818319917E-1,1.041952729E0,-3.391729295E-1
1.227206536E1,-4.581354558E-1,8.715263009E-1,-3.747547865E-1
1.228121765E1,-3.788780272E-1,6.942279339E-1,-4.089622498E-1
1.229036989E1,-3.457395434E-1,6.019899845E-1,-4.446968138E-1
1.229952213E1,-3.555130959E-1,5.341859460E-1,-4.831801951E-1
1.230867437E1,-4.030064642E-1,4.225535989E-1,-5.254813433E-1
1.231782661E1,-4.628695250E-1,3.006895781E-1,-5.538857579E-1
1.232697885E1,-5.202891231E-1,2.420482337E-1,-5.464028716E-1
1.233613109E1,-5.694623590E-1,2.589992285E-1,-4.898995161E-1
1.234528333E1,-6.244385839E-1,3.038965166E-1,-4.036173224E-1
1.235443557E1,-6.965186000E-1,3.402419090E-1,-3.289412558E-1
1.236358781E1,-7.444701195E-1,3.758237660E-1,-2.921377122E-1
1.237274005E1,-7.362236381E-1,4.138490260E-1,-2.799207568E-1
1.238189229E1,-6.762079000E-1,4.622586668E-1,-2.794626355E-1
1.239104453E1,-5.900784731E-1,5.503733754E-1,-2.806843221E-1
1.240019677E1,-4.931064546E-1,6.607840061E-1,-2.886253297E-1
1.240934901E1,-3.778090179E-1,7.434011102E-1,-3.032856584E-1
1.241850125E1,-2.281514555E-1,7.562289238E-1,-3.106158376E-1
1.242765354E1,-3.100049868E-2,6.801784039E-1,-2.866400778E-1
1.243680578E1,2.099787444E-1,5.210527182E-1,-2.218902707E-1
1.244595802E1,4.715740979E-1,3.031329513E-1,-1.149920002E-1
1.245511026E1,7.414158583E-1,5.222744122E-2,1.908897609E-2
1.246426250E1,1.013242841E0,-2.179197669E-1,1.627907902E-1
1.247341474E1,1.273158431E0,-4.821111858E-1,2.899997234E-1
1.248255422E1,1.525591016E0,-6.934643388E-1,3.768927455E-1
1.249171922E1,1.804748178E0,-8.321266770E-1,4.155288339E-1
1.250087146E1,2.128344536E0,-9.104678631E-1,4.222481549E-1
1.251001094E1,2.490118742E0,-9.057337642E-1,4.185830951E-1
1.251917594E1,2.895110607E0,-8.477032781E-1,4.312581718E-1
1.252832818E1,3.290786982E0,-8.011261821E-1,4.889832437E-1
1.253746771E1,3.555589199E0,-7.605048418E-1,6.148177385E-1
1.254663271E1,3.624614954E0,-7.646280527E-1,7.660024762E-1
1.255578495E1,3.537263870E0,-9.686510563E-1,8.669449687E-1
1.256492443E1,3.361645222E0,-1.346460104E0,9.320002198E-1
1.257408942E1,3.119596958E0,-1.703194857E0,1.030041218E0
1.258324167E1,2.883504391E0,-1.977312565E0,1.175728321E0
1.259238114E1,2.742398739E0,-2.119181871E0,1.317139387E0
1.260154614E1,2.729265451E0,-2.129108191E0,1.393953443E0
1.261069838E1,2.803025246E0,-2.117501974E0,1.396244168E0
1.261983786E1,2.900150061E0,-2.059166193E0,1.345085621E0
1.262900286E1,2.960165739E0,-1.911188364E0,1.268424392E0
1.263815510E1,2.971008301E0,-1.772220612E0,1.176797271E0
1.264729463E1,2.953904629E0,-1.741220117E0,1.099066973E0
1.265645958E1,2.926874638E0,-1.788408041E0,1.035386086E0
1.266561182E1,2.895110607E0,-1.858808160E0,9.332218766E-1
1.267475135E1,2.847617149E0,-1.924626946E0,7.937960029E-1
1.268391635E1,2.773399353E0,-1.907675982E0,6.693359017E-1
1.269306859E1,2.688491583E0,-1.754353285E0,6.129852533E-1
1.270222083E1,2.609997511E0,-1.471225619E0,6.360446811E-1
1.271137307E1,2.567543745E0,-1.176186442E0,7.295043468E-1
1.272052531E1,2.562656879E0,-8.768712282E-1,8.458707333E-1
1.272967755E1,2.565405846E0,-6.119162440E-1,9.422318935E-1
1.273882979E1,2.547538519E0,-4.172086716E-1,9.926267862E-1
1.274798203E1,2.503710270E0,-3.376458287E-1,9.941539168E-1
1.275712151E1,2.434989929E0,-3.535278440E-1,9.588775039E-1
1.276628651E1,2.363826275E0,-4.376720488E-1,9.003888369E-1
1.277543875E1,2.296174765E0,-5.627430081E-1,8.261709213E-1
1.278457828E1,2.215084791E0,-7.012526393E-1,7.475243211E-1
1.279374328E1,2.119181871E0,-8.360971808E-1,6.632274389E-1
1.280289552E1,1.998539567E0,-9.402466416E-1,5.799994469E-1
1.281203500E1,1.867054701E0,-1.022711039E0,4.937172830E-1
1.282120000E1,1.740609288E0,-1.107007980E0,4.092676640E-1
1.283035224E1,1.618897915E0,-1.178629756E0,3.252761662E-1
1.283950448E1,1.483900666E0,-1.217113137E0,2.528907657E-1
1.284865672E1,1.334548593E0,-1.240478039E0,1.927223057E-1
1.285780896E1,1.177713513E0,-1.253000498E0,1.543916464E-1
1.286696120E1,1.022405624E0,-1.241241574E0,1.203369126E-1
1.287611344E1,8.617527485E-1,-1.181989431E0,8.918370306E-2
1.288526568E1,6.945333481E-1,-1.084101200E0,6.963659078E-2
1.289441792E1,5.285356045E-1,-9.874345660E-1,6.597150117E-2
1.290357015E1,3.549022675E-1,-8.906152844E-1,7.498150319E-2
1.291272239E1,1.728697717E-1,-8.011261821E-1,8.765657991E-2
1.292187469E1,-1.603474095E-2,-6.959077120E-1,9.422318637E-2
1.293102693E1,-1.986780763E-1,-5.376983285E-1,8.918370306E-2
1.294017916E1,-3.712424338E-1,-3.240544796E-1,7.925742865E-2
1.294933140E1,-5.395308137E-1,-1.165191159E-1,7.482878864E-2
1.295848364E1,-6.997255087E-1,2.489202656E-2,6.566607952E-2
1.296763588E1,-8.684720993E-1,8.903098851E-2,5.772506446E-2
1.297678812E1,-1.056918502E0,8.139539510E-2,4.169032723E-2
1.298594036E1,-1.259719729E0,1.649287529E-2,2.015795931E-2
1.299509260E1,-1.478097677E0,-7.910472155E-2,-1.236965694E-2
1.300424484E1,-1.712052107E0,-1.676775664E-1,-6.413896382E-2
1.301339708E1,-1.956085682E0,-2.750339806E-1,-1.426328421E-1
1.302254937E1,-2.172478199E0,-4.089622498E-1,-2.545706034E-1
1.303170161E1,-2.255706310E0,-4.989095032E-1,-3.961344361E-1
1.304085385E1,-2.074437380E0,-4.256078303E-1,-5.317425132E-1
1.305000609E1,-1.575833201E0,-1.719534993E-1,-6.187883019E-1
1.305914557E1,-8.693883419E-1,9.544488788E-2,-6.183301210E-1
1.306831057E1,-3.822376728E-1,-1.256818175E-1,-5.128062963E-1
1.307746281E1,-2.200577259E-1,-9.194778204E-1,-3.246653080E-1
1.308660229E1,-3.122956753E-1,-1.375169873E0,-1.351499557E-1
1.309576729E1,-6.914790869E-1,-9.054283500E-1,-7.467607409E-2
1.310491953E1,-1.137550354E0,-1.313321572E-2,-8.338065445E-2
1.311405906E1,-1.215586066E0,8.180772066E-1,3.329117596E-2
1.312322406E1,-1.124264359E0,1.510472536E0,2.838912606E-1
1.313237630E1,-1.268729806E0,1.785201073E0,5.005893111E-1
1.314151578E1,-1.431062460E0,1.515206575E0,5.412106514E-1
1.315068078E1,-1.483747959E0,1.242921472E0,4.506525695E-1
1.315983302E1,-1.660740972E0,1.397618532E0,3.069507480E-1
1.316897250E1,-1.956849217E0,1.724116445E0,1.020114943E-1
1.317813750E1,-2.172936440E0,1.801846743E0,-1.273616552E-1
1.318728974E1,-2.268533945E0,1.615385532E0,-2.988570333E-1
1.319642922E1,-2.264258146E0,1.293927193E0,-3.854446113E-1
1.320559422E1,-2.197217703E0,9.064973593E-1,-4.091149569E-1
1.321474646E1,-2.152014971E0,4.810422063E-1,-4.213318825E-1
1.322388599E1,-2.094137192E0,1.572931744E-2,-4.566083252E-1
1.323305099E1,-1.932568073E0,-3.222219348E-1,-4.906630516E-1
1.324220323E1,-1.690977931E0,-4.926483035E-1,-4.112529159E-1
1.325134271E1,-1.548192382E0,-5.418215394E-1,-2.531961799E-1
1.326050771E1,-1.591409802E0,-4.923428893E-1,-7.696675509E-2
1.326965995E1,-1.741983652E0,-3.179459870E-1,6.520794332E-2
1.327879942E1,-1.887670755E0,2.916795574E-2,1.049130186E-1
1.328796442E1,-1.956696510E0,4.059080184E-1,3.268032894E-2
1.329711666E1,-1.980824947E0,7.705838084E-1,-1.105633527E-1
1.330626890E1,-1.993805408E0,1.071884274E0,-2.733541429E-1
1.331542120E1,-1.968302608E0,1.250862479E0,-4.089622498E-1
1.332457344E1,-1.911799192E0,1.360967636E0,-4.860817194E-1
1.333371292E1,-1.854074121E0,1.386317849E0,-4.839437306E-1
1.334287792E1,-1.801235914E0,1.377613306E0,-4.260659516E-1
1.335203015E1,-1.754505992E0,1.427550077E0,-3.324536085E-1
1.336118239E1,-1.708234310E0,1.438850760E0,-2.356343269E-1
1.337033463E1,-1.652647257E0,1.386775970E0,-1.649287641E-1
1.337948687E1,-1.627907991E0,1.371810198E0,-1.207950488E-1
1.338863911E1,-1.643637300E0,1.384027123E0,-9.895725548E-2
1.339779140E1,-1.688839912E0,1.415333152E0,-9.620844573E-2
1.340694364E1,-1.741983652E0,1.441599488E0,-1.046075895E-1
1.341609588E1,-1.788713455E0,1.494590521E0,-1.067455560E-1
1.342524812E1,-1.850409031E0,1.494590521E0,-8.643488586E-2
1.343440036E1,-1.921420097E0,1.421746969E0,-5.268557742E-2
1.344355260E1,-1.948297381E0,1.303700805E0,-2.397575416E-2
1.345270484E1,-1.908134103E0,1.086239100E0,-2.244863659E-2
1.346185708E1,-1.812231064E0,7.884510756E-1,-6.001574174E-2
1.347099656E1,-1.698460817E0,4.924955964E-1,-1.243074164E-1
1.348016156E1,-1.575680494E0,1.688992679E-1,-1.994416267E-1
1.348931380E1,-1.449693203E0,-1.699682474E-1,-2.728960216E-1
1.349845333E1,-1.323095202E0,-3.808632791E-1,-3.432961702E-1
1.350761833E1,-1.208866715E0,-4.430169761E-1,-4.011739492E-1
1.351677057E1,-1.111436605E0,-3.665083647E-1,-4.408790171E-1
1.352591005E1,-1.039967418E0,-2.002051920E-1,-4.654656053E-1
1.353507505E1,-1.017366052E0,3.359659761E-2,-4.734066129E-1
1.354422729E1,-1.022100210E0,2.819060087E-1,-4.772244096E-1
1.355337953E1,-1.021031141E0,5.097520351E-1,-4.694361091E-1
1.356253177E1,-9.969027042E-1,7.032378912E-1,-4.437805414E-1
1.357168401E1,-9.582666159E-1,8.457180262E-1,-4.136963189E-1
1.358082354E1,-9.150491953E-1,8.977927566E-1,-3.877353072E-1
1.358998854E1,-8.674030900E-1,8.654178381E-1,-3.654393852E-1
1.359914078E1,-7.965448499E-1,7.890619636E-1,-3.368822634E-1
1.360829302E1,-6.945333481E-1,7.278245091E-1,-2.974826097E-1
1.361744526E1,-5.790832043E-1,6.896465421E-1,-2.502946556E-1
1.362659750E1,-4.753918648E-1,6.436802745E-1,-2.043284029E-1
1.363573698E1,-4.057552814E-1,5.716003180E-1,-1.695101112E-1
1.364490198E1,-3.437542915E-1,5.198310018E-1,-1.433963925E-1
1.365405422E1,-2.843494117E-1,4.767662883E-1,-1.209477559E-1
1.366320651E1,-2.408265322E-1,4.178195298E-1,-1.047603041E-1
1.367235875E1,-2.246390730E-1,3.286358118E-1,-9.666658193E-2
1.368151099E1,-2.506000996E-1,2.044811249E-1,-1.029277667E-1
1.369066323E1,-3.031329513E-1,8.551861346E-2,-1.264453828E-1
1.369981547E1,-3.332171738E-1,1.679829881E-2,-1.508792788E-1
1.370896771E1,-3.061871827E-1,-3.924693540E-2,-1.653869003E-1
1.371811995E1,-2.342599183E-1,-1.482831687E-1,-1.605001241E-1
1.372727219E1,-1.406475753E-1,-2.956500649E-1,-1.316375881E-1
1.373642448E1,-5.176930502E-2,-3.990359604E-1,-9.910997003E-2
1.374557672E1,2.412846684E-2,-4.156815708E-1,-6.566607952E-2
1.375472896E1,1.004843712E-1,-3.593308926E-1,-3.405473381E-2
1.376388120E1,1.889045089E-1,-2.722851634E-1,-1.084253844E-2
1.377303344E1,2.884726226E-1,-1.569877416E-1,-3.512371797E-3
1.378218568E1,3.694098890E-1,2.809897438E-2,-1.649287529E-2
1.379133792E1,4.005630910E-1,2.786990702E-1,-3.665083647E-2
1.380049015E1,3.917058110E-1,5.141806602E-1,-4.917320609E-2
1.380964245E1,3.941491842E-1,6.558972597E-1,-3.512371704E-2
1.381879469E1,4.391991794E-1,6.995728016E-1,1.710372418E-2
1.382793416E1,5.364766121E-1,6.908682585E-1,8.368607610E-2
1.383709917E1,6.639909744E-1,6.600204706E-1,1.469087601E-1
1.384625140E1,8.090671897E-1,6.129852533E-1,2.017323077E-1
1.385540364E1,9.672766328E-1,5.410579443E-1,2.664821148E-1
1.386455588E1,1.136633992E0,4.500417113E-1,3.507790267E-1
1.387370812E1,1.303395391E0,3.681881726E-1,4.448495209E-1
1.388284765E1,1.467713237E0,2.806843221E-1,5.241069198E-1
1.389201265E1,1.657534003E0,1.209477559E-1,5.702258945E-1
1.390116489E1,1.923557997E0,-1.291942000E-1,5.795413256E-1
1.391030437E1,2.280903578E0,-4.005630910E-1,5.743491650E-1
1.391946937E1,2.708954811E0,-5.702258945E-1,5.932853818E-1
1.392862161E1,3.157927513E0,-6.164975762E-1,6.325323582E-1
1.393776109E1,3.527642965E0,-6.181774139E-1,6.595623493E-1
1.394692609E1,3.675009727E0,-5.628957748E-1,6.856760383E-1
1.395607833E1,3.500154734E0,-4.677563012E-1,7.508839965E-1
1.396523062E1,3.110434294E0,-4.433223903E-1,8.477032781E-1
1.397438286E1,2.729723692E0,-5.271611810E-1,9.591829181E-1
1.398353510E1,2.497754335E0,-6.820109487E-1,1.080436110E0
1.399268734E1,2.414526463E0,-8.286142945E-1,1.212531805E0
1.400183958E1,2.407807112E0,-9.625425935E-1,1.330425382E0
1.401099182E1,2.423689127E0,-1.102121115E0,1.413653255E0
1.402014406E1,2.441556454E0,-1.278503299E0,1.451067686E0
1.402929635E1,2.472557068E0,-1.495964885E0,1.439308882E0
1.403844859E1,2.528907537E0,-1.710066915E0,1.372726560E0
1.404758807E1,2.615342617E0,-1.870108843E0,1.268424392E0
1.405675307E1,2.711703777E0,-1.974716425E0,1.129914761E0
1.406590531E1,2.790655613E0,-2.045116663E0,9.570449591E-1
1.407505755E1,2.806843042E0,-2.075048208E0,8.333483934E-1
1.408420979E1,2.760418653E0,-2.039771795E0,7.980719209E-1
1.409336203E1,2.688186169E0,-1.891030431E0,8.194515705E-1
1.410251432E1,2.619313002E0,-1.716175318E0,8.524373770E-1
1.411166656E1,2.558075666E0,-1.572626233E0,9.032903910E-1
1.412081880E1,2.514705420E0,-1.425564766E0,9.356653094E-1
1.412997104E1,2.490882397E0,-1.306907654E0,9.300149679E-1
1.413912328E1,2.471182585E0,-1.217876673E0,8.901571631E-1
1.414827552E1,2.437280655E0,-1.115101695E0,8.391514421E-1
1.415742776E1,2.393757582E0,-9.906415343E-1,7.904363275E-1
1.416658005E1,2.338781357E0,-8.848122358E-1,7.508839965E-1
1.417573229E1,2.274795294E0,-8.066238165E-1,7.149966955E-1
1.418488453E1,2.191720009E0,-7.304205894E-1,6.710157394E-1
1.419403677E1,2.084058046E0,-6.633801460E-1,6.122216582E-1
1.420318901E1,1.954405785E0,-6.108472347E-1,5.410579443E-1
1.421234125E1,1.815896153E0,-5.897729993E-1,4.581354558E-1
1.422149349E1,1.681051612E0,-5.697677732E-1,3.717005551E-1
1.423064578E1,1.553537250E0,-5.413633585E-1,2.938175201E-1
1.423979802E1,1.418692708E0,-5.315898061E-1,2.269297540E-1
1.424895026E1,1.265675545E0,-5.483881235E-1,1.667613089E-1
1.425810250E1,1.091584086E0,-5.633538961E-1,1.148392856E-1
1.426725474E1,9.126058221E-1,-5.769452453E-1,7.452336699E-2
1.427640698E1,7.640172243E-1,-6.164975762E-1,2.519745007E-2
1.428555922E1,6.436802745E-1,-6.453601122E-1,-2.993151546E-2
1.429471146E1,5.234960914E-1,-6.293253899E-1,-7.727217674E-2
1.430386375E1,3.891097009E-1,-5.520532131E-1,-1.136175916E-1
1.431301599E1,2.371614426E-1,-4.337015450E-1,-1.411057115E-1
1.432216823E1,7.131642103E-2,-2.826695740E-1,-1.563768983E-1
1.433132047E1,-9.727742523E-2,-1.058292910E-1,-1.589729935E-1
1.434047271E1,-2.730487287E-1,5.176930502E-2,-1.469087601E-1
1.434962495E1,-4.584408700E-1,1.588202864E-1,-1.311794519E-1
1.435877719E1,-6.323796511E-1,2.392994165E-1,-1.214058921E-1
1.436792948E1,-7.921161652E-1,3.180987239E-1,-1.140757278E-1
1.437708172E1,-9.571976662E-1,3.715478480E-1,-9.941539168E-2
1.438623396E1,-1.135259628E0,3.501681983E-1,-8.108997345E-2
1.439538620E1,-1.334090471E0,2.510582209E-1,-6.780404598E-2
1.440453844E1,-1.552162886E0,9.758284688E-2,-6.490252167E-2
1.441369068E1,-1.765959382E0,-1.088835225E-1,-9.132166207E-2
1.442284297E1,-1.878508091E0,-3.141281903E-1,-1.670667231E-1
1.443198245E1,-1.813910961E0,-3.121429384E-1,-2.845021188E-1
1.444114745E1,-1.618134379E0,5.222744122E-2,-4.239279926E-1
1.445029969E1,-1.253458619E0,4.987567961E-1,-5.859552622E-1
1.445943917E1,-8.373188972E-1,4.934118688E-1,-7.295043468E-1
1.446860416E1,-4.700469673E-1,-2.336490713E-2,-7.913526297E-1
1.447775640E1,-2.205158621E-1,-4.752391577E-1,-7.146912813E-1
1.448689594E1,-4.277457893E-1,-4.837910235E-1,-5.176930428E-1
1.449606094E1,-1.065012217E0,-3.032856584E-1,-3.084778786E-1
1.450521318E1,-1.438087106E0,3.145863414E-1,-9.666658193E-2
1.451435265E1,-1.374100924E0,9.984298348E-1,1.151447073E-1
1.452351765E1,-1.479472041E0,1.327829242E0,2.728960216E-1
1.453266989E1,-1.771915197E0,1.341420531E0,3.289412558E-1
1.454180942E1,-1.958681703E0,1.280183196E0,3.106158376E-1
1.455097443E1,-2.030303478E0,1.508334637E0,2.823641598E-1
1.456012666E1,-2.146364450E0,1.766417503E0,2.257080674E-1
1.456926614E1,-2.166980743E0,1.713579297E0,1.255291104E-1
1.457843114E1,-2.109408379E0,1.391968250E0,-9.315420873E-3
1.458758338E1,-2.050003290E0,8.848122358E-1,-1.667613089E-1
1.459672292E1,-2.030761719E0,4.413371384E-1,-3.037438095E-1
1.460588792E1,-2.032594204E0,1.420219894E-2,-4.176668227E-1
1.461504015E1,-1.939745426E0,-4.210264683E-1,-4.935645759E-1
1.462417963E1,-1.742136359E0,-6.826218367E-1,-4.474456310E-1
1.463334463E1,-1.581789017E0,-7.788302302E-1,-3.020639718E-1
1.464249687E1,-1.527423620E0,-7.788302302E-1,-1.484358907E-1
1.465163640E1,-1.548039675E0,-5.880932212E-1,-6.688777357E-2
1.466080140E1,-1.606070161E0,-1.995943487E-1,-9.804098308E-2
1.466995364E1,-1.670667291E0,2.504473627E-1,-2.307475507E-1
1.467909312E1,-1.727934241E0,6.829272509E-1,-4.111002088E-1
1.468825812E1,-1.770235300E0,1.090362310E0,-5.796940327E-1
1.469741036E1,-1.797265291E0,1.419456363E0,-7.027797699E-1
1.470656260E1,-1.780314326E0,1.614316583E0,-7.754706144E-1
1.471571489E1,-1.733279109E0,1.740914702E0,-7.910472155E-1
1.472486713E1,-1.687770963E0,1.871330619E0,-7.469134927E-1
1.473401937E1,-1.640277624E0,1.912104607E0,-6.671979427E-1
1.474317161E1,-1.583163381E0,1.893931985E0,-5.685460567E-1
1.475232385E1,-1.532768488E0,1.864153147E0,-4.825693369E-1
1.476147609E1,-1.496881247E0,1.814979911E0,-4.366030693E-1
1.477062838E1,-1.502073407E0,1.775274873E0,-4.213318825E-1
1.477978062E1,-1.550483108E0,1.756491303E0,-4.265241027E-1
1.478893286E1,-1.605459332E0,1.773136854E0,-4.451549351E-1
1.479808510E1,-1.629129648E0,1.809940457E0,-4.527905285E-1
1.480723734E1,-1.621341348E0,1.822615504E0,-4.472928941E-1
1.481638958E1,-1.621646762E0,1.850409031E0,-4.289674759E-1
1.482554187E1,-1.602405071E0,1.893168330E0,-4.165978432E-1
1.483469411E1,-1.561783671E0,1.909050345E0,-4.144598544E-1
1.484384635E1,-1.530783176E0,1.884311080E0,-4.104893506E-1
1.485299859E1,-1.499477267E0,1.833152652E0,-4.042281806E-1
1.486215083E1,-1.466796994E0,1.753131628E0,-3.941491842E-1
1.487130307E1,-1.447860718E0,1.622410297E0,-3.877353072E-1
1.488045536E1,-1.423426867E0,1.433353066E0,-3.831539452E-1
1.488960760E1,-1.389524817E0,1.214669824E0,-3.749074936E-1
1.489875984E1,-1.334854007E0,9.718579650E-1,-3.633013964E-1
1.490791208E1,-1.245364904E0,7.302678823E-1,-3.564293683E-1
1.491706432E1,-1.131594539E0,5.425850749E-1,-3.555130959E-1
1.492621656E1,-1.011563063E0,4.263713956E-1,-3.619270027E-1
1.493536885E1,-9.129112363E-1,3.704788685E-1,-3.709369898E-1
1.494452109E1,-8.496885300E-1,4.042281806E-1,-3.802524209E-1
1.495367333E1,-8.325847983E-1,5.013529062E-1,-3.991886973E-1
1.496282557E1,-8.504521251E-1,6.529957056E-1,-4.280512035E-1
1.497197781E1,-8.496885300E-1,8.428165317E-1,-4.422534108E-1
1.498113005E1,-8.032641411E-1,9.573503733E-1,-4.352286756E-1
1.499028234E1,-7.192726731E-1,9.335273504E-1,-4.152234197E-1
1.499943458E1,-6.366555691E-1,7.860077024E-1,-3.955236077E-1
1.500858682E1,-5.690042377E-1,5.873296261E-1,-3.814741075E-1
1.501773906E1,-5.126535892E-1,3.982724249E-1,-3.614688516E-1
1.502689130E1,-4.538595080E-1,2.183778882E-1,-3.203893900E-1
1.503604359E1,-3.990359604E-1,5.955760926E-2,-2.783936262E-1
1.504519583E1,-3.544441164E-1,-3.787253052E-2,-2.463241518E-1
1.505434807E1,-3.141281903E-1,-7.345438004E-2,-2.380777150E-1
1.506350031E1,-2.732014358E-1,-9.743013978E-2,-2.560977042E-1
1.507265255E1,-2.321219593E-1,-1.342336833E-1,-2.845021188E-1
1.508180479E1,-2.046338320E-1,-1.650814712E-1,-3.110739589E-1
1.509095708E1,-2.057028115E-1,-1.736333370E-1,-3.393256664E-1
1.510010932E1,-2.209739983E-1,-1.652341783E-1,-3.613161445E-1
1.510926156E1,-2.380777150E-1,-1.165191159E-1,-3.742966652E-1
1.511841380E1,-2.480039895E-1,-2.321219631E-2,-3.756710589E-1
1.512756604E1,-2.425063550E-1,1.039967462E-1,-3.684936166E-1
1.513671833E1,-2.345653474E-1,2.528907657E-1,-3.562766612E-1
1.514587057E1,-2.284568697E-1,3.874298632E-1,-3.428380191E-1
1.515502281E1,-2.264716178E-1,5.066977739E-1,-3.281776905E-1
1.516417505E1,-2.298312783E-1,6.181774139E-1,-3.234436214E-1
1.517332729E1,-2.272351831E-1,7.284353375E-1,-3.327590525E-1
1.518247953E1,-1.983726472E-1,8.218950033E-1,-3.497100472E-1
1.519163182E1,-1.261399537E-1,8.774821162E-1,-3.492519259E-1
1.520077130E1,-3.512371797E-3,8.645015955E-1,-3.141281903E-1
1.520993630E1,1.601946950E-1,7.252284288E-1,-2.506000996E-1
1.521908854E1,3.410054743E-1,4.443913698E-1,-1.617218107E-1
1.522822807E1,5.302154422E-1,6.368082762E-2,-5.512896553E-2
1.523739307E1,7.145385742E-1,-3.315373361E-1,5.573981255E-2
1.524654531E1,8.722898960E-1,-6.658235192E-1,1.725643575E-1
1.525568479E1,9.956810474E-1,-8.767185211E-1,2.901524603E-1
1.526484979E1,1.087002754E0,-9.442171454E-1,3.990359604E-1
1.527400203E1,1.154043198E0,-8.926005363E-1,4.775298536E-1
1.528314156E1,1.212073684E0,-7.820371985E-1,5.212054253E-1
1.529230656E1,1.307671309E0,-6.685723066E-1,5.419742465E-1
1.530145880E1,1.480235577E0,-5.952706337E-1,5.615213513E-1
1.531061104E1,1.724116445E0,-6.026008129E-1,5.961869359E-1
1.531976328E1,2.021751642E0,-7.441646457E-1,6.528429985E-1
1.532891557E1,2.370239973E0,-1.015686274E0,7.127060294E-1
1.533805505E1,2.717964888E0,-1.266744494E0,7.753179073E-1
1.534722005E1,2.987653971E0,-1.268424392E0,8.553388715E-1
1.535637229E1,3.125094652E0,-1.048977494E0,9.630007148E-1
1.536551177E1,3.133493662E0,-8.528954983E-1,1.057529330E0
1.537467677E1,3.019418001E0,-7.502731681E-1,1.135412335E0
1.538382906E1,2.799665689E0,-6.809419990E-1,1.226734042E0
1.539296854E1,2.592588425E0,-8.092198968E-1,1.340656996E0
1.540213354E1,2.510276794E0,-1.181225896E0,1.475959659E0
1.541128578E1,2.539750099E0,-1.635085344E0,1.601183414E0
1.542042531E1,2.591061354E0,-1.974105597E0,1.669445515E0
1.542959026E1,2.626032352E0,-2.165606260E0,1.663184404E0
1.543874255E1,2.641150951E0,-2.293731451E0,1.574764252E0
1.544788203E1,2.666501045E0,-2.362909794E0,1.424801230E0
1.545704703E1,2.689102411E0,-2.411166906E0,1.271020412E0
1.546619927E1,2.730639935E0,-2.435600758E0,1.129762053E0
1.547533880E1,2.766985416E0,-2.432546616E0,9.767447710E-1
1.548450380E1,2.763320208E0,-2.397422791E0,8.875610828E-1
1.549365604E1,2.697043419E0,-2.289150000E0,8.612946272E-1
1.550279552E1,2.602667570E0,-2.074742794E0,8.715263009E-1
1.551196052E1,2.508596897E0,-1.772067904E0,9.182561636E-1
1.552111276E1,2.439571142E0,-1.438850760E0,9.694145918E-1
1.553026505E1,2.399408102E0,-1.109604001E0,1.017213345E0
1.553941729E1,2.380013704E0,-8.197570443E-1,1.062568784E0
1.554856953E1,2.365047932E0,-6.128324866E-1,1.096470833E0
1.555772177E1,2.345500708E0,-4.989095032E-1,1.104869962E0
1.556687401E1,2.299687147E0,-4.497362971E-1,1.074022174E0
1.557602630E1,2.223484039E0,-4.465293586E-1,1.019809484E0
1.558516578E1,2.122846842E0,-4.836383164E-1,9.604045749E-1
1.559433078E1,2.004647970E0,-5.346440673E-1,9.071081877E-1
1.560348302E1,1.878813505E0,-5.717530251E-1,8.585458398E-1
1.561262255E1,1.763516068E0,-6.084038615E-1,7.980719209E-1
1.562178755E1,1.665780425E0,-6.696413159E-1,7.119424939E-1
1.563093979E1,1.575833201E0,-7.618792653E-1,6.044333577E-1
1.564009203E1,1.477944970E0,-8.696937561E-1,5.005893111E-1
1.564924427E1,1.362189412E0,-9.713998437E-1,4.161396921E-1
1.565839651E1,1.229941010E0,-1.061041713E0,3.530697227E-1
1.566754880E1,1.085475564E0,-1.133121610E0,3.069507480E-1
1.567670104E1,9.269607067E-1,-1.179393291E0,2.735068500E-1
1.568585328E1,7.582141757E-1,-1.190541267E0,2.460187376E-1
1.569499276E1,5.735855699E-1,-1.147018433E0,2.208212912E-1
1.570415776E1,3.756710589E-1,-1.052184463E0,1.889045089E-1
1.571331005E1,1.792836636E-1,-9.213103652E-1,1.568350345E-1
1.572246229E1,-1.252236869E-2,-7.710419297E-1,1.314848661E-1
1.573161453E1,-1.944021434E-1,-6.068767309E-1,1.142284349E-1
1.574076677E1,-3.568875194E-1,-4.330907166E-1,1.117850468E-1
1.574991901E1,-5.044071078E-1,-2.657185495E-1,1.168245375E-1
1.575907130E1,-6.505523324E-1,-1.165191159E-1,1.265980899E-1
1.576822354E1,-8.050966859E-1,1.985253533E-3,1.278197914E-1
1.577737578E1,-9.651386738E-1,5.833591148E-2,1.163664013E-1
1.578652802E1,-1.135106921E0,4.169032723E-2,9.071081877E-2
1.579568031E1,-1.316223145E0,-2.611372061E-2,5.711421743E-2
1.580483255E1,-1.518566251E0,-1.116323397E-1,1.847812906E-2
1.581398479E1,-1.754505992E0,-1.875301152E-1,-3.252761811E-2
1.582313703E1,-2.023431540E0,-2.003578991E-1,-1.033858955E-1
1.583228927E1,-2.273420811E0,-1.933331639E-1,-2.066190839E-1
1.584144151E1,-2.366422176E0,-1.849340051E-1,-3.550549746E-1
1.585059380E1,-2.169882059E0,-1.056765765E-1,-5.112791657E-1
1.585973328E1,-1.557813168E0,1.521009654E-1,-6.323796511E-1
1.586889828E1,-5.980194807E-1,4.391991794E-1,-6.722373962E-1
1.587805052E1,5.054761097E-2,1.180462316E-1,-6.087092757E-1
1.588719005E1,1.111742035E-1,-8.247964978E-1,-4.286620617E-1
1.589635505E1,-1.769929975E-1,-8.125795722E-1,-2.451024652E-1
1.590550729E1,-9.426900148E-1,2.145601064E-1,-3.147390485E-1
1.591464677E1,-1.568044901E0,8.970292211E-1,-4.772244096E-1
1.592381177E1,-1.330119848E0,1.177560806E0,-4.758500159E-1
1.593296406E1,-1.168092728E0,1.411973476E0,-2.263189107E-1
1.594210354E1,-1.467407823E0,1.794821978E0,8.826743066E-2
1.595126854E1,-1.752673507E0,2.260745764E0,2.660239935E-1
1.596042078E1,-1.951504230E0,2.783020020E0,2.857238054E-1
1.596956031E1,-2.135522127E0,2.948559761E0,1.644706279E-1
1.597872531E1,-2.167438745E0,2.800123930E0,-2.550287358E-2
1.598787755E1,-2.124068737E0,2.454231501E0,-2.240282297E-1
1.599701703E1,-2.170340300E0,1.806733489E0,-4.431696832E-1
1.600618203E1,-2.214168549E0,9.248227477E-1,-6.491779089E-1
1.601533427E1,-2.164995432E0,1.794363856E-1,-7.960866690E-1
1.602447380E1,-1.943868637E0,-3.965925872E-1,-8.924478292E-1
1.603363880E1,-1.640124917E0,-8.196043372E-1,-8.509102464E-1
1.604279104E1,-1.434727550E0,-1.059514523E0,-6.537593007E-1
1.605193052E1,-1.409988165E0,-1.056765795E0,-4.051444530E-1
1.606109557E1,-1.502378821E0,-8.101361990E-1,-1.786728203E-1
1.607024781E1,-1.612789512E0,-4.506525695E-1,-2.046338283E-2
1.607938729E1,-1.685785770E0,-3.603998944E-2,1.542389300E-2
1.608855229E1,-1.750382781E0,4.132381678E-1,-5.619794875E-2
1.609770453E1,-1.808107853E0,8.651124239E-1,-1.985253543E-1
1.610685682E1,-1.822310090E0,1.235133171E0,-3.608580232E-1
1.611600906E1,-1.805206418E0,1.522078633E0,-4.960079789E-1
1.612516130E1,-1.793447495E0,1.763363361E0,-5.827482939E-1
1.613431354E1,-1.781077862E0,1.986169815E0,-6.193991303E-1
1.614346583E1,-1.732362866E0,2.124832153E0,-6.135960817E-1
1.615261807E1,-1.647149682E0,2.163773775E0,-5.740436912E-1
1.616177031E1,-1.549414039E0,2.093526363E0,-5.176930428E-1
1.617092255E1,-1.478555799E0,1.998692274E0,-4.608842432E-1
1.618007479E1,-1.442210436E0,1.898971438E0,-4.123218954E-1
1.618922708E1,-1.422510505E0,1.814827204E0,-3.657447994E-1
1.619837932E1,-1.422357798E0,1.769777179E0,-3.339807391E-1
1.620753156E1,-1.439614296E0,1.773442268E0,-3.193204105E-1
1.621668380E1,-1.446944475E0,1.772831440E0,-3.127537966E-1
1.622583609E1,-1.425564766E0,1.710677743E0,-3.101576865E-1
1.623498833E1,-1.368450522E0,1.601183414E0,-3.211529553E-1
1.624414057E1,-1.285375357E0,1.498102903E0,-3.475720882E-1
1.625329281E1,-1.194969893E0,1.392120957E0,-3.822376728E-1
1.626244505E1,-1.095249176E0,1.283084631E0,-4.204156399E-1
1.627159734E1,-9.739959836E-1,1.183058381E0,-4.427115619E-1
1.628074958E1,-8.336538076E-1,1.061041713E0,-4.483618736E-1
1.628990182E1,-7.029324770E-1,9.046648145E-1,-4.216373265E-1
1.629905406E1,-6.062659025E-1,7.482879162E-1,-3.666610718E-1
1.630820630E1,-5.405998230E-1,6.093201637E-1,-3.096995652E-1
1.631735859E1,-5.060869455E-1,5.349494815E-1,-2.684673667E-1
1.632651083E1,-5.192201734E-1,5.318952799E-1,-2.289150059E-1
1.633566307E1,-5.664080977E-1,5.531222224E-1,-1.866138428E-1
1.634481531E1,-6.187883019E-1,5.935907960E-1,-1.435490996E-1
1.635396760E1,-6.642963886E-1,6.279509664E-1,-1.116323397E-1
1.636311984E1,-7.062921524E-1,6.430694461E-1,-9.788827598E-2
1.637227208E1,-7.701256871E-1,6.308525205E-1,-1.142284349E-1
1.638142432E1,-8.313631415E-1,5.961869359E-1,-1.585148573E-1
1.639057661E1,-8.619054556E-1,5.314370990E-1,-2.221956849E-1
1.639972885E1,-8.643488884E-1,4.190412164E-1,-3.038965166E-1
1.640888109E1,-8.612946272E-1,3.336753249E-1,-4.022429287E-1
1.641803333E1,-8.079982400E-1,4.094203711E-1,-4.813476503E-1
1.642718557E1,-6.839962006E-1,5.570927262E-1,-5.190674663E-1
1.643633786E1,-5.367820263E-1,6.206207871E-1,-5.186093450E-1
1.644549010E1,-4.052971601E-1,5.196782947E-1,-4.950917065E-1
1.645464234E1,-3.326063454E-1,3.180987239E-1,-4.680617154E-1
1.646379458E1,-3.384093940E-1,1.209477559E-1,-4.558447599E-1
1.647294687E1,-4.135435820E-1,-2.794626169E-2,-4.593571424E-1
1.648209911E1,-5.292991400E-1,-1.113269106E-1,-4.734066129E-1
1.649125135E1,-6.418477297E-1,-1.110214889E-1,-4.957025647E-1
1.650040359E1,-6.977402568E-1,-5.528167635E-2,-5.291464329E-1
1.650955588E1,-6.665870547E-1,-7.024743594E-3,-5.575508475E-1
1.651870812E1,-5.532749295E-1,9.926267900E-3,-5.641174316E-1
1.652786036E1,-3.923166394E-1,-1.557660475E-2,-5.373928547E-1
1.653701260E1,-2.379250079E-1,-7.650861889E-2,-4.787515402E-1
1.654616489E1,-1.330119967E-1,-1.328592747E-1,-4.107947946E-1
1.655531713E1,-8.139539510E-2,-1.282779276E-1,-3.603998721E-1
1.656446937E1,-8.032641560E-2,-5.283828825E-2,-3.371876776E-1
1.657362161E1,-1.110214889E-1,6.704048812E-2,-3.283303976E-1
1.658277385E1,-1.510319859E-1,2.121167034E-1,-3.336753249E-1
1.659192614E1,-1.789782494E-1,3.747547865E-1,-3.498627543E-1
1.660107838E1,-1.840177327E-1,5.343386531E-1,-3.781144619E-1
1.661023062E1,-1.508792788E-1,6.264238358E-1,-3.932329118E-1
1.661938286E1,-6.642963737E-2,6.099309921E-1,-3.571929336E-1
1.662852239E1,9.055810422E-2,5.105155706E-1,-2.625116110E-1
1.663768739E1,3.312319219E-1,3.362714052E-1,-8.170082420E-2
1.664683963E1,6.207735538E-1,1.014006436E-1,1.621799469E-1
1.665599187E1,8.944330812E-1,-1.490467340E-1,4.147652984E-1
1.666514411E1,1.118003249E0,-3.707842827E-1,6.412369013E-1
1.667429640E1,1.298203111E0,-5.457920432E-1,8.093726039E-1
1.668343588E1,1.469545841E0,-6.609367132E-1,8.900044560E-1
1.669260088E1,1.642110109E0,-7.197307944E-1,8.826742768E-1
1.670175312E1,1.836817741E0,-7.588250041E-1,8.180772066E-1
1.671089265E1,2.080240250E0,-8.557969928E-1,7.447755337E-1
1.672005765E1,2.356954098E0,-1.054780483E0,7.169819474E-1
1.672920989E1,2.608165026E0,-1.307976723E0,7.672241330E-1
1.673834937E1,2.751408815E0,-1.533226609E0,8.635852933E-1
1.674751437E1,2.775537252E0,-1.659366608E0,9.622371197E-1
1.675666666E1,2.692767382E0,-1.685785770E0,1.050199151E0
1.676580614E1,2.522493839E0,-1.699529767E0,1.139382839E0
1.677497114E1,2.316027403E0,-1.744732499E0,1.214211583E0
1.678412338E1,2.154916525E0,-1.807497025E0,1.269340634E0
1.679326292E1,2.092151880E0,-1.904469013E0,1.309961915E0
1.680242792E1,2.128039122E0,-2.013352633E0,1.335312128E0
1.681158015E1,2.235242844E0,-2.081920147E0,1.336075664E0
1.682071963E1,2.369018316E0,-2.066801786E0,1.306449533E0
1.682988469E1,2.503404856E0,-2.031219959E0,1.262773991E0
1.683903693E1,2.606637955E0,-2.063747406E0,1.213600755E0
1.684817640E1,2.655811071E0,-2.159192324E0,1.154654026E0
1.685734140E1,2.667569876E0,-2.265937805E0,1.082879424E0
1.686649364E1,2.657796383E0,-2.291898966E0,9.576557875E-1
1.687564594E1,2.633362532E0,-2.230966806E0,8.052493930E-1
1.688479818E1,2.557922840E0,-2.149113417E0,6.893411279E-1
1.689395042E1,2.449650288E0,-2.022209883E0,6.438329816E-1
1.690308995E1,2.344431877E0,-1.825975180E0,6.533011198E-1
1.691225495E1,2.269603014E0,-1.620272398E0,7.113316059E-1
1.692140719E1,2.232646704E0,-1.386165142E0,7.817317843E-1
1.693055943E1,2.221651554E0,-1.146102190E0,8.400676847E-1
1.693971166E1,2.213710546E0,-9.454388618E-1,8.758022785E-1
1.694886390E1,2.197981119E0,-7.791357040E-1,8.866447806E-1
1.695801620E1,2.178434134E0,-6.592568755E-1,8.716790676E-1
1.696716844E1,2.147738934E0,-5.835118294E-1,8.324320912E-1
1.697632068E1,2.097344160E0,-5.091412067E-1,7.739434838E-1
1.698547292E1,2.026027679E0,-4.317162931E-1,7.191199064E-1
1.699462521E1,1.934858680E0,-4.162923992E-1,6.757497787E-1
1.700377745E1,1.840482831E0,-4.558447599E-1,6.354338527E-1
1.701292969E1,1.756033182E0,-5.048652887E-1,5.883986354E-1
1.702208193E1,1.680288076E0,-5.624375939E-1,5.409052372E-1
1.703123422E1,1.612636805E0,-6.134433746E-1,4.952444136E-1
1.704038646E1,1.536586285E0,-6.503996253E-1,4.465293586E-1
1.704953870E1,1.441446781E0,-6.610894203E-1,3.994941115E-1
1.705869094E1,1.342336893E0,-6.552863717E-1,3.535278440E-1
1.706784318E1,1.250557065E0,-6.453601122E-1,3.156553209E-1
1.707699547E1,1.153737783E0,-6.258130074E-1,2.867927849E-1
1.708614771E1,1.038745761E0,-5.880932212E-1,2.707580328E-1
1.709529995E1,9.159654379E-1,-5.575508475E-1,2.496838123E-1
1.710445219E1,7.907418013E-1,-5.320479870E-1,2.212794125E-1
1.711360448E1,6.609367132E-1,-4.859289825E-1,1.910424829E-1
1.712275672E1,5.256340504E-1,-4.217900336E-1,1.516428292E-1
1.713190896E1,4.019374847E-1,-3.594835997E-1,1.030804738E-1
1.714106120E1,2.930539846E-1,-2.869454920E-1,5.711421743E-2
1.715021349E1,1.962346882E-1,-1.933331639E-1,1.236965694E-2
1.715936573E1,9.697200358E-2,-1.050657257E-1,-3.237490356E-2
1.716851797E1,-2.168507688E-2,-4.092676565E-2,-7.116370648E-2
1.717767021E1,-1.534753740E-1,1.786728203E-2,-9.834641218E-2
1.718682245E1,-2.852656841E-1,8.032641560E-2,-1.159082651E-1
1.719597474E1,-3.944546282E-1,1.595838517E-1,-1.203369126E-1
1.720512698E1,-4.897467792E-1,2.829749882E-1,-1.113269106E-1
1.721427922E1,-5.961869359E-1,4.587462842E-1,-1.055238619E-1
1.722343146E1,-7.369872332E-1,6.339067221E-1,-9.987352788E-2
1.723258375E1,-9.118422270E-1,7.415685654E-1,-1.036913246E-1
1.724173599E1,-1.116628766E0,7.693621516E-1,-1.156028435E-1
1.725088823E1,-1.342336893E0,7.285880446E-1,-1.360662282E-1
1.726004047E1,-1.570030212E0,6.262711287E-1,-1.742441803E-1
1.726919276E1,-1.789629698E0,4.732539058E-1,-2.238755226E-1
1.727834500E1,-2.016254187E0,3.370349705E-1,-3.029802442E-1
1.728748448E1,-2.182862759E0,2.730487287E-1,-4.109475017E-1
1.729664948E1,-2.091235638E0,2.776300907E-1,-5.268557668E-1
1.730580177E1,-1.586217642E0,3.559712470E-1,-5.844281316E-1
1.731494125E1,-8.057075143E-1,5.833591223E-1,-5.309789777E-1
1.732410625E1,-2.060082406E-1,6.650599241E-1,-3.900259733E-1
1.733325849E1,-1.501157135E-1,6.306997687E-2,-2.492256761E-1
1.734239802E1,-1.401894391E-1,-8.594620824E-1,-2.533488870E-1
1.735156302E1,-4.443913698E-2,-5.267030597E-1,-5.650337338E-1
1.736071526E1,-4.527905285E-1,7.650861889E-2,-1.001942158E0
1.736985474E1,-9.623898268E-1,-4.124746025E-1,-1.201689243E0
1.737901974E1,-1.027292371E0,-8.945857882E-1,-1.028361320E0
1.738817203E1,-1.108535051E0,-9.620844573E-2,-5.251759291E-1
1.739731151E1,-1.528797984E0,1.735875249E0,1.649287529E-2
1.740647651E1,-2.164231777E0,3.055152655E0,3.119902313E-1
1.741562875E1,-2.602361917E0,3.381039619E0,3.313846290E-1
1.742476828E1,-2.561129808E0,2.946879864E0,2.110477239E-1
1.743393328E1,-2.221804142E0,2.335879803E0,8.872556686E-2
1.744308552E1,-1.931346297E0,1.958070874E0,-1.160609815E-2
1.745222500E1,-1.895459056E0,1.579345584E0,-1.313321590E-1
1.746139005E1,-1.953184128E0,8.197570443E-1,-3.217637837E-1
1.747054229E1,-1.864458561E0,-1.198787764E-1,-5.628957748E-1
1.747968177E1,-1.626838923E0,-8.451071978E-1,-7.243121266E-1
1.748884677E1,-1.426633716E0,-1.189930439E0,-7.116370797E-1
1.749799906E1,-1.378987670E0,-1.270104170E0,-5.555655956E-1
1.750713854E1,-1.435491085E0,-1.189777732E0,-3.631486893E-1
1.751630354E1,-1.497797489E0,-8.970292211E-1,-2.031067163E-1
1.752545578E1,-1.558882236E0,-4.370612204E-1,-1.287360638E-1
1.753459531E1,-1.631878495E0,9.651386738E-2,-1.650814712E-1
1.754376031E1,-1.709914207E0,6.931589246E-1,-2.893888950E-1
1.755291255E1,-1.760461807E0,1.236049414E0,-4.434750974E-1
1.756206479E1,-1.760919929E0,1.641651988E0,-5.745018721E-1
1.757121703E1,-1.732362866E0,1.930735469E0,-6.563553810E-1
1.758036932E1,-1.701973200E0,2.124679565E0,-6.818582416E-1
1.758950880E1,-1.685174823E0,2.239213228E0,-6.598677635E-1
1.759867380E1,-1.644400835E0,2.276933193E0,-5.948125124E-1
1.760782604E1,-1.592173338E0,2.244252920E0,-5.089884996E-1
1.761696557E1,-1.540556788E0,2.159039736E0,-4.242334068E-1
1.762613057E1,-1.498255610E0,2.009992838E0,-3.608580232E-1
1.763528281E1,-1.489245653E0,1.810703993E0,-3.069507480E-1
1.764443505E1,-1.514595747E0,1.648065925E0,-2.527380586E-1
1.765358729E1,-1.556133389E0,1.583163381E0,-1.973036677E-1
1.766273958E1,-1.576596737E0,1.562241912E0,-1.455343664E-1
1.767189182E1,-1.572168112E0,1.534753680E0,-1.088835225E-1
1.768104406E1,-1.564532518E0,1.515512109E0,-9.284878522E-2
1.769019635E1,-1.547886968E0,1.495659471E0,-9.590301663E-2
1.769934859E1,-1.491383553E0,1.463131905E0,-1.235438585E-1
1.770850083E1,-1.400367379E0,1.384179831E0,-1.759240031E-1
1.771765307E1,-1.294079900E0,1.247197390E0,-2.509055138E-1
1.772680531E1,-1.188556075E0,1.065012217E0,-3.336753249E-1
1.773595760E1,-1.073564053E0,8.545753360E-1,-4.089622498E-1
1.774510984E1,-9.449806809E-1,6.966713071E-1,-4.593571424E-1
1.775426208E1,-8.377770185E-1,6.219952106E-1,-4.799732268E-1
1.776341432E1,-7.991409302E-1,5.818319917E-1,-4.680617154E-1
1.777256661E1,-8.260182142E-1,5.517477989E-1,-4.442386627E-1
1.778171885E1,-8.704573512E-1,5.390726924E-1,-4.140017331E-1
1.779087109E1,-8.962656260E-1,5.693096519E-1,-3.788780272E-1
1.780002333E1,-9.089407325E-1,6.056550741E-1,-3.423798978E-1
1.780917562E1,-9.106205702E-1,6.449019909E-1,-3.148917556E-1
1.781832786E1,-9.155073166E-1,6.949914694E-1,-3.014531136E-1
1.782748010E1,-9.280297160E-1,7.130114436E-1,-3.058817685E-1
1.783663234E1,-9.387195110E-1,6.743753552E-1,-3.199312389E-1
1.784578458E1,-9.298622608E-1,5.929799676E-1,-3.376458287E-1
1.785493687E1,-8.955020905E-1,4.808894992E-1,-3.550549746E-1
1.786408911E1,-8.414421082E-1,3.687990308E-1,-3.717005551E-1
1.787324135E1,-7.702783942E-1,2.773246467E-1,-3.869717419E-1
1.788239364E1,-6.855233312E-1,2.400629669E-1,-3.924693763E-1
1.789154588E1,-5.909947157E-1,2.799207568E-1,-3.808632791E-1
1.790069812E1,-5.128062963E-1,3.458922505E-1,-3.631486893E-1
1.790985036E1,-4.656183124E-1,3.810159862E-1,-3.475720882E-1
1.791900260E1,-4.446968138E-1,3.797942698E-1,-3.315373361E-1
1.792815489E1,-4.311054647E-1,3.570402265E-1,-3.130592108E-1
1.793730713E1,-4.075878263E-1,3.330644667E-1,-2.939702570E-1
1.794645937E1,-3.819322586E-1,2.945810854E-1,-2.822114229E-1
1.795561161E1,-3.605526090E-1,2.342599183E-1,-2.800734639E-1
1.796476390E1,-3.487937748E-1,1.673721522E-1,-2.829749882E-1
1.797391614E1,-3.426853120E-1,1.149920002E-1,-3.049654961E-1
1.798306838E1,-3.515425920E-1,9.132166207E-2,-3.527642787E-1
1.799222062E1,-3.593308926E-1,9.345962852E-2,-4.187358022E-1
1.800137292E1,-3.562766612E-1,1.293469071E-1,-4.816530645E-1
1.801052515E1,-3.425326049E-1,2.032594234E-1,-5.262449384E-1
1.801967739E1,-3.316900730E-1,3.092414141E-1,-5.462501645E-1
1.802882963E1,-3.364241421E-1,4.309527278E-1,-5.531222224E-1
1.803798187E1,-3.410054743E-1,5.424323678E-1,-5.624375939E-1
1.804713417E1,-3.113794029E-1,6.074876189E-1,-5.769452453E-1
1.805627364E1,-2.102841735E-1,5.938962698E-1,-5.596888065E-1
1.806543864E1,-2.901524492E-2,4.672981501E-1,-4.563029110E-1
1.807459088E1,2.166980654E-1,2.750339806E-1,-2.779355049E-1
1.808374318E1,4.756973088E-1,9.193251282E-2,-6.215370819E-2
1.809289542E1,7.015580535E-1,-2.443389036E-2,1.354553849E-1
1.810204765E1,8.799254894E-1,-5.787777901E-2,3.016058207E-1
1.811118719E1,1.008966923E0,-1.130067464E-2,4.442386627E-1
1.812035219E1,1.116781473E0,6.948387623E-2,5.743491650E-1
1.812950442E1,1.267966151E0,7.314895838E-2,6.809419990E-1
1.813865667E1,1.523147583E0,-4.657710344E-2,7.617265582E-1
1.814780896E1,1.853768706E0,-2.261662036E-1,8.197570443E-1
1.815696120E1,2.173241854E0,-4.098785222E-1,8.586985469E-1
1.816610068E1,2.441098452E0,-6.074876189E-1,8.974873424E-1
1.817526568E1,2.676579952E0,-8.383878469E-1,9.457442760E-1
1.818441792E1,2.911450863E0,-1.093874693E0,1.009730577E0
1.819355745E1,3.104631186E0,-1.285986185E0,1.079061627E0
1.820272245E1,3.181597948E0,-1.365243673E0,1.140757203E0
1.821187469E1,3.103714943E0,-1.435796499E0,1.170688748E0
1.822101422E1,2.895721436E0,-1.611415029E0,1.162136912E0
1.823017922E1,2.636722088E0,-1.796349049E0,1.140909910E0
1.823933146E1,2.439265728E0,-1.906912446E0,1.141368151E0
1.824847094E1,2.391314268E0,-1.946617484E0,1.191152096E0
1.825763599E1,2.463546991E0,-1.925237894E0,1.260635972E0
1.826678823E1,2.570750713E0,-1.882631302E0,1.319430113E0
1.827592771E1,2.656727552E0,-1.851019859E0,1.353484869E0
1.828509271E1,2.696279764E0,-1.869650722E0,1.350125194E0
1.829424500E1,2.701319218E0,-1.927070379E0,1.298355818E0
1.830338448E1,2.695058107E0,-2.004647970E0,1.197566032E0
1.831254948E1,2.687727928E0,-2.085279942E0,1.065775752E0
1.832170172E1,2.682535648E0,-2.125137568E0,9.142856598E-1
1.833084125E1,2.632140875E0,-2.096733332E0,7.936432958E-1
1.834000625E1,2.529824018E0,-1.990903974E0,7.524111271E-1
1.834915849E1,2.422925711E0,-1.782452345E0,7.771504521E-1
1.835831073E1,2.349471331E0,-1.523758531E0,8.516737819E-1
1.836746297E1,2.323815584E0,-1.243226886E0,9.422318935E-1
1.837661526E1,2.333436489E0,-9.620844126E-1,1.018435121E0
1.838576750E1,2.352830887E0,-7.389724851E-1,1.069746256E0
1.839491974E1,2.346111536E0,-5.489989519E-1,1.082268596E0
1.840407198E1,2.299839973E0,-3.962871730E-1,1.056918502E0
1.841322427E1,2.213252306E0,-2.693836391E-1,1.001178622E0
1.842237651E1,2.109408379E0,-1.980672181E-1,9.326110482E-1
1.843152875E1,2.011214495E0,-2.179197669E-1,8.672503829E-1
1.844066828E1,1.912410021E0,-2.899997234E-1,7.915053368E-1
1.844983328E1,1.804900885E0,-3.771981895E-1,7.078192830E-1
1.845898552E1,1.690367103E0,-4.880669713E-1,6.282563806E-1
1.846813776E1,1.577360392E0,-6.397097707E-1,5.604523420E-1
1.847729005E1,1.476265073E0,-8.251019120E-1,5.030327439E-1
1.848644229E1,1.382041931E0,-1.006218195E0,4.494308829E-1
1.849559453E1,1.284306407E0,-1.154195905E0,3.889569938E-1
1.850474677E1,1.169619799E0,-1.254680276E0,3.222219348E-1
1.851389906E1,1.025459886E0,-1.304617047E0,2.547233105E-1
1.852305130E1,8.570187092E-1,-1.319582820E0,1.899735034E-1
1.853220354E1,6.722373962E-1,-1.311030984E0,1.313321590E-1
1.854135578E1,4.808894992E-1,-1.271783948E0,9.086353332E-2
1.855050802E1,2.872509360E-1,-1.175270081E0,6.245913357E-2
1.855966031E1,9.071081877E-2,-1.025612593E0,4.153761268E-2
1.856881255E1,-1.267508119E-1,-8.289197087E-1,2.764083818E-2
1.857796479E1,-3.603998721E-1,-6.232169271E-1,2.092151903E-2
1.858711708E1,-5.861079693E-1,-4.524851143E-1,1.801999472E-2
1.859626932E1,-7.855495811E-1,-2.852656841E-1,9.773556143E-3
1.860542156E1,-9.666658044E-1,-1.356080920E-1,-8.093725890E-3
1.861457380E1,-1.161067963E0,-3.176405653E-2,-3.283303976E-2
1.862372609E1,-1.396702290E0,1.236965694E-2,-6.077930331E-2
1.863287833E1,-1.654785275E0,5.803049076E-3,-1.064401343E-1
1.864203057E1,-1.897444248E0,1.649287529E-2,-1.779092699E-1
1.865118281E1,-2.052141428E0,6.826218218E-2,-2.919849753E-1
1.866033510E1,-1.957460046E0,1.685938388E-1,-4.373666346E-1
1.866948734E1,-1.449540496E0,4.362976551E-1,-5.641174316E-1
1.867863958E1,-5.702258945E-1,8.345700502E-1,-6.363501549E-1
1.868777911E1,4.886778072E-2,4.679090083E-1,-6.511631608E-1
1.869694411E1,1.191152167E-2,-5.650337338E-1,-5.236487985E-1
1.870609635E1,-4.156815708E-1,-5.916055441E-1,-3.684936166E-1
1.871523583E1,-1.198634982E0,1.930277348E-1,-4.998257756E-1
1.872440083E1,-1.676775694E0,8.635852933E-1,-6.453601122E-1
1.873355312E1,-1.457328796E0,1.264148355E0,-4.578300118E-1
1.874269260E1,-1.237271070E0,1.456259847E0,-1.314848661E-1
1.875185760E1,-1.127013206E0,1.077687263E0,8.872556686E-2
1.876100989E1,-1.173895717E0,9.497147799E-1,2.455606014E-1
1.877014937E1,-1.503600478E0,1.593853235E0,3.501681983E-1
1.877931437E1,-1.805206418E0,2.116891146E0,2.950392365E-1
1.878846661E1,-1.960819721E0,2.041146040E0,1.078145429E-1
1.879760614E1,-2.054432154E0,1.559340358E0,-9.880454093E-2
1.880677114E1,-2.067565203E0,1.033248186E0,-2.554868758E-1
1.881592338E1,-2.043895006E0,5.549547076E-1,-3.411581814E-1
1.882506292E1,-1.961735964E0,5.848862603E-2,-3.775036037E-1
1.883422792E1,-1.801541328E0,-3.999522328E-1,-4.248442650E-1
1.884338015E1,-1.580872655E0,-6.804838181E-1,-4.231644273E-1
1.885251963E1,-1.384485364E0,-7.670714259E-1,-3.110739589E-1
1.886168463E1,-1.314695954E0,-7.296570539E-1,-1.322484314E-1
1.887083693E1,-1.355011940E0,-5.842754245E-1,5.054761097E-2
1.887997640E1,-1.472905397E0,-2.580829561E-1,1.557660550E-1
1.888914140E1,-1.610651493E0,2.018850148E-1,1.159082651E-1
1.889829364E1,-1.704263806E0,6.959077120E-1,-3.710897267E-2
1.890744594E1,-1.737249613E0,1.161678791E0,-2.221956849E-1
1.891659818E1,-1.710219622E0,1.521925926E0,-3.889569938E-1
1.892575042E1,-1.662726283E0,1.804137349E0,-5.225798488E-1
1.893488995E1,-1.620425105E0,2.011214495E0,-6.134433746E-1
1.894405495E1,-1.598129153E0,2.146669865E0,-6.525375843E-1
1.895320719E1,-1.589882731E0,2.183473587E0,-6.407787800E-1
1.896235943E1,-1.563921690E0,2.160719395E0,-6.003101468E-1
1.897151172E1,-1.540556788E0,2.083752632E0,-5.573981404E-1
1.898066396E1,-1.538113356E0,1.923557997E0,-5.315898061E-1
1.898981620E1,-1.560562015E0,1.812842011E0,-5.120427012E-1
1.899896844E1,-1.599656224E0,1.772984147E0,-5.056288242E-1
1.900812073E1,-1.630045891E0,1.717549801E0,-5.137225389E-1
1.901727297E1,-1.644248128E0,1.654785275E0,-5.285356045E-1
1.902642521E1,-1.635696292E0,1.599350810E0,-5.259394646E-1
1.903557745E1,-1.617523551E0,1.627755284E0,-4.976878166E-1
1.904472974E1,-1.615996480E0,1.707470775E0,-4.587462842E-1
1.905388198E1,-1.626838923E0,1.732820988E0,-4.349232614E-1
1.906303422E1,-1.614469290E0,1.729919434E0,-4.231644273E-1
1.907218646E1,-1.562089205E0,1.669750929E0,-4.191939235E-1
1.908133875E1,-1.498102903E0,1.541473031E0,-4.173613787E-1
1.909049099E1,-1.446486354E0,1.337908268E0,-4.230117202E-1
1.909964323E1,-1.378224134E0,1.095096469E0,-4.346178174E-1
1.910879552E1,-1.294843435E0,8.631271720E-1,-4.497362971E-1
1.911794776E1,-1.204590797E0,6.969767213E-1,-4.550811946E-1
1.912710000E1,-1.125638843E0,6.193991303E-1,-4.379774928E-1
1.913625224E1,-1.059056401E0,5.935907960E-1,-4.100312293E-1
1.914540453E1,-9.991934299E-1,5.883986354E-1,-3.790307343E-1
1.915455677E1,-9.225320816E-1,6.048914790E-1,-3.614688516E-1
1.916370901E1,-8.191461563E-1,6.267293096E-1,-3.619270027E-1
1.917286130E1,-7.130114436E-1,6.293253899E-1,-3.813214004E-1
1.918201354E1,-6.374191046E-1,5.902311802E-1,-4.039227366E-1
1.919116578E1,-5.883986354E-1,5.636593103E-1,-4.187358022E-1
1.920031802E1,-5.393781066E-1,5.908420086E-1,-4.190412164E-1
1.920947031E1,-4.920374751E-1,6.139014959E-1,-4.065188468E-1
1.921862255E1,-4.648547769E-1,5.807630420E-1,-3.874298632E-1
1.922777479E1,-4.378247857E-1,5.195255876E-1,-3.596363366E-1
1.923692703E1,-4.092676640E-1,4.912739098E-1,-3.374931216E-1
1.924607932E1,-3.909422457E-1,4.859289825E-1,-3.220692277E-1
1.925523156E1,-3.869717419E-1,4.564556181E-1,-3.164188862E-1
1.926438380E1,-3.910949528E-1,3.643703759E-1,-3.182514310E-1
1.927353609E1,-3.840702176E-1,2.040229887E-1,-3.180987239E-1
1.928268833E1,-3.695625961E-1,2.336490713E-2,-3.161134422E-1
1.929184057E1,-3.651339412E-1,-1.267508119E-1,-3.202366829E-1
1.930099281E1,-3.805578351E-1,-1.895153672E-1,-3.497100472E-1
1.931014510E1,-3.915531039E-1,-1.566823274E-1,-3.967452943E-1
1.931929734E1,-3.875826001E-1,-9.895725548E-2,-4.504998624E-1
1.932844958E1,-3.681881726E-1,-6.047387794E-2,-4.845545888E-1
1.933760187E1,-3.504736125E-1,-3.405473381E-2,-4.967715442E-1
1.934675411E1,-3.457395434E-1,6.872031838E-3,-5.041016936E-1
1.935590635E1,-3.445178568E-1,6.948387623E-2,-5.187620521E-1
1.936505859E1,-3.377985358E-1,1.605001241E-1,-5.273138881E-1
1.937421088E1,-3.258870244E-1,2.744231224E-1,-5.383091569E-1
1.938336312E1,-3.022166789E-1,3.881934285E-1,-5.491516590E-1
1.939251536E1,-2.490729690E-1,4.558447599E-1,-5.604523420E-1
1.940165489E1,-1.545443535E-1,4.271349311E-1,-5.358657837E-1
1.941081989E1,-1.068982761E-3,3.113794029E-1,-4.572191834E-1
1.941997213E1,1.725643575E-1,1.427855492E-1,-3.381039500E-1
1.942911166E1,3.261924386E-1,-8.475505561E-2,-1.809635013E-1
1.943827666E1,4.527905285E-1,-3.387148082E-1,-1.023169141E-2
1.944742890E1,5.741963983E-1,-5.578562617E-1,1.666085869E-1
1.945656838E1,7.044596076E-1,-6.661289334E-1,3.416163325E-1
1.946573338E1,8.535063267E-1,-6.519267559E-1,4.953971207E-1
1.947488568E1,1.052489877E0,-6.180247068E-1,6.122216582E-1
1.948402515E1,1.325385809E0,-6.407787800E-1,6.934643388E-1
1.949319015E1,1.664100647E0,-7.160657048E-1,7.508839965E-1
1.950234245E1,2.048323631E0,-8.223531246E-1,8.086090684E-1
1.951148193E1,2.436058760E0,-9.408574700E-1,8.829796910E-1
1.952064692E1,2.738733768E0,-1.056307673E0,9.749122262E-1
1.952979916E1,2.907785654E0,-1.183974743E0,1.076312900E0
1.953893870E1,2.951155901E0,-1.387844920E0,1.154348612E0
1.954810370E1,2.923973083E0,-1.693879485E0,1.199551344E0
1.955725594E1,2.856474400E0,-2.080240250E0,1.223221660E0
1.956639547E1,2.766680002E0,-2.393604994E0,1.236812949E0
1.957556047E1,2.701166630E0,-2.573804855E0,1.246891975E0
1.958471271E1,2.689102411E0,-2.613662720E0,1.254832983E0
1.959385224E1,2.716895819E0,-2.564642191E0,1.264759302E0
1.960301724E1,2.757364511E0,-2.466448545E0,1.274074674E0
1.961216948E1,2.794320822E0,-2.327175379E0,1.270562291E0
1.962130901E1,2.817074776E0,-2.159803152E0,1.242005229E0
1.963047401E1,2.830055237E0,-2.006785870E0,1.186418056E0
1.963962625E1,2.847159147E0,-1.876370072E0,1.100899458E0
1.964876573E1,2.874952555E0,-1.760919929E0,1.005149126E0
1.965793073E1,2.896790504E0,-1.672194362E0,8.965710402E-1
1.966708302E1,2.878617764E0,-1.595991135E0,7.997517586E-1
1.967623526E1,2.805774212E0,-1.487260342E0,7.455390692E-1
1.968538750E1,2.690782070E0,-1.315612316E0,7.556180358E-1
1.969453979E1,2.559144497E0,-1.104717255E0,8.325847983E-1
1.970369203E1,2.449802876E0,-8.538117409E-1,9.391776323E-1
1.971284427E1,2.384594917E0,-6.219952106E-1,1.038134933E0
1.972199651E1,2.365505934E0,-4.494308829E-1,1.112352848E0
1.973114880E1,2.367949486E0,-3.281776905E-1,1.155570269E0
1.974030104E1,2.373141527E0,-2.895416021E-1,1.168398142E0
1.974945328E1,2.354205370E0,-3.084778786E-1,1.149919987E0
1.975859281E1,2.307933569E0,-3.484883606E-1,1.101968408E0
1.976775781E1,2.238755226E0,-3.723114133E-1,1.039356589E0
1.977691005E1,2.147738934E0,-3.654393852E-1,9.550597072E-1
1.978604958E1,2.036717415E0,-3.703261614E-1,8.583931327E-1
1.979521458E1,1.903552771E0,-3.914003670E-1,7.524111271E-1
1.980436682E1,1.753437042E0,-4.521796703E-1,6.487197876E-1
1.981351906E1,1.608055353E0,-5.642701387E-1,5.604523420E-1
1.982267135E1,1.480999231E0,-7.195780873E-1,4.987567961E-1
1.983182359E1,1.380209327E0,-8.718317747E-1,4.486673176E-1
1.984097583E1,1.297592282E0,-9.962918758E-1,4.078932703E-1
1.985012812E1,1.205965161E0,-1.076007485E0,3.730749488E-1
1.985928036E1,1.093111157E0,-1.120904684E0,3.399364948E-1
1.986843260E1,9.552124143E-1,-1.118919492E0,3.023693860E-1
1.987758489E1,7.960866690E-1,-1.071731567E0,2.553341687E-1
1.988673713E1,6.253548861E-1,-9.950701594E-1,2.009687424E-1
1.989588937E1,4.534013867E-1,-8.997780085E-1,1.514901221E-1
1.990504161E1,2.922904193E-1,-7.857022882E-1,1.105633527E-1
1.991419390E1,1.314848661E-1,-6.397097707E-1,6.963659078E-2
1.992334614E1,-4.428642616E-2,-4.628695250E-1,3.038965166E-2
1.993249838E1,-2.443388999E-1,-2.753393948E-1,-4.581354442E-4
1.994165068E1,-4.546230733E-1,-1.137702987E-1,-2.290677279E-2
1.995080292E1,-6.473453641E-1,1.664558798E-2,-3.894151375E-2
1.995995515E1,-8.240329623E-1,1.337755471E-1,-5.619794875E-2
1.996910739E1,-1.000415087E0,2.388412803E-1,-8.979454637E-2
1.997825969E1,-1.180767775E0,2.950392365E-1,-1.382041872E-1
1.998741192E1,-1.373490095E0,2.909159958E-1,-1.908897758E-1
1.999656417E1,-1.602405071E0,2.794626355E-1,-2.596100867E-1
2.000571646E1,-1.856517553E0,2.811424434E-1,-3.439069986E-1
2.001486870E1,-2.032136202E0,2.568612695E-1,-4.575245976E-1
2.002402094E1,-1.956238389E0,2.312056869E-1,-5.888567567E-1
2.003316047E1,-1.511999726E0,2.942756712E-1,-6.755970716E-1
2.004232547E1,-7.411104441E-1,5.943543911E-1,-6.598677635E-1
2.005147771E1,4.581354442E-4,7.997517586E-1,-5.467082858E-1
2.006061724E1,2.632751763E-1,2.663294077E-1,-3.594835997E-1
2.006978224E1,2.841966748E-1,-4.427115619E-1,-1.542389393E-1
2.007893448E1,1.985253543E-1,-1.710372269E-1,-1.586675793E-1
2.008807401E1,-4.150707126E-1,6.612421572E-2,-4.294256270E-1
2.009723901E1,-9.772028923E-1,-2.489202619E-1,-6.597150564E-1
2.010639125E1,-7.719582319E-1,-3.280249834E-1,-6.235223413E-1
2.011553078E1,-5.525113344E-1,-1.879882365E-1,-3.326063454E-1
2.012469578E1,-9.057337642E-1,7.559235096E-1,3.252761811E-2
2.013384802E1,-1.480540991E0,2.022515297E0,2.547233105E-1
2.014298750E1,-1.949060917E0,2.843952179E0,2.959555089E-1
2.015215255E1,-2.187596798E0,2.860750437E0,2.246390730E-1
2.016130479E1,-2.134758472E0,2.327022552E0,9.666658193E-2
2.017044427E1,-1.852088928E0,1.720145941E0,-2.000524849E-2
2.017960927E1,-1.649287581E0,1.197718740E0,-1.140757278E-1
2.018876156E1,-1.679219127E0,7.272136807E-1,-2.220429778E-1
2.019790104E1,-1.785048366E0,1.545443535E-1,-3.860554695E-1
2.020706604E1,-1.707928896E0,-4.320217371E-1,-6.348230243E-1
2.021621833E1,-1.428313613E0,-8.118160367E-1,-7.974610925E-1
2.022535781E1,-1.197260618E0,-9.327637553E-1,-6.943806410E-1
2.023452281E1,-1.179393291E0,-8.533536196E-1,-4.170559645E-1
2.024367510E1,-1.270562291E0,-6.420004964E-1,-1.217113137E-1
2.025281458E1,-1.378682256E0,-2.692309320E-1,5.436540768E-2
2.026197958E1,-1.461146593E0,6.581879407E-2,5.604523420E-2
2.027113187E1,-1.548497796E0,3.067980409E-1,-7.482878864E-2
2.028027135E1,-1.608971715E0,4.818057716E-1,-2.805316150E-1
2.028943635E1,-1.621341348E0,6.604785919E-1,-5.044071078E-1
2.029858859E1,-1.599808931E0,8.370134830E-1,-6.917845011E-1
2.030772812E1,-1.533532023E0,9.891144037E-1,-8.130376935E-1
2.031689312E1,-1.444195628E0,1.081199646E0,-8.722898960E-1
2.032604536E1,-1.365243673E0,1.149461865E0,-8.649597168E-1
2.033519765E1,-1.326607585E0,1.282931924E0,-7.928797603E-1
2.034434989E1,-1.312252641E0,1.414264083E0,-6.749862432E-1
2.035350213E1,-1.316528559E0,1.487718463E0,-5.448757410E-1
2.036265443E1,-1.345543742E0,1.579040170E0,-4.358395338E-1
2.037180666E1,-1.394564271E0,1.649134874E0,-3.794888556E-1
2.038095890E1,-1.406170368E0,1.639514089E0,-3.594835997E-1
2.039011120E1,-1.416249394E0,1.653868914E0,-3.668137789E-1
2.039926344E1,-1.457176089E0,1.704263806E0,-3.866663277E-1
2.040841568E1,-1.491688967E0,1.718618751E0,-4.095730782E-1
2.041756797E1,-1.505738497E0,1.699377060E0,-4.152234197E-1
2.042672021E1,-1.481457353E0,1.594005942E0,-4.051444530E-1
2.043587245E1,-1.434574842E0,1.441599488E0,-3.888042867E-1
2.044502469E1,-1.392884493E0,1.264606595E0,-3.852919042E-1
2.045417698E1,-1.363411069E0,1.130831003E0,-3.917058110E-1
2.046332922E1,-1.348445296E0,1.116323352E0,-3.990359604E-1
2.047248146E1,-1.352110386E0,1.183211088E0,-4.106420577E-1
2.048163375E1,-1.352415800E0,1.221694469E0,-4.216373265E-1
2.049078599E1,-1.327829242E0,1.235591292E0,-4.190412164E-1
2.049993823E1,-1.293163657E0,1.214058876E0,-4.034646153E-1
2.050909052E1,-1.269187927E0,1.137703061E0,-3.910949528E-1
2.051824276E1,-1.235743999E0,1.055849433E0,-3.822376728E-1
2.052739500E1,-1.200162172E0,1.001025915E0,-3.782671690E-1
2.053654729E1,-1.154348612E0,9.130639434E-1,-3.810159862E-1
2.054569953E1,-1.093569279E0,8.069292307E-1,-3.962871730E-1
2.055485177E1,-1.042105436E0,7.076665759E-1,-4.111002088E-1
2.056400406E1,-1.000415087E0,6.575770974E-1,-4.169032574E-1
2.057315630E1,-9.460496902E-1,6.397097707E-1,-4.062134326E-1
2.058230854E1,-8.849649429E-1,6.193991303E-1,-3.898732662E-1
2.059146083E1,-8.391514421E-1,6.050441861E-1,-3.735330999E-1
2.060061307E1,-8.244910836E-1,6.056550741E-1,-3.710896969E-1
2.060976531E1,-8.324320912E-1,6.177192926E-1,-3.828485310E-1
2.061891760E1,-8.223531246E-1,6.717792749E-1,-3.979669809E-1
2.062806984E1,-7.681404352E-1,7.447755337E-1,-3.994941115E-1
2.063722208E1,-7.018635273E-1,7.672241330E-1,-3.953709006E-1
2.064637437E1,-6.647545099E-1,6.913263798E-1,-3.962871730E-1
2.065552661E1,-6.308525205E-1,5.491516590E-1,-4.002576768E-1
2.066467885E1,-5.981721878E-1,4.046863019E-1,-4.004103839E-1
2.067383114E1,-5.842754245E-1,2.944283783E-1,-3.984251320E-1
2.068298338E1,-5.830537081E-1,2.305948436E-1,-3.941491842E-1
2.069213562E1,-5.818319917E-1,2.160872221E-1,-3.843756318E-1
2.070128792E1,-5.774033666E-1,2.023431510E-1,-3.660502136E-1
2.071044015E1,-5.790832043E-1,1.716480851E-1,-3.440597057E-1
2.071959239E1,-5.925218463E-1,1.679829955E-1,-3.379512429E-1
2.072874463E1,-6.064186096E-1,2.040229887E-1,-3.662029207E-1
2.073789692E1,-6.193991303E-1,2.441861928E-1,-4.231644273E-1
2.074704916E1,-6.189410090E-1,2.699944973E-1,-4.781406820E-1
2.075620140E1,-6.033644080E-1,2.825168669E-1,-5.103628635E-1
2.076535370E1,-5.885513425E-1,2.843494117E-1,-5.187620521E-1
2.077450594E1,-5.824428797E-1,2.794626355E-1,-5.102101564E-1
2.078365818E1,-5.793886185E-1,2.777827978E-1,-4.943281412E-1
2.079281047E1,-5.728220344E-1,3.025220931E-1,-4.802786708E-1
2.080196271E1,-5.499152541E-1,3.520007432E-1,-4.837910235E-1
2.081111495E1,-5.060869455E-1,4.242334068E-1,-5.152496696E-1
2.082026724E1,-4.256078303E-1,5.494571328E-1,-5.538857579E-1
2.082941948E1,-3.049654961E-1,7.255338430E-1,-5.812211633E-1
2.083857172E1,-1.641651988E-1,8.215895891E-1,-5.711421967E-1
2.084772401E1,9.926267900E-3,6.920899153E-1,-4.915793240E-1
2.085686349E1,2.258607745E-1,4.001049399E-1,-3.727695346E-1
2.086602849E1,4.320217371E-1,3.023693897E-2,-2.469350100E-1
2.087518078E1,5.780141950E-1,-3.662029207E-1,-1.211004704E-1
2.088433302E1,6.519267559E-1,-7.010999322E-1,2.199050039E-2
2.089348526E1,6.586460471E-1,-8.994725943E-1,1.687465608E-1
2.090263755E1,6.352811456E-1,-9.055810571E-1,2.968717813E-1
2.091177703E1,6.577298045E-1,-7.629482150E-1,4.013266563E-1
2.092094203E1,7.951704264E-1,-6.056550741E-1,5.034908652E-1
2.093009432E1,1.061041713E0,-5.378510356E-1,6.103891134E-1
2.093924656E1,1.410904408E0,-5.682406425E-1,7.221741676E-1
2.094839880E1,1.778481841E0,-6.383354068E-1,8.267817497E-1
2.095755109E1,2.130482435E0,-7.603521347E-1,9.136747718E-1
2.096670333E1,2.464616060E0,-1.014464617E0,9.827005267E-1
2.097585557E1,2.788212299E0,-1.453052878E0,1.045770526E0
2.098500786E1,3.102340460E0,-1.884921908E0,1.131441832E0
2.099414734E1,3.381192207E0,-1.965248346E0,1.249946237E0
2.100331234E1,3.536805630E0,-1.760919929E0,1.350430608E0
2.101246463E1,3.469306946E0,-1.597212911E0,1.360356808E0
2.102160411E1,3.183888674E0,-1.482831717E0,1.279419541E0
2.103076911E1,2.848533392E0,-1.360814929E0,1.160304427E0
2.103992140E1,2.661614180E0,-1.293469071E0,1.061957955E0
2.104906088E1,2.668180943E0,-1.322484374E0,1.035691500E0
2.105822588E1,2.802109003E0,-1.390135646E0,1.098456025E0
2.106737818E1,2.960929394E0,-1.414722204E0,1.225206852E0
2.107651765E1,3.056985140E0,-1.401436329E0,1.355317354E0
2.108568265E1,3.072867155E0,-1.432894945E0,1.438545346E0
2.109483495E1,3.041713953E0,-1.520398855E0,1.437170863E0
2.110397442E1,3.008880854E0,-1.606986403E0,1.349819779E0
2.111313942E1,2.980018377E0,-1.688229084E0,1.203063726E0
2.112229172E1,2.925347567E0,-1.739845753E0,1.006065488E0
2.113144396E1,2.844715595E0,-1.734653473E0,8.095253110E-1
2.114059620E1,2.731403589E0,-1.688839912E0,6.833853722E-1
2.114974849E1,2.606637955E0,-1.584995866E0,6.519267559E-1
2.115890073E1,2.507222652E0,-1.369825006E0,7.030851841E-1
2.116805297E1,2.452246428E0,-1.126555085E0,8.124268651E-1
2.117720526E1,2.436669827E0,-8.809944391E-1,9.268079996E-1
2.118635750E1,2.434531689E0,-6.829272509E-1,1.015838981E0
2.119550974E1,2.419413328E0,-5.430431962E-1,1.074938416E0
2.120466203E1,2.375585079E0,-4.717268050E-1,1.102579355E0
2.121381427E1,2.292204380E0,-4.563029110E-1,1.094027400E0
2.122296651E1,2.174005508E0,-4.590517282E-1,1.051115394E0
2.123211880E1,2.043284178E0,-4.787515402E-1,9.842276573E-1
2.124125828E1,1.929971933E0,-5.280774832E-1,9.035958052E-1
2.125042333E1,1.838955641E0,-5.708367825E-1,8.180772066E-1
2.125957557E1,1.767639279E0,-6.369609833E-1,7.388197780E-1
2.126872781E1,1.705943704E0,-7.336275578E-1,6.748335361E-1
2.127788010E1,1.638292313E0,-8.664868474E-1,6.201626658E-1
2.128703234E1,1.542389274E0,-1.015075445E0,5.751127005E-1
2.129618458E1,1.404948711E0,-1.123958945E0,5.430431962E-1
2.130533687E1,1.245212078E0,-1.186418056E0,5.144860744E-1
2.131448911E1,1.085475564E0,-1.232537031E0,4.767662883E-1
2.132364135E1,9.298622608E-1,-1.232384324E0,4.286620617E-1
2.133279364E1,7.760814428E-1,-1.181073189E0,3.687990308E-1
2.134194588E1,6.259657145E-1,-1.109298587E0,2.944283783E-1
2.135109812E1,4.766135812E-1,-1.057376623E0,2.279987335E-1
2.136025042E1,3.315373361E-1,-1.011410356E0,1.792836636E-1
2.136940265E1,1.826433241E-1,-9.646805525E-1,1.472141892E-1
2.137855489E1,2.321219631E-2,-8.890882134E-1,1.246128380E-1
2.138770719E1,-1.392731816E-1,-7.773031592E-1,1.068982705E-1
2.139685943E1,-2.829749882E-1,-6.149705052E-1,8.612946421E-2
2.140601166E1,-3.918585181E-1,-4.278984964E-1,6.276455522E-2
2.141516396E1,-4.756973088E-1,-2.009687424E-1,4.062134400E-2
2.142431620E1,-5.612159371E-1,-1.527118147E-3,2.275406010E-2
2.143346844E1,-6.702521443E-1,1.276670843E-1,1.756185852E-2
2.144262073E1,-7.924215794E-1,2.173089087E-1,2.458660305E-2
2.145177297E1,-8.996253014E-1,2.811424434E-1,4.092676565E-2
2.146092521E1,-9.967499971E-1,3.116848171E-1,6.154286116E-2
2.147007750E1,-1.106397152E0,2.838912606E-1,7.299624383E-2
2.147922974E1,-1.228108406E0,1.853921413E-1,6.245913357E-2
2.148838203E1,-1.356080890E0,3.451287001E-2,4.825693369E-2
2.149753427E1,-1.496575832E0,-1.061347127E-1,4.123219103E-2
2.150668651E1,-1.665169597E0,-2.142546773E-1,3.588727489E-2
2.151582604E1,-1.799250603E0,-2.403683960E-1,2.641914412E-2
2.152499104E1,-1.473669052E0,-2.495311052E-1,1.893626526E-2
2.153414328E1,-5.238015056E-1,-2.684673667E-1,3.603998944E-2
2.154328281E1,2.246390730E-1,-3.133646548E-1,1.085781008E-1
2.155244781E1,2.652604282E-1,-3.133646548E-1,1.050657257E-1
2.156160005E1,1.163664013E-1,-1.000109673E0,-1.238492802E-1
2.157073958E1,3.316900730E-1,-2.059318781E0,-4.416425824E-1
2.157990458E1,8.884773254E-1,-8.330429196E-1,-7.072083950E-1
2.158905687E1,1.000873208E0,1.069898963E0,-9.336800575E-1
2.159819635E1,1.714953631E-1,4.624113739E-1,-1.055238605E0
2.160736135E1,-6.853706241E-1,-8.843541145E-1,-9.906415343E-1
2.161651364E1,-7.713474035E-1,-6.878139973E-1,-6.238277555E-1
2.162565312E1,-7.869240046E-1,8.895463347E-1,-7.360709459E-2
2.163481812E1,-1.066997409E0,2.163620949E0,3.985778391E-1
2.164397042E1,-1.397923946E0,3.137922287E0,6.716265678E-1
2.165310989E1,-1.705027461E0,3.228480577E0,6.974348426E-1
2.166227489E1,-1.616760015E0,2.137049198E0,4.650074840E-1
2.167142719E1,-1.315459609E0,9.875873327E-1,1.101052165E-1
2.168056666E1,-1.261399627E0,5.349494815E-1,-2.298312783E-1
2.168973166E1,-1.364327312E0,2.565558553E-1,-5.297572613E-1
2.169888396E1,-1.537044406E0,1.863084175E-2,-7.188144922E-1
2.170802344E1,-1.522842169E0,-1.331647038E-1,-7.156075835E-1
2.171718849E1,-1.302020907E0,-3.026748300E-1,-5.215108395E-1
2.172634073E1,-1.237423778E0,-4.278984964E-1,-2.205158621E-1
2.173548021E1,-1.433658481E0,-3.976615667E-1,5.405998230E-2
2.174464526E1,-1.646233320E0,-1.925695986E-1,1.940967143E-1
2.175379750E1,-1.687312841E0,5.375456065E-2,1.820324808E-1
2.176293698E1,-1.566975951E0,3.042019308E-1,6.917845458E-2
2.177210203E1,-1.453052878E0,5.370874405E-1,-9.513945878E-2
2.178125427E1,-1.438239813E0,6.224533319E-1,-2.678565085E-1
2.179040651E1,-1.463590026E0,5.688515306E-1,-4.317162931E-1
2.179955880E1,-1.461146593E0,5.537330508E-1,-5.775560737E-1
2.180871104E1,-1.420830727E0,5.931326747E-1,-6.933116317E-1
2.181786328E1,-1.383110881E0,6.212316751E-1,-7.695148587E-1
2.182701557E1,-1.352721214E0,6.097782850E-1,-7.997517586E-1
2.183616781E1,-1.322637081E0,6.111527085E-1,-7.666133046E-1
2.184532010E1,-1.309809208E0,6.505523324E-1,-6.847597957E-1
2.185447234E1,-1.329203606E0,7.058340311E-1,-5.859552622E-1
2.186362458E1,-1.354706526E0,7.664605975E-1,-4.928010404E-1
2.187277687E1,-1.333632231E0,8.438854814E-1,-4.126273096E-1
2.188192911E1,-1.306907654E0,9.292513728E-1,-3.545968235E-1
2.189108135E1,-1.317444801E0,9.889616966E-1,-3.289412558E-1
2.190023364E1,-1.330578089E0,1.023779988E0,-3.414636254E-1
2.190938588E1,-1.312863469E0,1.061652541E0,-3.822376728E-1
2.191853812E1,-1.286444306E0,1.090362310E0,-4.419479966E-1
2.192769042E1,-1.288887739E0,1.132358074E0,-5.079194903E-1
2.193684265E1,-1.298050404E0,1.088071704E0,-5.769452453E-1
2.194599495E1,-1.303395391E0,1.011868477E0,-6.331431866E-1
2.195514719E1,-1.332105160E0,9.912523627E-1,-6.612421870E-1
2.196429942E1,-1.353332043E0,1.023779988E0,-6.615476012E-1
2.197345172E1,-1.304769754E0,1.107007980E0,-6.478035450E-1
2.198260396E1,-1.244601250E0,1.202452779E0,-6.267293096E-1
2.199175620E1,-1.246128440E0,1.224748731E0,-6.077930331E-1
2.200090849E1,-1.258345366E0,1.192373872E0,-5.888567567E-1
2.201006073E1,-1.234827757E0,1.178018928E0,-5.593833923E-1
2.201921297E1,-1.199856758E0,1.095096469E0,-5.150969625E-1
2.202836526E1,-1.172521353E0,9.753703475E-1,-4.640912116E-1
2.203751750E1,-1.143506050E0,8.255600929E-1,-4.179722369E-1
2.204666979E1,-1.096165419E0,7.305732965E-1,-3.749074936E-1
2.205582203E1,-1.047908425E0,6.885775924E-1,-3.243598938E-1
2.206497427E1,-1.008661509E0,5.587725043E-1,-2.672456801E-1
2.207412656E1,-9.674293399E-1,3.897205591E-1,-2.148655206E-1
2.208327880E1,-9.237537384E-1,1.885990947E-1,-1.791309565E-1
2.209243104E1,-9.103151560E-1,-2.107422985E-2,-1.782146841E-1
2.210158333E1,-8.938222528E-1,-1.898207814E-1,-1.998997629E-1
2.211073557E1,-8.515210748E-1,-2.994678617E-1,-2.209739983E-1
2.211988781E1,-8.052493930E-1,-3.669664860E-1,-2.339545041E-1
2.212904010E1,-7.988355160E-1,-4.031592011E-1,-2.351761907E-1
2.213819234E1,-8.182299137E-1,-3.633013964E-1,-2.316638231E-1
2.214734463E1,-8.226585388E-1,-2.898470163E-1,-2.365505993E-1
2.215649687E1,-8.386932611E-1,-2.020377368E-1,-2.478512824E-1
2.216564911E1,-8.681666851E-1,-5.925218388E-2,-2.701472044E-1
2.217480140E1,-8.386932611E-1,8.108997345E-2,-2.767138183E-1
2.218395364E1,-7.588250041E-1,1.108687744E-1,-2.632751763E-1
2.219310588E1,-6.948387623E-1,-2.336490713E-2,-2.463241518E-1
2.220225818E1,-6.693359017E-1,-2.589992285E-1,-2.331909388E-1
2.221141042E1,-6.662816405E-1,-4.860817194E-1,-2.200577259E-1
2.222056271E1,-6.617003083E-1,-6.403206587E-1,-2.321219593E-1
2.222971495E1,-6.421532035E-1,-6.933116317E-1,-2.344126403E-1
2.223886719E1,-6.106945276E-1,-6.401679516E-1,-2.244863659E-1
2.224801948E1,-5.693096519E-1,-5.117372870E-1,-2.115058601E-1
2.225717172E1,-5.380037427E-1,-3.597890437E-1,-2.040229887E-1
2.226632396E1,-5.115845799E-1,-2.024958730E-1,-1.953184158E-1
2.227547625E1,-4.929537475E-1,-1.010952219E-1,-1.855448484E-1
2.228462849E1,-4.950917065E-1,-5.467082933E-2,-1.776038408E-1
2.229378078E1,-5.050179958E-1,1.817270555E-2,-1.814216375E-1
2.230293302E1,-5.212054253E-1,1.102579311E-1,-1.901262105E-1
2.231207255E1,-5.425850749E-1,1.614163816E-1,-2.069245130E-1
2.232123755E1,-5.613686442E-1,1.311794519E-1,-2.258607745E-1
2.233038979E1,-5.425850749E-1,2.580829710E-2,-2.141019702E-1
2.233952932E1,-4.773771465E-1,-1.328592747E-1,-1.450762302E-1
2.234869432E1,-3.947600424E-1,-3.161134422E-1,-4.184303805E-2
2.235784656E1,-3.271087110E-1,-4.897467792E-1,5.405998230E-2
2.236698609E1,-2.834331393E-1,-5.877877474E-1,1.123958975E-1
2.237615109E1,-2.631224692E-1,-5.767925382E-1,1.241547018E-1
2.238530333E1,-2.457133085E-1,-4.527905285E-1,1.052184403E-1
2.239445562E1,-2.240282297E-1,-2.412846684E-1,8.689302206E-2
2.240360786E1,-2.058555335E-1,2.137965523E-3,8.200624585E-2
2.241276015E1,-1.937913001E-1,2.336490750E-1,8.933641016E-2
2.242191239E1,-1.901262105E-1,4.504998624E-1,9.452861547E-2
2.243106463E1,-2.035648525E-1,6.458182931E-1,8.704573661E-2
2.244021692E1,-2.183778882E-1,8.035695553E-1,7.101099193E-2
2.244936916E1,-2.272351831E-1,9.029849768E-1,5.192201585E-2
2.245852146E1,-2.231119573E-1,9.275715351E-1,4.153761268E-2
2.246767370E1,-2.057028115E-1,9.144383669E-1,4.230117425E-2
2.247682594E1,-1.808107942E-1,8.855758309E-1,5.405998230E-2
2.248597823E1,-1.562241912E-1,8.223531246E-1,5.971032009E-2
2.249513047E1,-1.404948682E-1,7.108734846E-1,5.268557742E-2
2.250428276E1,-1.342336833E-1,5.787777901E-1,3.023693897E-2
2.251343500E1,-1.227803007E-1,4.726430774E-1,4.123218823E-3
2.252258724E1,-1.061347127E-1,4.088095427E-1,-1.282779220E-2
2.253173953E1,-9.330692142E-2,3.642176688E-1,-1.878355257E-2
2.254089177E1,-1.021642014E-1,3.200839758E-1,-1.878355257E-2
2.255004406E1,-1.278197914E-1,2.918322682E-1,-1.969982497E-2
2.255919630E1,-1.605001241E-1,2.916795611E-1,-2.535016090E-2
2.256834854E1,-1.974563748E-1,2.958027720E-1,-3.787253052E-2
2.257750083E1,-2.322746664E-1,2.727433145E-1,-5.146388337E-2
2.258665307E1,-2.612899244E-1,2.136438340E-1,-5.833591148E-2
2.259580536E1,-2.765611112E-1,1.220167428E-1,-6.016845629E-2
2.260495760E1,-2.701472044E-1,1.710372418E-2,-5.955760926E-2
2.261410984E1,-2.463241518E-1,-9.116895497E-2,-5.375456065E-2
2.262326213E1,-2.110477239E-1,-1.954711229E-1,-4.550812021E-2
2.263241437E1,-1.750077456E-1,-2.982461751E-1,-3.665083647E-2
2.264156667E1,-1.452289373E-1,-3.820849657E-1,-2.901524492E-2
2.265071890E1,-1.269035190E-1,-4.301891923E-1,-2.336490713E-2
2.265987120E1,-1.220167428E-1,-4.379774928E-1,-1.664558798E-2
2.266902344E1,-1.298050433E-1,-4.042281806E-1,-1.053711493E-2
2.267817568E1,-1.353026628E-1,-3.336753249E-1,-9.468132630E-3
2.268732797E1,-1.319430023E-1,-2.215848416E-1,-1.130067464E-2
2.269648021E1,-1.154501289E-1,-6.978929788E-2,-1.618745178E-2
2.270563250E1,-9.590301663E-2,9.407047927E-2,-1.679829881E-2
2.271478474E1,-8.124268800E-2,2.472404242E-1,-1.191152167E-2
2.272393698E1,-7.009471953E-2,3.791834414E-1,-9.468132630E-3
2.273308927E1,-5.986303091E-2,4.763081372E-1,-8.857285604E-3
2.274224151E1,-4.367557913E-2,5.305208564E-1,-1.130067464E-2
2.275139375E1,-2.519745007E-2,5.383091569E-1,-1.847812906E-2
2.276054604E1,-3.512371797E-3,5.184566379E-1,-2.504473738E-2
2.276969828E1,2.031067200E-2,4.793623984E-1,-2.977880463E-2
2.277885057E1,4.107947648E-2,4.257605374E-1,-3.130592033E-2
2.278800281E1,6.032116711E-2,3.559712470E-1,-2.809897438E-2
2.279715510E1,7.757759839E-2,2.710634768E-1,-1.878355257E-2
2.280630734E1,8.948912472E-2,1.759240031E-1,-2.748812549E-3
2.281545963E1,1.030804738E-1,9.040539712E-2,1.267508045E-2
2.282461187E1,1.122431830E-1,2.168507688E-2,2.626643144E-2
2.283376411E1,1.189625040E-1,-3.787253052E-2,4.214845970E-2
2.284291640E1,1.218640283E-1,-9.743013978E-2,6.062658876E-2
2.285206864E1,1.233911440E-1,-1.498102844E-1,7.711946964E-2
2.286122094E1,1.207950488E-1,-1.942494214E-1,8.750387281E-2
2.287037318E1,1.105633527E-1,-2.293731421E-1,8.689302206E-2
2.287952542E1,1.021642014E-1,-2.528907657E-1,7.223268598E-2
2.288867771E1,9.315420687E-2,-2.692309320E-1,5.070032179E-2
2.289782995E1,8.093725890E-2,-2.699944973E-1,3.359659761E-2
2.290698224E1,6.841489673E-2,-2.464768738E-1,2.489202656E-2
2.291613448E1,6.062658876E-2,-2.037175596E-1,2.244863659E-2
2.292528672E1,5.543438718E-2,-1.615691036E-1,2.046338283E-2
2.293443901E1,4.963133857E-2,-1.320957243E-1,1.557660475E-2
2.294359125E1,4.382828996E-2,-1.110214889E-1,6.872031838E-3
2.295274354E1,4.062134400E-2,-8.933641016E-2,-2.901524538E-3
2.296189578E1,4.352286831E-2,-6.536065787E-2,-1.450762246E-2
2.297104807E1,4.825693369E-2,-4.062134400E-2,-2.244863659E-2
2.298020031E1,4.871506989E-2,-1.053711493E-2,-2.733541466E-2
2.298935255E1,4.581354558E-2,3.176405653E-2,-2.672456764E-2
2.299850484E1,4.184303805E-2,7.146912813E-2,-2.305948362E-2
2.300765708E1,3.665083647E-2,9.437590092E-2,-1.832541823E-2
2.301680937E1,3.344388679E-2,9.987352788E-2,-1.221694518E-2
2.302596161E1,3.161134571E-2,8.903098851E-2,-2.443389036E-3
2.303511390E1,3.069507517E-2,6.490252167E-2,8.551862091E-3
2.304426614E1,3.206948191E-2,3.008422814E-2,1.832541823E-2
2.305341838E1,3.420744836E-2,-3.054236295E-3,2.382304333E-2
2.306257068E1,3.695625812E-2,-3.145863488E-2,2.275406010E-2
2.307172292E1,3.848337755E-2,-5.497625470E-2,1.603474095E-2
2.308087521E1,3.558185324E-2,-8.093725890E-2,7.482878864E-3
2.309002745E1,3.527642787E-2,-1.026223376E-1,-1.068982761E-3
2.309917969E1,3.222219273E-2,-1.159082651E-1,-4.734066315E-3
2.310833198E1,2.794626169E-2,-1.146865711E-1,-1.679830020E-3
2.311748422E1,1.985253580E-2,-1.007898003E-1,0.000000000E0
2.312663651E1,1.221694518E-2,-8.399149776E-2,-6.108472589E-4
2.313578875E1,6.566607859E-3,-6.841489673E-2,-6.108472589E-3
2.314494104E1,3.359660041E-3,-6.108472496E-2,-1.298050396E-2
2.315409328E1,-3.359660041E-3,-5.864133686E-2,-1.603474095E-2
2.316324552E1,-1.068982668E-2,-6.352811307E-2,-1.664558798E-2
2.317239781E1,-1.695101149E-2,-6.001574174E-2,-1.557660475E-2
2.318155005E1,-1.695101149E-2,-5.085303262E-2,-1.496575773E-2
2.319070234E1,-1.527118124E-2,-4.245388508E-2,-1.191152167E-2
2.319985458E1,-1.221694518E-2,-3.756710514E-2,-1.298050396E-2
2.320900687E1,-1.221694518E-2,-3.283303976E-2,-1.725643501E-2
2.321815911E1,-1.221694518E-2,-2.916795574E-2,-2.031067200E-2
2.322731135E1,-1.343864016E-2,-2.855710872E-2,-2.229592577E-2
2.323646364E1,-1.038440317E-2,-2.137965336E-2,-2.092151903E-2
2.324561588E1,-8.093725890E-3,-9.926267900E-3,-1.603474095E-2
2.325476818E1,-5.192201585E-3,2.748812549E-3,-8.093725890E-3
2.326392042E1,1.527118147E-4,1.725643501E-2,1.068982761E-3
2.327307271E1,2.596100792E-3,2.275406010E-2,4.734066315E-3
2.328222495E1,5.803049076E-3,1.298050396E-2,3.512371797E-3
2.329137719E1,5.955760833E-3,-3.206948051E-3,-1.374406274E-3
2.330052948E1,5.497625098E-3,-1.588202827E-2,-5.039489828E-3
2.330968172E1,7.330167107E-3,-1.466033421E-2,-7.482878864E-3
2.331883401E1,8.399149403E-3,-3.206948051E-3,-3.206948051E-3
2.332798625E1,1.206423342E-2,9.468132630E-3,3.512371797E-3
2.333713854E1,1.435491070E-2,1.130067464E-2,8.551862091E-3
2.334629078E1,1.695101149E-2,8.246437646E-3,1.160609815E-2
2.335544302E1,1.893626526E-2,-3.206948051E-3,1.221694518E-2
2.336459531E1,1.954711229E-2,-1.756185852E-2,1.038440317E-2
2.337374755E1,1.908897609E-2,-3.390202299E-2,7.941014133E-3
2.338289984E1,1.679829881E-2,-4.474456236E-2,6.108472589E-3
2.339205208E1,1.007897966E-2,-4.718795046E-2,3.054236295E-3
2.340120437E1,1.053711493E-2,-4.062134400E-2,1.221694518E-3
2.341035661E1,1.359135192E-2,-3.756710514E-2,-0.000000000E0
2.341950885E1,1.359135192E-2,-3.756710514E-2,-0.000000000E0
2.342866114E1,8.704573847E-3,-3.939964995E-2,-1.527118147E-4
2.343781338E1,-1.832541777E-3,-3.390202299E-2,-2.596100792E-3
2.344696568E1,-1.221694518E-2,-2.794626169E-2,-6.413896102E-3
2.345611792E1,-1.725643501E-2,-1.771457121E-2,-7.635590620E-3
2.346527021E1,-2.046338283E-2,-2.137965523E-3,-7.635590620E-3
2.347442245E1,-2.183778957E-2,9.315420873E-3,-1.007897966E-2
2.348357474E1,-1.817270555E-2,9.926267900E-3,-1.191152167E-2
2.349272698E1,-8.246437646E-3,5.192201585E-3,-1.191152167E-2
2.350187922E1,-1.527118147E-4,-9.162708884E-4,-9.315420873E-3
2.351103151E1,5.344913341E-3,-3.206948051E-3,-9.926267900E-3
2.352018375E1,9.009997360E-3,-4.428642802E-3,-9.926267900E-3
2.352933604E1,1.084253844E-2,-2.596100792E-3,-1.099525020E-2
2.353848828E1,1.221694518E-2,-3.206948051E-3,-1.160609815E-2
2.354764052E1,1.206423342E-2,4.581354442E-4,-8.551862091E-3
2.355679281E1,1.267508045E-2,1.007897966E-2,-5.497625098E-3
2.356594505E1,1.130067464E-2,1.847812906E-2,-1.985253533E-3
2.357509734E1,8.704573847E-3,2.519745007E-2,2.901524538E-3
2.358424958E1,7.482878864E-3,2.641914412E-2,5.344913341E-3
2.359340187E1,6.261184346E-3,2.214321308E-2,7.177455351E-3
2.360255411E1,8.246437646E-3,1.252236869E-2,5.955760833E-3
2.361170640E1,1.206423342E-2,3.359660041E-3,5.955760833E-3
2.362085864E1,1.832541823E-2,-9.162709117E-3,5.497625098E-3
2.363001088E1,2.580829710E-2,-1.939439960E-2,6.108472589E-3
2.363916318E1,3.390202299E-2,-3.084778599E-2,9.315420873E-3
2.364831542E1,3.955236077E-2,-4.291202128E-2,1.175880991E-2
2.365746771E1,4.581354558E-2,-5.008947477E-2,1.603474095E-2
2.366661995E1,5.008947477E-2,-5.375456065E-2,1.801999472E-2
2.367577224E1,4.703523964E-2,-6.154286116E-2,1.603474095E-2
2.368492448E1,4.398100078E-2,-6.688777357E-2,1.664558798E-2
2.369407677E1,4.153761268E-2,-7.116370648E-2,1.969982497E-2
2.370322901E1,4.092676565E-2,-7.116370648E-2,2.336490713E-2
2.371238125E1,3.603998944E-2,-6.398624927E-2,2.519745007E-2
2.372153354E1,3.222219273E-2,-5.971032009E-2,2.336490713E-2
2.373068578E1,3.038965166E-2,-5.726693198E-2,1.847812906E-2
2.373983807E1,2.977880463E-2,-5.909947306E-2,1.114796288E-2
2.374899031E1,2.794626169E-2,-6.032116711E-2,6.261184346E-3
2.375814260E1,2.855710872E-2,-5.971032009E-2,6.872031838E-3
2.376729484E1,3.100049868E-2,-5.070032179E-2,7.482878864E-3
2.377644708E1,3.329117596E-2,-4.169032723E-2,8.704573847E-3
2.378559937E1,3.390202299E-2,-3.512371704E-2,5.039489828E-3
2.379475161E1,3.084778599E-2,-3.206948191E-2,7.635590737E-4
2.380390390E1,2.336490713E-2,-2.489202656E-2,-2.443389036E-3
2.381305614E1,1.832541823E-2,-1.466033421E-2,-1.221694518E-3
2.382220844E1,1.527118124E-2,-7.635590737E-4,-1.221694518E-3
2.383136068E1,1.145338640E-2,1.298050396E-2,-3.817795310E-3
2.384051297E1,6.413896102E-3,2.565558441E-2,-5.039489828E-3
2.384966521E1,2.596100792E-3,2.809897438E-2,-6.261184346E-3
2.385881745E1,3.359660041E-3,2.260134928E-2,-6.872031838E-3
2.386796974E1,7.024743594E-3,1.298050396E-2,-7.482878864E-3
2.387712198E1,1.084253844E-2,7.635590620E-3,-6.261184346E-3
2.388627427E1,1.328592747E-2,7.024743594E-3,-1.221694518E-3
2.389542651E1,1.435491070E-2,1.481304597E-2,1.221694518E-3
2.390457880E1,1.068982668E-2,1.969982497E-2,2.901524538E-3
2.391373104E1,6.261184346E-3,2.031067200E-2,2.290677279E-3
2.392288333E1,3.359660041E-3,1.603474095E-2,3.512371797E-3
2.393203557E1,2.748812549E-3,1.007897966E-2,5.344913341E-3
2.394118786E1,1.527118147E-3,1.527118147E-3,3.512371797E-3
2.395034010E1,1.679830020E-3,-1.282779220E-2,3.512371797E-3
2.395949234E1,3.054236295E-3,-2.794626169E-2,1.679830020E-3
2.396864463E1,5.039489828E-3,-3.329117596E-2,1.679830020E-3
2.397779687E1,6.261184346E-3,-3.573456407E-2,1.679830020E-3
2.398694917E1,8.704573847E-3,-3.512371704E-2,2.290677279E-3
2.399610140E1,1.359135192E-2,-3.817795217E-2,1.221694518E-3
2.400525370E1,1.359135192E-2,-3.878879920E-2,-1.832541777E-3
2.401440594E1,8.704573847E-3,-4.413371533E-2,-3.665083554E-3
2.402355823E1,3.970507067E-3,-5.146388337E-2,-4.428642802E-3
2.403271047E1,-3.054236295E-4,-5.680879578E-2,-5.039489828E-3
2.404186276E1,-4.123218823E-3,-5.558710173E-2,-6.261184346E-3
2.405101500E1,-3.512371797E-3,-5.451811850E-2,-7.482878864E-3
2.406016724E1,-2.748812549E-3,-5.635065958E-2,-8.093725890E-3
2.406931953E1,-9.162708884E-4,-6.108472496E-2,-6.872031838E-3
2.407847177E1,3.054236295E-4,-6.765133142E-2,-6.872031838E-3
2.408762406E1,1.679830020E-3,-7.070557028E-2,-8.704573847E-3
2.409677630E1,-1.527118147E-4,-7.009471953E-2,-1.053711493E-2
2.410592859E1,-4.581354558E-3,-6.780404598E-2,-1.236965694E-2
2.411508083E1,-7.024743594E-3,-6.291726977E-2,-1.298050396E-2
2.412423312E1,-1.328592747E-2,-5.573981255E-2,-1.420219894E-2
2.413338536E1,-2.137965336E-2,-4.428642616E-2,-1.496575773E-2
2.414253765E1,-2.702999115E-2,-3.649812192E-2,-1.557660475E-2
2.415168989E1,-2.825168520E-2,-2.687728032E-2,-1.496575773E-2
2.416084213E1,-2.702999115E-2,-2.687728032E-2,-1.557660475E-2
2.416999443E1,-3.008422814E-2,-2.565558441E-2,-1.679829881E-2
2.417914666E1,-3.390202299E-2,-2.443389036E-2,-1.557660475E-2
2.418829896E1,-3.512371704E-2,-1.786728203E-2,-1.511846948E-2
2.419745120E1,-3.405473381E-2,-8.246437646E-3,-1.328592747E-2
2.420660349E1,-3.481829539E-2,5.039489828E-3,-1.267508045E-2
2.421575573E1,-3.054236248E-2,1.420219894E-2,-1.450762246E-2
2.422490802E1,-2.932066843E-2,1.954711229E-2,-1.435491070E-2
2.423406026E1,-2.993151546E-2,2.626643144E-2,-1.572931744E-2
2.424321255E1,-3.191677108E-2,3.038965166E-2,-1.634016447E-2
2.425236479E1,-3.619270027E-2,4.001049697E-2,-2.000524849E-2
2.426151703E1,-4.001049697E-2,5.497625470E-2,-2.305948362E-2
2.427066932E1,-4.382828996E-2,7.253811508E-2,-2.550287358E-2
2.427982156E1,-4.902049154E-2,8.643488586E-2,-2.565558441E-2
2.428897385E1,-5.390727147E-2,9.361234307E-2,-2.687728032E-2
2.429812609E1,-5.711421743E-2,9.666658193E-2,-2.565558441E-2
2.430727838E1,-5.711421743E-2,9.788827598E-2,-2.504473738E-2
2.431643062E1,-5.772506446E-2,9.177979827E-2,-2.199050039E-2
2.432558292E1,-5.558710173E-2,7.375980914E-2,-2.076880634E-2
2.433473515E1,-5.176930502E-2,5.497625470E-2,-1.954711229E-2
2.434388745E1,-4.428642616E-2,3.756710514E-2,-2.061609551E-2
2.435303969E1,-3.420744836E-2,1.954711229E-2,-2.367033064E-2
2.436219198E1,-2.672456764E-2,5.039489828E-3,-2.596100792E-2
2.437134422E1,-2.489202656E-2,3.206948051E-3,-2.657185495E-2
2.438049646E1,-2.672456764E-2,8.704573847E-3,-2.351761982E-2
2.438964875E1,-3.054236248E-2,2.076880634E-2,-2.000524849E-2
2.439880099E1,-3.069507517E-2,3.649812192E-2,-1.450762246E-2
2.440795328E1,-2.962609194E-2,4.367557913E-2,-6.566607859E-3
2.441710552E1,-2.596100792E-2,4.367557913E-2,-3.359660041E-3
2.442625781E1,-2.397575416E-2,3.710897267E-2,-4.581354558E-3
2.443541005E1,-2.443389036E-2,2.870982140E-2,-9.468132630E-3
2.444456234E1,-2.199050039E-2,2.260134928E-2,-1.679829881E-2
2.445371458E1,-1.939439960E-2,1.954711229E-2,-2.229592577E-2
2.446286687E1,-1.450762246E-2,2.015795931E-2,-2.351761982E-2
2.447201911E1,-1.282779220E-2,3.466558084E-2,-2.168507688E-2
2.448117135E1,-1.725643501E-2,5.085303262E-2,-1.985253580E-2
2.449032364E1,-2.229592577E-2,5.940489471E-2,-1.924168877E-2
2.449947588E1,-2.718270384E-2,5.635065958E-2,-1.695101149E-2
2.450862818E1,-3.191677108E-2,4.245388508E-2,-1.756185852E-2
2.451778042E1,-3.359659761E-2,2.260134928E-2,-1.511846948E-2
2.452693271E1,-3.100049868E-2,3.206948051E-3,-1.267508045E-2
2.453608495E1,-2.657185495E-2,-9.315420873E-3,-1.130067464E-2
2.454523724E1,-2.473931387E-2,-1.404948719E-2,-9.468132630E-3
2.455438948E1,-2.290677279E-2,-1.420219894E-2,-1.130067464E-2
2.456354177E1,-2.412846684E-2,-1.420219894E-2,-1.313321572E-2
2.457269401E1,-2.901524492E-2,-1.481304597E-2,-1.618745178E-2
2.458184630E1,-2.718270384E-2,-1.649287529E-2,-1.740914769E-2
2.459099854E1,-2.657185495E-2,-1.771457121E-2,-1.557660475E-2
2.460015083E1,-2.596100792E-2,-1.771457121E-2,-1.496575773E-2
2.460930307E1,-2.779355086E-2,-1.420219894E-2,-1.313321572E-2
2.461845536E1,-2.962609194E-2,-8.704573847E-3,-1.374406368E-2
2.462760760E1,-3.100049868E-2,-1.527118147E-3,-1.252236869E-2
2.463675989E1,-3.405473381E-2,1.527118147E-3,-1.206423342E-2
2.464591213E1,-3.420744836E-2,7.482878864E-3,-1.145338640E-2
2.465506443E1,-3.481829539E-2,1.053711493E-2,-9.009997360E-3
2.466421666E1,-3.359659761E-2,1.481304597E-2,-7.177455351E-3
2.467336890E1,-2.809897438E-2,1.954711229E-2,-5.803049076E-3
2.468252120E1,-2.321219631E-2,2.076880634E-2,-5.192201585E-3
2.469167344E1,-2.076880634E-2,2.321219631E-2,-3.359660041E-3
2.470082573E1,-1.893626526E-2,2.031067200E-2,-1.527118147E-3
2.470997797E1,-1.649287529E-2,1.847812906E-2,3.054236295E-4
2.471913026E1,-1.649287529E-2,2.153236605E-2,2.137965523E-3
2.472828250E1,-1.649287529E-2,2.336490713E-2,2.137965523E-3
2.473743479E1,-1.404948719E-2,2.565558441E-2,9.162708884E-4
2.474658703E1,-1.038440317E-2,3.115320951E-2,-1.527118147E-3
2.475573932E1,-4.275931045E-3,3.466558084E-2,-1.985253533E-3
2.476489156E1,-1.832541777E-3,3.710897267E-2,1.068982761E-3
2.477404385E1,-3.054236295E-3,4.260659590E-2,3.512371797E-3
2.478319609E1,-6.872031838E-3,5.100574717E-2,4.581354558E-3
2.479234838E1,-1.313321572E-2,5.528167635E-2,7.635590620E-3
2.480150062E1,-1.557660475E-2,5.711421743E-2,1.068982668E-2
2.481065292E1,-1.435491070E-2,5.405998230E-2,1.191152167E-2
2.481980515E1,-1.298050396E-2,4.810422286E-2,1.252236869E-2
2.482895739E1,-1.114796288E-2,4.138490185E-2,1.007897966E-2
2.483810969E1,-8.551862091E-3,3.542914242E-2,5.803049076E-3
2.484726192E1,-6.108472589E-3,2.993151546E-2,3.359660041E-3
2.485641422E1,-4.275931045E-3,2.993151546E-2,2.290677279E-3
2.486556646E1,-7.941014133E-3,3.649812192E-2,9.162708884E-4
2.487471875E1,-1.481304597E-2,4.672981426E-2,2.748812549E-3
2.488387099E1,-2.290677279E-2,5.344913527E-2,5.803049076E-3
2.489302328E1,-2.596100792E-2,5.344913527E-2,8.093725890E-3
2.490217552E1,-2.657185495E-2,4.795150831E-2,8.093725890E-3
2.491132781E1,-2.718270384E-2,3.894151375E-2,7.482878864E-3
2.492048005E1,-2.260134928E-2,2.809897438E-2,5.192201585E-3
2.492963234E1,-1.756185852E-2,1.481304597E-2,4.581354558E-3
2.493878458E1,-1.206423342E-2,5.803049076E-3,5.803049076E-3
2.494793687E1,-9.009997360E-3,3.970507067E-3,5.955760833E-3
2.495708911E1,-8.399149403E-3,7.024743594E-3,4.734066315E-3
2.496624140E1,-1.023169141E-2,1.252236869E-2,5.803049076E-3
2.497539364E1,-1.404948719E-2,1.969982497E-2,6.413896102E-3
2.498454594E1,-1.893626526E-2,2.809897438E-2,5.803049076E-3
2.499369818E1,-2.275406010E-2,3.359659761E-2,7.024743594E-3
2.500285047E1,-2.535016090E-2,4.077405483E-2,7.635590620E-3
2.501200271E1,-2.336490713E-2,4.016320780E-2,7.024743594E-3
2.502115495E1,-1.908897609E-2,3.466558084E-2,5.192201585E-3
2.503030724E1,-1.527118124E-2,3.115320951E-2,6.413896102E-3
2.503945948E1,-1.404948719E-2,2.748812735E-2,3.359660041E-3
2.504861177E1,-7.941014133E-3,2.932066843E-2,9.162708884E-4
2.505776401E1,-8.551862091E-3,3.176405653E-2,2.137965523E-3
2.506691630E1,-1.038440317E-2,2.932066843E-2,2.748812549E-3
2.507606854E1,-1.282779220E-2,2.214321308E-2,2.748812549E-3
2.508522083E1,-1.206423342E-2,1.725643501E-2,2.137965523E-3
2.509437307E1,-1.023169141E-2,8.246437646E-3,5.192201585E-3
2.510352536E1,-8.246437646E-3,1.679830020E-3,5.344913341E-3
2.511267760E1,-6.413896102E-3,-2.596100792E-3,5.344913341E-3
2.512182989E1,-4.581354558E-3,-6.719320081E-3,7.788302377E-3
2.513098213E1,-2.596100792E-3,-9.773556143E-3,7.788302377E-3
2.514013443E1,-3.206948051E-3,-1.160609815E-2,7.788302377E-3
2.514928666E1,-7.024743594E-3,-1.038440317E-2,7.177455351E-3
2.515843896E1,-1.068982668E-2,-7.482878864E-3,5.192201585E-3
2.516759120E1,-1.068982668E-2,-3.206948051E-3,3.359660041E-3
2.517674349E1,-9.468132630E-3,2.137965523E-3,9.162708884E-4
2.518589573E1,-8.857285604E-3,2.748812549E-3,-1.374406274E-3
2.519504802E1,-4.581354558E-3,3.359660041E-3,-1.374406274E-3
2.520420026E1,-9.162708884E-4,4.581354442E-4,-1.527118147E-4
2.521335255E1,-9.162708884E-4,-1.985253533E-3,4.581354442E-4
2.522250479E1,-9.162708884E-4,-7.635590737E-4,1.679830020E-3
2.523165708E1,-2.748812549E-3,-1.527118147E-4,2.290677279E-3
2.524080932E1,-4.581354558E-3,-1.985253533E-3,1.679830020E-3
2.524996161E1,-7.024743594E-3,-4.428642802E-3,-1.527118147E-4
2.525911385E1,-3.817795310E-3,-6.872031838E-3,-1.374406274E-3
2.526826614E1,4.581354442E-4,-1.221694518E-2,-7.635590737E-4
2.527741838E1,4.275931045E-3,-1.649287529E-2,1.679830020E-3
2.528657068E1,7.788302377E-3,-1.282779220E-2,3.512371797E-3
2.529572292E1,6.566607859E-3,-7.941014133E-3,7.788302377E-3
2.530487521E1,4.123218823E-3,-4.428642802E-3,7.177455351E-3
2.531402745E1,2.290677279E-3,-6.261184346E-3,8.399149403E-3
2.532317974E1,-1.527118147E-4,-7.941014133E-3,7.177455351E-3
2.533233198E1,1.068982761E-3,-9.162709117E-3,5.955760833E-3
2.534148427E1,1.679830020E-3,-1.160609815E-2,4.123218823E-3
2.535063651E1,4.275931045E-3,-1.954711229E-2,-7.635590737E-4
2.535978880E1,7.482878864E-3,-2.794626169E-2,-4.428642802E-3
2.536894104E1,7.482878864E-3,-2.977880463E-2,-7.330167107E-3
2.537809333E1,4.886778072E-3,-2.611372061E-2,-8.093725890E-3
2.538724557E1,1.832541777E-3,-1.649287529E-2,-5.650337320E-3
2.539639781E1,-7.635590737E-4,-5.650337320E-3,1.068982761E-3
2.540555010E1,-3.359660041E-3,-1.374406274E-3,5.955760833E-3
2.541470234E1,-7.024743594E-3,-4.428642802E-3,5.344913341E-3
2.542385463E1,-7.482878864E-3,-1.160609815E-2,-1.527118147E-4
2.543300687E1,-4.886778072E-3,-2.199050039E-2,-6.261184346E-3
2.544215917E1,-1.679830020E-3,-3.344388679E-2,-8.704573847E-3
2.545131146E1,-2.290677279E-3,-4.367557913E-2,-6.872031838E-3
2.546046370E1,-2.290677279E-3,-4.596625641E-2,-3.817795310E-3
