"Time (s)","Gyroscope x (rad/s)","Gyroscope y (rad/s)","Gyroscope z (rad/s)"
7.933345623E0,1.461452097E-1,3.848337755E-2,3.955236077E-2
7.942498227E0,1.586675793E-1,2.702999115E-2,4.138490185E-2
7.951650883E0,1.698155403E-1,1.695101149E-2,4.337015375E-2
7.960803487E0,1.797417998E-1,4.886778072E-3,4.764608666E-2
7.969956092E0,1.933331639E-1,-3.512371797E-3,5.451811850E-2
7.979108696E0,2.131856978E-1,-1.374406368E-2,6.322269142E-2
7.988261300E0,2.347180545E-1,-2.321219631E-2,7.742489129E-2
7.997413904E0,2.605263591E-1,-2.855710872E-2,9.284878522E-2
8.006566508E0,2.913741469E-1,-3.863608837E-2,1.108687744E-1
8.015719112E0,3.278722763E-1,-5.360184610E-2,1.342336833E-1
8.024871769E0,3.710896969E-1,-8.353336155E-2,1.634016484E-1
8.034024373E0,4.211791754E-1,-1.140757278E-1,1.930277348E-1
8.043176977E0,4.810422063E-1,-1.319430023E-1,2.258607745E-1
8.052329581E0,5.464028716E-1,-1.461452097E-1,2.640387416E-1
8.061482185E0,6.183301210E-1,-1.634016484E-1,3.122956753E-1
8.070634789E0,7.009472251E-1,-1.895153672E-1,3.677300513E-1
8.079787394E0,7.892146707E-1,-2.264716178E-1,4.326325655E-1
8.088939998E0,8.822161555E-1,-2.634278834E-1,4.986040890E-1
8.098092602E0,9.878927469E-1,-3.142809272E-1,5.683933496E-1
8.107245258E0,1.100288630E0,-3.758237660E-1,6.442911625E-1
8.116397862E0,1.215738773E0,-4.373666346E-1,7.386670709E-1
8.125550467E0,1.320651770E0,-5.066977739E-1,8.347227573E-1
8.134703071E0,1.416096687E0,-5.935907960E-1,8.984035850E-1
8.143855675E0,1.499324560E0,-6.742226481E-1,9.320002198E-1
8.153008279E0,1.582857966E0,-7.305732965E-1,9.527690411E-1
8.162160883E0,1.687923670E0,-7.725690603E-1,9.749122262E-1
8.171313487E0,1.810093164E0,-7.849387527E-1,9.898779988E-1
8.180466144E0,1.927833915E0,-7.823426127E-1,9.839222431E-1
8.189618748E0,1.993499994E0,-8.118160367E-1,9.575030804E-1
8.198771352E0,1.977312565E0,-8.432746530E-1,9.465078115E-1
8.207923956E0,1.915464282E0,-8.414421082E-1,9.582666159E-1
8.217076560E0,1.866291046E0,-7.902836204E-1,9.840749502E-1
8.226229164E0,1.828265905E0,-7.040014863E-1,1.021031141E0
8.235381769E0,1.774053097E0,-6.449019909E-1,1.059056401E0
8.244534373E0,1.690061688E0,-6.352811456E-1,1.098761559E0
8.253687029E0,1.598739982E0,-6.600204706E-1,1.138466597E0
8.262839633E0,1.532004952E0,-7.244648337E-1,1.166107416E0
8.271992237E0,1.506654739E0,-8.516737819E-1,1.147781968E0
8.281144842E0,1.520856977E0,-1.028514028E0,1.088071704E0
8.290297446E0,1.570793748E0,-1.187181592E0,1.000109673E0
8.299450050E0,1.670667291E0,-1.289193153E0,9.123004079E-1
8.308602654E0,1.797112584E0,-1.360967636E0,8.710681796E-1
8.317755258E0,1.892710209E0,-1.435491085E0,8.797727823E-1
8.326907914E0,1.917602301E0,-1.480999231E0,9.257390499E-1
8.336047758E0,1.877133608E0,-1.462826490E0,9.761339426E-1
8.345213123E0,1.796349049E0,-1.337450027E0,1.015838981E0
8.354365727E0,1.704722047E0,-1.080283403E0,1.017366052E0
8.363505571E0,1.608055353E0,-8.098307252E-1,1.001789451E0
8.372670935E0,1.527576327E0,-6.178719997E-1,9.828532338E-1
8.381823539E0,1.481762767E0,-5.089884996E-1,9.555178285E-1
8.390976144E0,1.465575337E0,-4.880669713E-1,9.384140968E-1
8.400128748E0,1.444806457E0,-5.121954083E-1,9.321529269E-1
8.409281404E0,1.418998241E0,-5.201364160E-1,9.185615778E-1
8.418434008E0,1.381889224E0,-4.857762754E-1,9.060391784E-1
8.427586612E0,1.348139882E0,-4.388937652E-1,8.935168386E-1
8.436739217E0,1.327981949E0,-4.396573007E-1,8.719844818E-1
8.445891821E0,1.323247910E0,-4.602734149E-1,8.371661901E-1
8.455044425E0,1.321109891E0,-4.755446017E-1,7.956285477E-1
8.464197029E0,1.292094707E0,-5.065450668E-1,7.502731681E-1
8.473349633E0,1.226428628E0,-5.296045542E-1,7.156075835E-1
8.482502289E0,1.170688748E0,-5.538857579E-1,6.951441765E-1
8.491654894E0,1.140146375E0,-5.818319917E-1,6.656708121E-1
8.500807498E0,1.129914761E0,-6.494833231E-1,6.276455522E-1
8.509960102E0,1.113574505E0,-7.429429889E-1,5.922164321E-1
8.519112706E0,1.077076435E0,-7.853968740E-1,5.517477989E-1
8.528265310E0,1.023016453E0,-7.699729800E-1,5.048652887E-1
8.537417914E0,9.494093657E-1,-7.336275578E-1,4.572191834E-1
8.546570519E0,8.762603998E-1,-7.235485911E-1,4.201101959E-1
8.555723175E0,8.076927662E-1,-6.942279339E-1,3.744493723E-1
8.564875779E0,7.392778993E-1,-6.620057225E-1,3.355078697E-1
8.574028383E0,6.708629727E-1,-6.496360302E-1,3.026748300E-1
8.583180987E0,6.000047326E-1,-6.317687631E-1,2.611372173E-1
8.592333592E0,5.173876286E-1,-6.109999418E-1,2.153236568E-1
8.601486196E0,4.222481549E-1,-5.673243999E-1,1.640124917E-1
8.610638800E0,3.300102353E-1,-5.033381581E-1,1.058292910E-1
8.619791404E0,2.348707765E-1,-4.535540938E-1,5.696150661E-2
8.628944060E0,1.299577504E-1,-4.153761268E-1,1.710372418E-2
8.638096664E0,1.618745178E-2,-3.614688516E-1,-1.847812906E-2
8.647249269E0,-1.012479365E-1,-3.074088693E-1,-3.955236077E-2
8.656401873E0,-2.287622988E-1,-2.510582209E-1,-5.024218559E-2
8.665554477E0,-3.646758199E-1,-2.067717910E-1,-5.299099907E-2
8.674707081E0,-5.007420182E-1,-1.629435122E-1,-6.200099736E-2
8.683859685E0,-6.271874309E-1,-1.217113137E-1,-8.368607610E-2
8.693012289E0,-7.313368917E-1,-1.273616552E-1,-1.125486046E-1
8.702164946E0,-7.792884111E-1,-1.884463727E-1,-1.328592747E-1
8.711317550E0,-6.062659025E-1,-2.441861928E-1,-1.328592747E-1
8.720457394E0,-2.345653474E-1,-3.194731176E-1,-1.241547018E-1
8.729622758E0,1.175880991E-2,-5.703786016E-1,-1.368297935E-1
8.738775362E0,-3.023693897E-2,-9.055810571E-1,-1.534753740E-1
8.747915258E0,-2.147128135E-1,-9.533798695E-1,-1.357607991E-1
8.757080623E0,-4.303418994E-1,-5.799994469E-1,-8.811471611E-2
8.766233227E0,-6.219952106E-1,-6.459710002E-2,-1.301104724E-1
8.775373071E0,-7.916580439E-1,5.184566379E-1,-2.971771955E-1
8.784538435E0,-8.770239353E-1,9.871291518E-1,-4.636330605E-1
8.793691039E0,-9.164236188E-1,1.264148355E0,-5.050179958E-1
8.802843644E0,-1.071578860E0,1.137703061E0,-4.052971601E-1
8.811996248E0,-1.335006714E0,7.679877281E-1,-3.365768492E-1
8.821148904E0,-1.494895935E0,8.099834919E-1,-3.646758199E-1
8.830288748E0,-1.472294569E0,1.289956689E0,-4.338542521E-1
8.839454112E0,-1.320804477E0,1.893168330E0,-5.150969625E-1
8.848606717E0,-1.182905674E0,1.930124640E0,-6.746807694E-1
8.857746560E0,-1.158929944E0,1.452900171E0,-8.238802552E-1
8.866911925E0,-1.081963181E0,9.985825419E-1,-8.651124239E-1
8.876064529E0,-1.086849928E0,6.308525205E-1,-8.593093753E-1
8.885217133E0,-1.499477267E0,3.298575282E-1,-9.011524320E-1
8.894369737E0,-1.911493778E0,3.254288733E-1,-9.637642503E-1
8.903522394E0,-1.937149405E0,4.785988331E-1,-9.129112363E-1
8.912662237E0,-1.777107358E0,5.435013771E-1,-7.035433054E-1
8.921827602E0,-1.636917949E0,4.735593498E-1,-4.740174711E-1
8.930980206E0,-1.519635320E0,2.458660156E-1,-3.284831047E-1
8.940132810E0,-1.352110386E0,-4.581354558E-2,-2.750339806E-1
8.949285414E0,-1.191304922E0,-3.202366829E-1,-2.530434728E-1
8.958438071E0,-1.133121610E0,-4.304946065E-1,-2.446443290E-1
8.967577914E0,-1.126707792E0,-3.726168275E-1,-2.660239935E-1
8.976743279E0,-1.107466102E0,-2.993151546E-1,-2.951919436E-1
8.985895883E0,-1.126707792E0,-1.487413049E-1,-3.132119179E-1
8.995035727E0,-1.216960430E0,1.047603041E-1,-3.359659910E-1
9.004201092E0,-1.283542752E0,3.425326049E-1,-3.750602305E-1
9.013353696E0,-1.305685997E0,5.538857579E-1,-4.028537571E-1
9.022493592E0,-1.298050404E0,7.322531343E-1,-4.109475017E-1
9.031658956E0,-1.281862974E0,8.583931327E-1,-4.083513916E-1
9.040811560E0,-1.261705041E0,9.463551044E-1,-3.955236077E-1
9.049951404E0,-1.222458124E0,1.020114899E0,-3.683409095E-1
9.059116769E0,-1.171299577E0,1.076312900E0,-3.405473530E-1
9.068269373E0,-1.147934675E0,1.090820551E0,-3.202366829E-1
9.077421977E0,-1.146865726E0,1.113727212E0,-3.434488773E-1
9.086574581E0,-1.186112642E0,1.261552334E0,-4.324798584E-1
9.095727237E0,-1.251473308E0,1.391662717E0,-5.349494815E-1
9.104879842E0,-1.285680771E0,1.604695797E0,-6.294780970E-1
9.114032446E0,-1.229024649E0,1.788255334E0,-7.146912813E-1
9.123185050E0,-1.171299577E0,1.934400558E0,-7.936432958E-1
9.132337654E0,-1.171146870E0,2.073979139E0,-8.756495714E-1
9.141490258E0,-1.197413325E0,2.165148020E0,-9.539906979E-1
9.150642862E0,-1.192221165E0,2.178739548E0,-1.029124975E0
9.159795519E0,-1.098303318E0,2.184084415E0,-1.083948493E0
9.168948123E0,-9.504783154E-1,2.184389830E0,-1.087918997E0
9.178100727E0,-8.698465228E-1,2.279071093E0,-1.095860004E0
9.187240571E0,-8.406785131E-1,2.336796284E0,-1.120141149E0
9.196405935E0,-8.276980519E-1,2.277849436E0,-1.135870457E0
9.205558539E0,-8.767185211E-1,2.175837994E0,-1.142284393E0
9.214698435E0,-9.743013978E-1,2.134605646E0,-1.159998894E0
9.223863800E0,-9.643751383E-1,1.890725017E0,-1.125638843E0
9.233016404E0,-9.194778204E-1,1.398687482E0,-1.077229142E0
9.242169008E0,-9.775083065E-1,8.208259940E-1,-1.013701081E0
9.251321612E0,-1.025612593E0,4.275930822E-1,-9.173398614E-1
9.260474217E0,-9.523108602E-1,1.805053651E-1,-8.055548072E-1
9.269614060E0,-8.131904006E-1,2.137965523E-3,-7.024743557E-1
9.278779477E0,-7.438592315E-1,-1.348445266E-1,-6.297835112E-1
9.287932081E0,-7.797465324E-1,-1.250709742E-1,-5.989357233E-1
9.297071925E0,-8.330429196E-1,1.050657257E-1,-6.042806506E-1
9.306237289E0,-8.014315963E-1,3.164188862E-1,-6.281036735E-1
9.315389894E0,-6.965186000E-1,3.804051280E-1,-6.536065936E-1
9.324542498E0,-6.033644080E-1,3.805578351E-1,-6.633801460E-1
9.333695102E0,-5.331169367E-1,3.746020794E-1,-6.659762263E-1
9.342847758E0,-4.204156399E-1,4.362976551E-1,-6.261184216E-1
9.352000362E0,-2.753393948E-1,5.050179958E-1,-5.311316848E-1
9.361152967E0,-1.117850468E-1,4.691306949E-1,-3.736858070E-1
9.370305571E0,1.059819981E-1,3.691044450E-1,-1.789782494E-1
9.379445414E0,4.120164812E-1,1.612636745E-1,3.206948191E-2
9.388610779E0,7.620319724E-1,7.177455351E-3,2.350234836E-1
9.397763435E0,1.079367161E0,1.664558798E-2,4.008685052E-1
9.406903279E0,1.322331548E0,2.657185495E-2,4.917320311E-1
9.416068644E0,1.487565756E0,4.688252881E-2,5.729747415E-1
9.425221248E0,1.643637300E0,1.522536725E-1,7.650861740E-1
9.434361092E0,1.789782524E0,2.354816198E-1,1.051878929E0
9.443526456E0,1.912257314E0,2.273878902E-1,1.408155680E0
9.452679112E0,1.994110823E0,1.313321590E-1,1.769624472E0
9.461818956E0,1.970135093E0,-2.122694254E-1,2.046338320E0
9.470984321E0,1.933331609E0,-8.793146014E-1,2.237075329E0
9.480136925E0,1.956543803E0,-1.628976941E0,2.374516010E0
9.489276769E0,2.061914921E0,-2.193857908E0,2.433157444E0
9.498442133E0,2.168965816E0,-2.593810081E0,2.436058760E0
9.507594737E0,2.210961580E0,-3.061566353E0,2.370087385E0
9.516734633E0,2.236464500E0,-3.621102571E0,2.300450802E0
9.525899998E0,2.360466480E0,-3.944851637E0,2.218444586E0
9.535052602E0,2.581287861E0,-3.841160297E0,2.113837004E0
9.544192446E0,2.705137014E0,-3.316289663E0,2.064205647E0
9.553357810E0,2.618244171E0,-2.636111259E0,2.084516287E0
9.562510414E0,2.420024157E0,-2.107270241E0,2.094289780E0
9.571650310E0,2.268686771E0,-1.630351305E0,2.053821087E0
9.580815675E0,2.182862759E0,-1.106397152E0,2.003884315E0
9.589968279E0,2.119639874E0,-6.514685750E-1,2.014116049E0
9.599108123E0,2.102689028E0,-2.779355049E-1,2.032136202E0
9.608273487E0,2.133842230E0,-3.817795310E-3,1.977159858E0
9.617426092E0,2.130329847E0,1.801999472E-2,1.870872498E0
9.626565987E0,2.074131966E0,-1.867665499E-1,1.761225343E0
9.635731352E0,2.039618969E0,-5.716003180E-1,1.666085839E0
9.644883956E0,2.047712803E0,-9.599464536E-1,1.588813663E0
9.654023800E0,2.062220335E0,-1.168245435E0,1.499324560E0
9.663189164E0,2.062525749E0,-1.286749721E0,1.372421026E0
9.672341769E0,2.023431540E0,-1.378529549E0,1.193290114E0
9.681481664E0,1.953947663E0,-1.437323570E0,9.889616966E-1
9.690647029E0,1.868123651E0,-1.459924936E0,7.734853625E-1
9.699799633E0,1.767486572E0,-1.422968745E0,5.764871240E-1
9.708939477E0,1.651578307E0,-1.340656996E0,4.144598544E-1
9.718104842E0,1.510319829E0,-1.192526579E0,2.631224692E-1
9.727257446E0,1.344169378E0,-1.028208613E0,1.317902952E-1
9.736397342E0,1.133121610E0,-8.704573512E-1,2.886253223E-2
9.745562706E0,8.837432861E-1,-6.427640319E-1,-7.024743408E-2
9.754715310E0,5.804576278E-1,-3.345915973E-1,-1.537808031E-1
9.763855154E0,1.869192570E-1,1.282779220E-2,-2.197522968E-1
9.773020519E0,-2.171562016E-1,2.812951505E-1,-2.745758295E-1
9.782173123E0,-5.196782947E-1,3.113794029E-1,-3.324536085E-1
9.791313019E0,-7.426375747E-1,1.860029846E-1,-4.028537571E-1
9.800478383E0,-9.420791864E-1,1.232384369E-1,-4.964661002E-1
9.809630987E0,-1.088682532E0,2.431172132E-1,-6.252021790E-1
9.818770831E0,-1.168703556E0,5.887040496E-1,-8.043331504E-1
9.827936196E0,-1.291025639E0,1.201231122E0,-1.018129706E0
9.837088852E0,-1.476875901E0,1.755727768E0,-1.211004734E0
9.846228696E0,-1.720909476E0,1.640583038E0,-1.291942000E0
9.855394060E0,-2.310835123E0,9.807152748E-1,-1.209477544E0
9.864546664E0,-2.932677746E0,1.623632073E0,-9.646805525E-1
9.873686508E0,-2.956653357E0,3.044920921E0,-7.124006152E-1
9.882851873E0,-2.174158096E0,3.461518764E0,-5.045598149E-1
9.892004529E0,-1.319277406E0,3.033314705E0,-3.272614181E-1
9.901144373E0,-1.091431379E0,1.650356531E0,-4.222481549E-1
9.910309737E0,-1.304617047E0,-8.994726092E-2,-4.952444136E-1
9.919462342E0,-1.393648028E0,-1.217113137E0,-3.788780272E-1
9.928602237E0,-1.309045672E0,-1.952878714E0,-3.594835997E-1
9.937767550E0,-1.224596024E0,-2.173089027E0,-4.723376334E-1
9.946920206E0,-1.159388065E0,-2.088486671E0,-6.355865598E-1
9.956060050E0,-1.188708782E0,-1.836512327E0,-7.647807598E-1
9.965225414E0,-1.292858243E0,-1.411973476E0,-7.982246280E-1
9.974378019E0,-1.339893460E0,-1.039051175E0,-7.823426127E-1
9.983517862E0,-1.305991411E0,-7.754706144E-1,-7.566870451E-1
9.992683227E0,-1.235285878E0,-5.059342384E-1,-7.264500856E-1
1.000183588E1,-1.198634982E0,-1.930277348E-1,-6.989619732E-1
1.001097573E1,-1.147629261E0,1.698155403E-1,-6.755970716E-1
1.002014109E1,-1.117545009E0,6.569662094E-1,-6.555918455E-1
1.002929370E1,-1.189625025E0,1.129914761E0,-6.375718117E-1
1.003844630E1,-1.235438585E0,1.513679504E0,-6.380299330E-1
1.004759890E1,-1.242157936E0,1.852241635E0,-6.633801460E-1
1.005675156E1,-1.268424392E0,1.927986622E0,-7.168292403E-1
1.006589140E1,-1.349056125E0,1.720909476E0,-7.716528177E-1
1.007505677E1,-1.461910248E0,1.299272060E0,-8.612946272E-1
1.008420937E1,-1.475501537E0,7.290462255E-1,-8.548807502E-1
1.009334922E1,-1.267660737E0,8.965710402E-1,-6.384881139E-1
1.010251463E1,-1.241852522E0,5.775560737E-1,-5.380037427E-1
1.011166724E1,-1.353790283E0,5.216635466E-1,-6.065713167E-1
1.012081984E1,-1.244448543E0,8.318212628E-1,-5.809157491E-1
1.012997245E1,-1.276365399E0,6.571189165E-1,-5.462501645E-1
1.013912505E1,-1.391968250E0,6.213843822E-1,-5.335750580E-1
1.014827765E1,-1.412889719E0,6.213843822E-1,-5.349494815E-1
1.015743031E1,-1.367839694E0,8.154810667E-1,-5.476245880E-1
1.016658291E1,-1.382347345E0,1.008814216E0,-5.728220344E-1
1.017573552E1,-1.467713237E0,1.183974743E0,-5.772506595E-1
1.018488812E1,-1.471225619E0,1.432284117E0,-5.645755529E-1
1.019404073E1,-1.373795509E0,1.648676753E0,-5.690042377E-1
1.020319338E1,-1.265828252E0,1.730072141E0,-6.171084642E-1
1.021234599E1,-1.188403368E0,1.655243397E0,-6.946860552E-1
1.022149859E1,-1.135717750E0,1.450609565E0,-7.760814428E-1
1.023063844E1,-1.057376623E0,1.273311138E0,-8.516737819E-1
1.023980380E1,-8.996253014E-1,1.114185452E0,-9.333745837E-1
1.024895646E1,-7.046123147E-1,8.191461563E-1,-9.703308940E-1
1.025809630E1,-6.603258848E-1,6.117635369E-1,-9.729269743E-1
1.026726166E1,-7.780666947E-1,5.543438792E-1,-9.730796814E-1
1.027641427E1,-7.641699314E-1,4.231644273E-1,-9.362761378E-1
1.028556687E1,-6.717792749E-1,3.481829464E-1,-9.006943107E-1
1.029471948E1,-6.458182931E-1,3.469612300E-1,-9.078717232E-1
1.030387213E1,-6.247440577E-1,4.138490260E-1,-9.321529269E-1
1.031302474E1,-5.650337338E-1,4.216373265E-1,-9.513946176E-1
1.032217734E1,-4.921901822E-1,3.319954872E-1,-9.379559755E-1
1.033132995E1,-3.579564989E-1,2.487675399E-1,-8.521319032E-1
1.034046984E1,-1.447708011E-1,1.743968874E-1,-7.027797699E-1
1.034963521E1,8.475505561E-2,8.139539510E-2,-5.361711979E-1
1.035878781E1,3.145863414E-1,8.414421231E-2,-3.642176688E-1
1.036792765E1,5.529694557E-1,2.064663768E-1,-1.733279079E-1
1.037709302E1,8.272398710E-1,3.132119179E-1,5.207473040E-2
1.038624562E1,1.141978979E0,3.312319219E-1,2.399102598E-1
1.039539828E1,1.444348335E0,3.582619131E-1,3.836120665E-1
1.040455088E1,1.720604062E0,2.623589039E-1,5.719057322E-1
1.041370349E1,1.960056186E0,1.692046970E-1,8.522846103E-1
1.042284333E1,2.105437756E0,1.539335102E-1,1.187334418E0
1.043200870E1,2.192636251E0,5.650337320E-3,1.449387789E0
1.044116135E1,2.299534559E0,-3.552076817E-1,1.718466043E0
1.045030120E1,2.401240587E0,-9.121476412E-1,1.989376783E0
1.045946656E1,2.450871944E0,-1.603626728E0,2.201646328E0
1.046861916E1,2.462019920E0,-2.372683525E0,2.334810972E0
1.047775906E1,2.499128819E0,-3.160676479E0,2.350234747E0
1.048692442E1,2.638401985E0,-3.622935057E0,2.294800520E0
1.049607703E1,2.812951565E0,-3.530086279E0,2.209739923E0
1.050521687E1,2.912367105E0,-3.166326761E0,2.149876833E0
1.051438224E1,2.864109993E0,-2.777675152E0,2.116127729E0
1.052353484E1,2.739955425E0,-2.214932203E0,2.029387236E0
1.053267474E1,2.638860226E0,-1.405559540E0,1.899887681E0
1.054184010E1,2.561588049E0,-4.744756222E-1,1.795432806E0
1.055099271E1,2.492562294E0,3.014531136E-1,1.769929886E0
1.056013255E1,2.387801886E0,6.908682585E-1,1.841704488E0
1.056929791E1,2.272504568E0,7.180509567E-1,1.928139329E0
1.057845057E1,2.232341290E0,4.886777997E-1,1.989071369E0
1.058759041E1,2.275864124E0,1.693574041E-1,1.988460541E0
1.059675578E1,2.313584089E0,-1.904316396E-1,1.968149900E0
1.060590838E1,2.320150614E0,-5.786250830E-1,1.935469508E0
1.061504828E1,2.314347506E0,-9.851438999E-1,1.836206913E0
1.062421364E1,2.305948496E0,-1.319888234E0,1.611720443E0
1.063336625E1,2.275253296E0,-1.554759026E0,1.344169378E0
1.064250609E1,2.239060640E0,-1.666696787E0,1.083337665E0
1.065167146E1,2.183168173E0,-1.711746693E0,8.509102464E-1
1.066082411E1,2.064969063E0,-1.723963618E0,6.620057225E-1
1.066996396E1,1.917602301E0,-1.691741467E0,4.966188073E-1
1.067912932E1,1.739693046E0,-1.593089700E0,3.793361485E-1
1.068828192E1,1.505433083E0,-1.432131410E0,3.029802442E-1
1.069742177E1,1.211615562E0,-1.212989926E0,2.347180545E-1
1.070658718E1,8.907679915E-1,-9.306257963E-1,1.772984117E-1
1.071573979E1,5.615213513E-1,-6.100836992E-1,1.198787764E-1
1.072487963E1,2.130329758E-1,-2.680092454E-1,4.260659590E-2
1.073404500E1,-1.299577504E-1,7.574506104E-2,-4.062134400E-2
1.074319760E1,-4.210264683E-1,3.400892019E-1,-1.211004704E-1
1.075233750E1,-6.870504618E-1,4.953971207E-1,-2.061609477E-1
1.076150286E1,-9.500201941E-1,6.000047326E-1,-3.277195692E-1
1.077065547E1,-1.135870457E0,6.997255087E-1,-4.842491746E-1
1.077979531E1,-1.089446068E0,9.961391687E-1,-6.977402568E-1
1.078896068E1,-7.803573608E-1,1.613553047E0,-8.773293495E-1
1.079811333E1,-6.850652099E-1,1.645469785E0,-9.072608948E-1
1.080725318E1,-1.134190679E0,6.450546980E-1,-9.035958052E-1
1.081641854E1,-1.828571320E0,1.388150454E-1,-9.356653094E-1
1.082557114E1,-2.331298590E0,2.669402659E-1,-9.630007148E-1
1.083471104E1,-2.331604004E0,4.738647640E-1,-9.119949341E-1
1.084387640E1,-1.942952394E0,1.273616552E0,-7.424848676E-1
1.085302901E1,-1.432894945E0,1.848729253E0,-7.246175408E-1
1.086216885E1,-1.564074397E0,8.823688626E-1,-9.208522439E-1
1.087133422E1,-1.884616494E0,-1.056765765E-1,-8.753440976E-1
1.088048687E1,-1.770998955E0,-2.962609231E-1,-6.772769094E-1
1.088963948E1,-1.562700033E0,-3.778090179E-1,-6.464291215E-1
1.089879208E1,-1.387234092E0,-4.795151055E-1,-6.847597957E-1
1.090794468E1,-1.320193648E0,-5.109737515E-1,-5.774033666E-1
1.091708458E1,-1.455190897E0,-5.045598149E-1,-4.190412164E-1
1.092624995E1,-1.554300904E0,-4.164451063E-1,-3.446705639E-1
1.093540255E1,-1.515359282E0,-3.825430870E-1,-3.248180151E-1
1.094455515E1,-1.416707516E0,-3.662029207E-1,-3.468085229E-1
1.095370776E1,-1.372573733E0,-3.397837877E-1,-3.776563108E-1
1.096286036E1,-1.418692708E0,-2.513636351E-1,-4.188885093E-1
1.097201302E1,-1.432589531E0,-1.960819662E-1,-4.434750974E-1
1.098116562E1,-1.433200359E0,-2.093679011E-1,-4.373666346E-1
1.099031823E1,-1.466644287E0,-1.918060333E-1,-4.107947946E-1
1.099945812E1,-1.465880752E0,-1.646233350E-1,-3.875826001E-1
1.100862349E1,-1.440835953E0,-7.162184268E-2,-3.558185399E-1
1.101777609E1,-1.431978703E0,2.137965336E-2,-3.148917556E-1
1.102692870E1,-1.451525807E0,1.059819981E-1,-2.545706034E-1
1.103608130E1,-1.495354056E0,1.595838517E-1,-2.096733153E-1
1.104523396E1,-1.482831717E0,2.125748396E-1,-2.249445021E-1
1.105438656E1,-1.426481009E0,1.540862173E-1,-2.935121059E-1
1.106353916E1,-1.404032469E0,7.971556485E-2,-3.434488773E-1
1.107269177E1,-1.416096687E0,-3.176405653E-2,-3.348970115E-1
1.108183166E1,-1.413500547E0,-6.108472589E-3,-2.683146596E-1
1.109099703E1,-1.431673288E0,1.333174109E-1,-2.024958730E-1
1.110014963E1,-1.446028233E0,3.658975065E-1,-1.942494214E-1
1.110930224E1,-1.406170368E0,5.436540842E-1,-2.173089087E-1
1.111845484E1,-1.392273664E0,7.339329720E-1,-2.509055138E-1
1.112760745E1,-1.435949206E0,9.475768209E-1,-3.118375242E-1
1.113676010E1,-1.474127173E0,1.120751977E0,-3.854446113E-1
1.114591271E1,-1.472752690E0,1.281404853E0,-4.656183124E-1
1.115506531E1,-1.446180940E0,1.449387789E0,-5.297572613E-1
1.116421791E1,-1.431215167E0,1.517191887E0,-5.772506595E-1
1.117337057E1,-1.402199864E0,1.534600973E0,-6.209262609E-1
1.118252318E1,-1.367839694E0,1.580261827E0,-6.745280623E-1
1.119166302E1,-1.299119353E0,1.492147088E0,-7.307260633E-1
1.120082838E1,-1.210699320E0,1.271631241E0,-7.678350210E-1
1.120998104E1,-1.131899953E0,1.161373377E0,-7.831062078E-1
1.121913364E1,-1.040120125E0,1.169314384E0,-8.014315963E-1
1.122828625E1,-9.732323885E-1,1.147629261E0,-8.246437907E-1
1.123743885E1,-9.517000318E-1,1.038593054E0,-8.507575393E-1
1.124659146E1,-9.129112363E-1,1.031415582E0,-8.516737819E-1
1.125574411E1,-7.976137996E-1,1.017824292E0,-8.228112459E-1
1.126489672E1,-6.591041684E-1,8.814526200E-1,-7.789829373E-1
1.127404932E1,-6.210789680E-1,8.254073858E-1,-7.780666947E-1
1.128320192E1,-6.474980712E-1,8.473978639E-1,-8.295305967E-1
1.129235458E1,-6.852179170E-1,8.399149776E-1,-9.220739603E-1
1.130149443E1,-6.584933400E-1,7.785248160E-1,-1.021336675E0
1.131065979E1,-5.596888065E-1,7.398887277E-1,-1.110367656E0
1.131981239E1,-4.552339315E-1,5.885513425E-1,-1.154043198E0
1.132896505E1,-4.182776511E-1,3.596363366E-1,-1.127929449E0
1.133811765E1,-4.202629030E-1,2.793098986E-1,-1.047297597E0
1.134727026E1,-3.733803928E-1,2.887780368E-1,-9.573503733E-1
1.135641010E1,-2.157817930E-1,3.405473530E-1,-8.638907075E-1
1.136557547E1,1.832541823E-2,3.691044450E-1,-7.518002391E-1
1.137472812E1,2.829749882E-1,3.436015844E-1,-6.033644080E-1
1.138386797E1,5.844281316E-1,3.344388604E-1,-4.228590131E-1
1.139303333E1,8.970292211E-1,4.153761268E-1,-2.095206082E-1
1.140218594E1,1.165649295E0,4.840964675E-1,6.719320081E-3
1.141132583E1,1.383569002E0,5.628957748E-1,1.687465608E-1
1.142049120E1,1.573848009E0,6.691831946E-1,3.141281903E-1
1.142964380E1,1.728697777E0,7.021689415E-1,5.155550838E-1
1.143878364E1,1.864611268E0,7.438592315E-1,8.108997345E-1
1.144794906E1,1.931957126E0,7.543963790E-1,1.158166409E0
1.145710166E1,1.939898133E0,4.891359508E-1,1.449082375E0
1.146624151E1,1.976549029E0,-1.156028435E-1,1.648218632E0
1.147540687E1,2.061914921E0,-8.374716043E-1,1.778176427E0
1.148455948E1,2.150793314E0,-1.521620512E0,1.841551781E0
1.149369937E1,2.224705696E0,-2.074742794E0,1.860793471E0
1.150286474E1,2.321066856E0,-2.583884001E0,1.831930876E0
1.151201734E1,2.476527452E0,-2.979712963E0,1.781994224E0
1.152115724E1,2.658560038E0,-3.000023603E0,1.741220117E0
1.153032260E1,2.767748833E0,-2.708954811E0,1.717397094E0
1.153947521E1,2.709718466E0,-2.338475943E0,1.700751424E0
1.154861505E1,2.550898075E0,-1.937607527E0,1.681662560E0
1.155778041E1,2.387801886E0,-1.458703279E0,1.657534003E0
1.156693307E1,2.273267984E0,-9.100096822E-1,1.632489324E0
1.157608568E1,2.214473963E0,-3.370349705E-1,1.644553542E0
1.158523828E1,2.200577259E0,2.319692522E-1,1.706859946E0
1.159439088E1,2.212183237E0,6.992673874E-1,1.767639279E0
1.160353078E1,2.199508190E0,9.345963001E-1,1.812078357E0
1.161269614E1,2.180419207E0,8.722898960E-1,1.789935231E0
1.162184875E1,2.171561956E0,6.042806506E-1,1.694795728E0
1.163098864E1,2.162857533E0,1.736333370E-1,1.593089700E0
1.164015401E1,2.143768549E0,-2.936648130E-1,1.513984919E0
1.164930661E1,2.124374151E0,-6.936170459E-1,1.420678020E0
1.165844646E1,2.114142418E0,-1.015228152E0,1.294385314E0
1.166761182E1,2.099176645E0,-1.212837219E0,1.157097459E0
1.167676448E1,2.082225561E0,-1.308587551E0,1.011104941E0
1.168590432E1,2.051072359E0,-1.347223639E0,8.612946272E-1
1.169506968E1,1.980519533E0,-1.324927688E0,7.288935184E-1
1.170422229E1,1.846591234E0,-1.186418056E0,6.068767309E-1
1.171336219E1,1.674026966E0,-9.817842841E-1,4.772244096E-1
1.172252755E1,1.466338873E0,-7.921161652E-1,3.681881726E-1
1.173168015E1,1.244601250E0,-6.409314871E-1,2.932066917E-1
1.174082005E1,1.024696231E0,-5.010474920E-1,2.536543310E-1
1.174998541E1,8.141067028E-1,-3.742966652E-1,2.136438340E-1
1.175913802E1,6.090146899E-1,-2.881672084E-1,1.516428292E-1
1.176827786E1,4.153761268E-1,-2.411319613E-1,7.941014320E-2
1.177744323E1,2.324273884E-1,-1.983726472E-1,-1.160609815E-2
1.178659588E1,5.085303262E-2,-1.427855492E-1,-7.650861889E-2
1.179574849E1,-1.308740228E-1,-1.258345395E-1,-1.137702987E-1
1.180490109E1,-2.909159958E-1,-7.207997888E-2,-1.485885978E-1
1.181405370E1,-4.633276463E-1,8.842013776E-2,-2.212794125E-1
1.182319359E1,-7.579087615E-1,2.599155009E-1,-3.223746419E-1
1.183235896E1,-1.059819937E0,3.112266660E-1,-4.448495209E-1
1.184151156E1,-1.104411840E0,3.329117596E-1,-5.942016840E-1
1.185065146E1,-7.882983685E-1,8.857285380E-1,-6.894938350E-1
1.185981682E1,-5.667135715E-1,1.456259847E0,-6.578825116E-1
1.186896943E1,-9.793408513E-1,5.906893015E-1,-5.457920432E-1
1.187810927E1,-1.853310585E0,-2.066190839E-1,-4.921901822E-1
1.188727469E1,-2.527991295E0,5.680879578E-2,-5.155550838E-1
1.189642729E1,-2.617633104E0,6.716265678E-1,-4.396573007E-1
1.190556713E1,-2.214932203E0,1.660740972E0,-2.257080674E-1
1.191473250E1,-1.296828747E0,2.154916525E0,-3.043546379E-1
1.192388515E1,-8.625163436E-1,1.212684512E0,-7.250757217E-1
1.193302500E1,-1.589271903E0,-6.108472496E-2,-9.845330715E-1
1.194219036E1,-2.076880693E0,-4.859289825E-1,-8.264763355E-1
1.195134297E1,-1.698766232E0,-4.816530645E-1,-6.155813336E-1
1.196048286E1,-1.195122719E0,-2.884726226E-1,-5.919110179E-1
1.196964823E1,-9.701781869E-1,-2.648022771E-1,-6.343649030E-1
1.197880083E1,-1.106397152E0,-5.242596865E-1,-6.730009913E-1
1.198794073E1,-1.292247415E0,-7.524111271E-1,-7.070556879E-1
1.199710609E1,-1.344474792E0,-6.468872428E-1,-6.763606071E-1
1.200625870E1,-1.273921967E0,-3.657447994E-1,-6.126797795E-1
1.201541130E1,-1.146713018E0,-2.032594234E-1,-5.544965863E-1
1.202456390E1,-1.106397152E0,-2.093679011E-1,-4.454603493E-1
1.203371656E1,-1.196344376E0,-2.730487287E-1,-3.306210935E-1
1.204286916E1,-1.255138397E0,-3.481829464E-1,-2.706053257E-1
1.205202177E1,-1.237118363E0,-3.153499067E-1,-2.197522968E-1
1.206117437E1,-1.234675050E0,-1.206423342E-1,-1.698155403E-1
1.207032703E1,-1.208103180E0,1.374406274E-3,-1.476723254E-1
1.207947963E1,-1.165954709E0,3.084778599E-2,-1.437018216E-1
1.208863224E1,-1.186265349E0,2.473931387E-2,-1.446180940E-1
1.209778489E1,-1.258345366E0,-2.061609551E-2,-1.675248593E-1
1.210693750E1,-1.262773991E0,-7.620319724E-2,-1.992889196E-1
1.211609010E1,-1.285680771E0,2.137965336E-2,-2.130329758E-1
1.212524271E1,-1.321109891E0,2.079934925E-1,-2.408265322E-1
1.213439536E1,-1.323706031E0,3.735330999E-1,-2.831276953E-1
1.214354797E1,-1.310878277E0,4.825693369E-1,-3.246653080E-1
1.215270057E1,-1.325080395E0,5.178457499E-1,-3.846810758E-1
1.216185318E1,-1.350277901E0,5.193728805E-1,-4.275930822E-1
1.217100583E1,-1.378987670E0,5.633538961E-1,-4.222481549E-1
1.218015844E1,-1.384179831E0,7.235485911E-1,-4.278984964E-1
1.218931104E1,-1.364785433E0,9.213103652E-1,-4.621059597E-1
1.219846364E1,-1.343863964E0,1.089904189E0,-5.005893111E-1
1.220761630E1,-1.379293084E0,1.281862974E0,-5.431959033E-1
1.221676890E1,-1.426786542E0,1.366618037E0,-5.862606764E-1
1.222592151E1,-1.429535270E0,1.500240922E0,-6.242858768E-1
1.223507416E1,-1.388608575E0,1.558576822E0,-6.636855602E-1
1.224422677E1,-1.348750710E0,1.456565261E0,-7.053758502E-1
1.225337937E1,-1.349667072E0,1.298508525E0,-7.609629631E-1
1.226253198E1,-1.361578584E0,1.216960430E0,-8.134958148E-1
1.227168463E1,-1.276976228E0,1.215127945E0,-8.579349518E-1
1.228083724E1,-1.166870952E0,1.342795014E0,-9.092461467E-1
1.228998984E1,-1.121057391E0,1.419303656E0,-9.736905098E-1
1.229914245E1,-1.080894232E0,1.440683246E0,-1.027750492E0
1.230829510E1,-1.071731567E0,1.541931152E0,-1.070509791E0
1.231744771E1,-1.064859509E0,1.615232825E0,-1.105328083E0
1.232660031E1,-1.007134438E0,1.574306130E0,-1.140299082E0
1.233575291E1,-9.110786915E-1,1.477792263E0,-1.184738278E0
1.234489281E1,-7.965448499E-1,1.211462855E0,-1.205812454E0
1.235405818E1,-7.142331600E-1,8.112051487E-1,-1.160304427E0
1.236321078E1,-6.794148684E-1,5.179984570E-1,-1.069440842E0
1.237236344E1,-6.800256968E-1,3.352024257E-1,-9.790354371E-1
1.238151604E1,-6.216897964E-1,1.198787764E-1,-9.045121074E-1
1.239066864E1,-4.935645759E-1,3.405473381E-2,-8.388460279E-1
1.239982130E1,-3.515425920E-1,2.733541466E-2,-7.626428008E-1
1.240897390E1,-2.283041626E-1,-2.901524538E-3,-6.836907864E-1
1.241812651E1,-8.628217876E-2,1.099525020E-2,-6.032116413E-1
1.242727911E1,9.880454093E-2,1.459924877E-1,-4.970769584E-1
1.243643177E1,3.129065037E-1,2.577775419E-1,-3.466558158E-1
1.244558437E1,5.519005060E-1,2.686200738E-1,-1.629435122E-1
1.245473698E1,8.066238165E-1,2.238755226E-1,1.893626526E-2
1.246388958E1,1.070051670E0,2.634278834E-1,1.814216375E-1
1.247304224E1,1.331188917E0,3.393256664E-1,3.504736125E-1
1.248218208E1,1.574306130E0,3.645231128E-1,5.445703268E-1
1.249134745E1,1.779398084E0,4.892886579E-1,7.847860456E-1
1.250050005E1,1.874995708E0,5.048652887E-1,1.027903199E0
1.250963995E1,1.930124640E0,7.498150319E-2,1.262926698E0
1.251880531E1,2.046032906E0,-5.838172436E-1,1.490161896E0
1.252795791E1,2.185611486E0,-1.273921967E0,1.698155403E0
1.253711057E1,2.256622553E0,-1.767333865E0,1.831472754E0
1.254626318E1,2.236311913E0,-2.204242229E0,1.877591729E0
1.255541578E1,2.199355602E0,-2.760571480E0,1.862320542E0
1.256455568E1,2.285179615E0,-3.189538956E0,1.819866657E0
1.257372104E1,2.489966154E0,-3.162508965E0,1.741983652E0
1.258287364E1,2.634584188E0,-2.886711359E0,1.636459827E0
1.259201349E1,2.637485743E0,-2.613357306E0,1.565601468E0
1.260117890E1,2.537917614E0,-2.223789454E0,1.542542100E0
1.261033151E1,2.392077923E0,-1.688687205E0,1.534448266E0
1.261947135E1,2.273726225E0,-9.767447710E-1,1.533684731E0
1.262863677E1,2.223942041E0,-1.818797737E-1,1.556591511E0
1.263778937E1,2.192330837E0,4.366030693E-1,1.629129648E0
1.264692922E1,2.135980129E0,7.773031592E-1,1.718313336E0
1.265609458E1,2.062983990E0,9.298622608E-1,1.761683464E0
1.266524724E1,2.025722265E0,8.273926377E-1,1.751146436E0
1.267438708E1,2.021599054E0,6.178719997E-1,1.691283345E0
1.268355245E1,2.013963461E0,3.374931216E-1,1.621188641E0
1.269270505E1,1.987544298E0,1.114796288E-2,1.558424115E0
1.270184495E1,1.978381515E0,-3.139754832E-1,1.465728045E0
1.271101031E1,1.998692274E0,-6.543701291E-1,1.312863469E0
1.272016291E1,2.016254187E0,-9.587247968E-1,1.153279662E0
1.272930281E1,1.994569063E0,-1.162900448E0,1.011563063E0
1.273846818E1,1.928139329E0,-1.249182701E0,8.750386834E-1
1.274762078E1,1.835901380E0,-1.264453769E0,7.009472251E-1
1.275676068E1,1.699071646E0,-1.238340139E0,5.037962794E-1
1.276592604E1,1.517344594E0,-1.193900943E0,3.492519259E-1
1.277507864E1,1.335159421E0,-1.120446563E0,2.641914487E-1
1.278421854E1,1.170383334E0,-9.944593310E-1,2.214321345E-1
1.279338390E1,9.897252917E-1,-8.196043372E-1,1.664558798E-1
1.280253651E1,7.739434838E-1,-6.453601122E-1,9.880454093E-2
1.281167635E1,5.563291311E-1,-5.435013771E-1,3.436015919E-2
1.282084177E1,3.477247953E-1,-4.760027230E-1,-3.008422814E-2
1.282999437E1,1.255291104E-1,-3.530697227E-1,-8.674030751E-2
1.283913422E1,-1.238492802E-1,-1.505738497E-1,-1.449235082E-1
1.284829963E1,-3.639122546E-1,5.131116882E-2,-1.876828223E-1
1.285745224E1,-5.790832043E-1,2.008160353E-1,-2.069245130E-1
1.286659208E1,-7.421793938E-1,2.553341687E-1,-2.380777150E-1
1.287575745E1,-8.698465228E-1,1.656923145E-1,-3.133646548E-1
1.288491010E1,-1.066539288E0,9.727742523E-2,-4.662291706E-1
1.289404995E1,-1.246433854E0,3.819322586E-1,-6.563553810E-1
1.290321531E1,-1.180309653E0,1.199398637E0,-7.847860456E-1
1.291236797E1,-1.032637239E0,1.797876239E0,-8.084563613E-1
1.292150781E1,-1.271936655E0,1.011410356E0,-7.351546884E-1
1.293067318E1,-1.879118919E0,1.678302884E-1,-5.702258945E-1
1.293982578E1,-2.373446941E0,4.013266563E-1,-4.799732268E-1
1.294896568E1,-2.356343269E0,9.391776323E-1,-5.460974574E-1
1.295813104E1,-1.993652701E0,1.627755284E0,-4.414898455E-1
1.296728364E1,-1.410751700E0,1.768708229E0,-3.825430870E-1
1.297642354E1,-1.165954709E0,9.231429100E-1,-5.425850749E-1
1.298558890E1,-1.497492075E0,-1.488940120E-1,-6.675033569E-1
1.299474151E1,-1.711135864E0,-9.100096822E-1,-5.883986354E-1
1.300388140E1,-1.486954927E0,-1.238034725E0,-4.199574888E-1
1.301304677E1,-1.201689243E0,-1.182447553E0,-3.654393852E-1
1.302219937E1,-1.114796281E0,-1.079519868E0,-4.350759685E-1
1.303133927E1,-1.181989431E0,-1.120904684E0,-5.094466209E-1
1.304050463E1,-1.297134161E0,-9.904888272E-1,-5.299099684E-1
1.304965724E1,-1.362800241E0,-6.102364063E-1,-5.184566379E-1
1.305880989E1,-1.330730796E0,-2.402156889E-1,-5.257867575E-1
1.306796250E1,-1.302479029E0,3.939964995E-2,-5.386145711E-1
1.307711510E1,-1.346918225E0,2.574721277E-1,-5.280774832E-1
1.308625500E1,-1.381889224E0,3.707842827E-1,-5.137225389E-1
1.309542036E1,-1.360204101E0,4.130854607E-1,-4.752391577E-1
1.310457297E1,-1.350736022E0,5.628957748E-1,-4.111002088E-1
1.311371281E1,-1.344932914E0,6.432221532E-1,-3.591781855E-1
1.312287823E1,-1.330883503E0,5.525113344E-1,-2.875563502E-1
1.313203083E1,-1.382347345E0,4.947862923E-1,-2.367033064E-1
1.314118344E1,-1.417318344E0,4.109475017E-1,-2.374668717E-1
1.315033604E1,-1.384179831E0,3.066453338E-1,-2.683146596E-1
1.315948870E1,-1.347834468E0,1.890572309E-1,-3.009949923E-1
1.316864130E1,-1.366923451E0,1.293469071E-1,-3.156553209E-1
1.317779390E1,-1.415027618E0,2.014268786E-1,-3.526115716E-1
1.318694656E1,-1.455190897E0,3.275668323E-1,-4.219427407E-1
1.319609916E1,-1.463895440E0,5.015056133E-1,-4.882196784E-1
1.320525177E1,-1.447249889E0,6.748335361E-1,-5.602996349E-1
1.321440443E1,-1.425870180E0,8.591566682E-1,-6.134433746E-1
1.322355703E1,-1.413347840E0,9.880454540E-1,-6.342121959E-1
1.323270963E1,-1.391510010E0,1.098303318E0,-6.389462352E-1
1.324186224E1,-1.342336893E0,1.254527569E0,-6.252021790E-1
1.325101489E1,-1.314695954E0,1.531699538E0,-6.192464232E-1
1.326016750E1,-1.303395391E0,1.789629698E0,-6.259657145E-1
1.326932015E1,-1.226275921E0,1.885380030E0,-6.755970716E-1
1.327846000E1,-1.082421303E0,1.811314821E0,-7.178982496E-1
1.328762536E1,-9.738432169E-1,1.680593491E0,-7.518002391E-1
1.329677797E1,-9.155073166E-1,1.587744713E0,-8.130376935E-1
1.330593062E1,-8.609892130E-1,1.524827480E0,-8.932114244E-1
1.331508323E1,-8.015843034E-1,1.544985414E0,-9.715525508E-1
1.332423583E1,-7.715001106E-1,1.646080613E0,-1.034317136E0
1.333338849E1,-7.345438004E-1,1.668834686E0,-1.077381849E0
1.334254109E1,-7.033905983E-1,1.650203824E0,-1.110214949E0
1.335169370E1,-6.998782754E-1,1.553689957E0,-1.133885264E0
1.336084635E1,-7.098045349E-1,1.414416790E0,-1.141826272E0
1.336999896E1,-7.114843726E-1,1.259567022E0,-1.128845692E0
1.337915156E1,-6.928535104E-1,1.080741525E0,-1.086391807E0
1.338830422E1,-6.581879258E-1,8.273926377E-1,-1.028666735E0
1.339745682E1,-6.340594292E-1,5.841227174E-1,-9.782719016E-1
1.340660943E1,-6.073349118E-1,3.975088596E-1,-9.242119193E-1
1.341576203E1,-5.439594984E-1,2.231119573E-1,-8.619054556E-1
1.342491469E1,-4.559974670E-1,1.511846930E-1,-8.002098799E-1
1.343406729E1,-3.671191931E-1,1.166718230E-1,-7.336275578E-1
1.344320718E1,-2.583884001E-1,2.748812735E-2,-6.203153729E-1
1.345237255E1,-1.056765765E-1,-9.101624042E-2,-4.775298536E-1
1.346152515E1,3.161134571E-2,1.038440317E-2,-3.387148082E-1
1.347066505E1,1.832541823E-1,4.143071473E-1,-1.895153672E-1
1.347983041E1,4.019374847E-1,9.859074950E-1,-3.573456407E-2
1.348898302E1,6.957550049E-1,1.200314879E0,1.267508119E-1
1.349812291E1,1.006676316E0,8.912261724E-1,3.057290614E-1
1.350728828E1,1.262163162E0,2.470877171E-1,5.436540842E-1
1.351644088E1,1.406475782E0,-1.009425074E-1,8.393041492E-1
1.352558073E1,1.448166132E0,-1.808107942E-1,1.061347127E0
1.353474614E1,1.588966489E0,-5.063923597E-1,1.254374862E0
1.354389875E1,1.861557007E0,-9.692618847E-1,1.451983929E0
1.355303859E1,2.127581120E0,-1.367076159E0,1.623326540E0
1.356220401E1,2.331909418E0,-1.594616771E0,1.753742456E0
1.357135661E1,2.549676418E0,-1.491230845E0,1.908439517E0
1.358049646E1,2.680703163E0,-1.815896153E0,2.065885544E0
1.358966187E1,2.634737015E0,-2.116127729E0,2.060387850E0
1.359881448E1,2.657338381E0,-2.261662006E0,1.980672240E0
1.360795432E1,2.523257256E0,-1.879271626E0,1.967844486E0
1.361711974E1,2.271893740E0,-2.038702726E0,2.120556355E0
1.362627234E1,2.281056404E0,-1.331647038E0,2.134911060E0
1.363541219E1,2.399560690E0,-7.641699314E-1,2.066343546E0
1.364457755E1,2.048934460E0,-1.645775199E0,1.879424334E0
1.365373021E1,1.506349325E0,-2.000524759E0,1.733584523E0
1.366288281E1,1.611567736E0,-1.021336675E0,1.649898410E0
1.367203547E1,1.995027184E0,-4.567610323E-1,1.632642031E0
1.368118807E1,2.216917515E0,-2.628170252E-1,1.654937983E0
1.369032791E1,2.217375517E0,-3.634541109E-2,1.654174328E0
1.369949328E1,2.112920761E0,-8.994726092E-2,1.683342338E0
1.370864594E1,2.006480455E0,-3.800997138E-1,1.673568726E0
1.371778578E1,1.995790720E0,-5.500679612E-1,1.645622492E0
1.372695114E1,2.002204657E0,-7.768449783E-1,1.592631459E0
1.373610380E1,1.972731233E0,-1.021336675E0,1.501615286E0
1.374524364E1,1.920961976E0,-1.220167398E0,1.357302666E0
1.375440901E1,1.858197331E0,-1.367381573E0,1.170077920E0
1.376356166E1,1.782910466E0,-1.466033459E0,9.633061290E-1
1.377270151E1,1.704111099E0,-1.510319829E0,7.673768401E-1
1.378186693E1,1.620883226E0,-1.502531528E0,5.975613594E-1
1.379101953E1,1.519482613E0,-1.417776465E0,4.465293586E-1
1.380015937E1,1.377918720E0,-1.296217918E0,3.098522723E-1
1.380932474E1,1.202147365E0,-1.154195905E0,1.901262105E-1
1.381847739E1,9.970554113E-1,-9.946120381E-1,8.719844371E-2
1.382761724E1,7.640172243E-1,-8.759549856E-1,3.054236295E-3
1.383678260E1,5.299099684E-1,-7.867712975E-1,-7.559234649E-2
1.384593526E1,3.061871827E-1,-6.097782850E-1,-1.640124917E-1
1.385507510E1,6.841489673E-2,-2.415900975E-1,-2.252499312E-1
1.386424052E1,-2.391466945E-1,2.597627938E-1,-2.502946556E-1
1.387339312E1,-5.690042377E-1,6.876612902E-1,-2.432699203E-1
1.388253297E1,-8.031114340E-1,8.640434742E-1,-2.133384049E-1
1.389169838E1,-9.162709117E-1,8.344173431E-1,-1.878355294E-1
1.390085099E1,-1.030041218E0,7.568397522E-1,-2.441861928E-1
1.390999083E1,-1.232537031E0,7.382088900E-1,-4.408790171E-1
1.391915620E1,-1.352415800E0,8.197570443E-1,-7.136223316E-1
1.392830885E1,-1.110062122E0,1.226275921E0,-9.857547879E-1
1.393744870E1,-5.248705149E-1,1.772678733E0,-1.145644069E0
1.394661411E1,-6.180247068E-1,1.375169873E0,-1.033095479E0
1.395576672E1,-1.607902646E0,5.699204803E-1,-8.104416132E-1
1.396490656E1,-2.550134659E0,2.209739983E-1,-7.343910933E-1
1.397407198E1,-2.782562017E0,3.999522328E-1,-6.549809575E-1
1.398322458E1,-2.212336063E0,1.876370072E0,-2.704526186E-1
1.399236443E1,-1.449387789E0,2.438654900E0,-2.275405973E-1
1.400152984E1,-1.068066478E0,1.085322857E0,-5.346440673E-1
1.401068245E1,-1.360204101E0,-1.867665499E-1,-6.896465421E-1
1.401982229E1,-1.671430826E0,-1.206423283E0,-5.983248949E-1
1.402898771E1,-1.499477267E0,-1.688839912E0,-4.434750974E-1
1.403814031E1,-1.248419046E0,-1.732362866E0,-4.251496792E-1
1.404728015E1,-1.097692490E0,-1.578734756E0,-5.042544007E-1
1.405644557E1,-1.069135427E0,-1.372879267E0,-5.592306852E-1
1.406559818E1,-1.178935170E0,-1.085017443E0,-5.638120174E-1
1.407473802E1,-1.234675050E0,-7.777612805E-1,-5.772506595E-1
1.408390344E1,-1.231620789E0,-3.344388604E-1,-6.129852533E-1
1.409305604E1,-1.216502309E0,7.757759839E-2,-6.736118197E-1
1.410220864E1,-1.170383334E0,3.782671690E-1,-7.131641507E-1
1.411136130E1,-1.155722976E0,5.347967744E-1,-7.223268747E-1
1.412051390E1,-1.207797766E0,7.102626562E-1,-7.088882327E-1
1.412965375E1,-1.252847672E0,8.947384953E-1,-6.494833231E-1
1.413881916E1,-1.225664973E0,1.063790560E0,-5.809157491E-1
1.414797177E1,-1.208866715E0,1.171910524E0,-5.320479870E-1
1.415711161E1,-1.204743505E0,1.190693974E0,-5.253286362E-1
1.416627703E1,-1.206270576E0,1.159235358E0,-5.412106514E-1
1.417542963E1,-1.189472318E0,1.088682532E0,-5.636593103E-1
1.418458224E1,-1.182905674E0,9.686510563E-1,-5.799994469E-1
1.419373489E1,-1.142742515E0,8.247964978E-1,-5.856497884E-1
1.420288750E1,-1.133885264E0,7.366818190E-1,-6.032116413E-1
1.421204010E1,-1.152821541E0,7.214106321E-1,-6.296308041E-1
1.422119276E1,-1.146407604E0,7.146912813E-1,-6.436802745E-1
1.423034536E1,-1.145796776E0,6.687250137E-1,-6.986565590E-1
1.423949797E1,-1.150072694E0,6.215370893E-1,-7.571451664E-1
1.424865062E1,-1.163511276E0,6.129852533E-1,-7.768449783E-1
1.425780323E1,-1.143506050E0,6.455128193E-1,-7.663078904E-1
1.426695583E1,-1.140757203E0,8.084563613E-1,-7.401941419E-1
1.427610849E1,-1.155722976E0,1.019504070E0,-7.085828185E-1
1.428526109E1,-1.154654026E0,1.173132181E0,-6.867450476E-1
1.429441370E1,-1.154195905E0,1.331647038E0,-6.985038519E-1
1.430356635E1,-1.149614573E0,1.471378326E0,-7.345438004E-1
1.431271896E1,-1.094485521E0,1.603779435E0,-7.733326554E-1
1.432187156E1,-1.003774762E0,1.672041655E0,-7.989882231E-1
1.433102422E1,-8.794673681E-1,1.620272398E0,-8.035695553E-1
1.434017682E1,-8.011261821E-1,1.491994381E0,-8.322793841E-1
1.434932948E1,-7.496622801E-1,1.337602735E0,-8.764131069E-1
1.435848208E1,-7.163711190E-1,1.135106921E0,-9.077190161E-1
1.436763468E1,-7.094991207E-1,9.187142849E-1,-9.087880254E-1
1.437678734E1,-6.948387623E-1,7.235485911E-1,-9.078717232E-1
1.438593995E1,-7.023216486E-1,5.986303091E-1,-9.280297160E-1
1.439509255E1,-7.128587365E-1,4.816530645E-1,-9.567395449E-1
1.440424521E1,-6.743753552E-1,3.213056624E-1,-9.654440880E-1
1.441339781E1,-6.030589342E-1,1.841704547E-1,-9.220739603E-1
1.442255041E1,-6.129852533E-1,1.137702987E-1,-9.025267959E-1
1.443170307E1,-6.497887969E-1,3.649812192E-2,-9.254335761E-1
1.444085568E1,-6.406260729E-1,-1.725643501E-2,-9.497147799E-1
1.445000828E1,-6.045860648E-1,-5.864133686E-2,-9.463551044E-1
1.445916094E1,-5.361711979E-1,-1.415638477E-1,-8.921424150E-1
1.446831354E1,-4.805840850E-1,-2.199050188E-1,-7.786775231E-1
1.447746614E1,-4.598152637E-1,-2.531961799E-1,-6.430694461E-1
1.448661880E1,-4.248442650E-1,-2.338017821E-1,-5.120427012E-1
1.449577140E1,-3.345915973E-1,-2.602209449E-1,-3.599417508E-1
1.450492401E1,-1.794363856E-1,-3.368822634E-1,-1.444653720E-1
1.451406390E1,5.054761097E-2,-4.173613787E-1,1.527118087E-1
1.452322927E1,3.417690396E-1,-3.706315756E-1,4.265241027E-1
1.453238193E1,6.578825116E-1,-1.204896197E-1,6.429167390E-1
1.454153453E1,9.877400398E-1,6.642963737E-2,8.203678727E-1
1.455068713E1,1.336075664E0,5.833591148E-2,9.535325766E-1
1.455983979E1,1.648371339E0,2.031067200E-2,1.107771516E0
1.456897963E1,1.848118424E0,-1.383569092E-1,1.284611821E0
1.457814500E1,2.018392086E0,-6.294780970E-1,1.533379316E0
1.458729765E1,2.232188702E0,-1.132510781E0,1.774664044E0
1.459643750E1,2.427659750E0,-1.499782681E0,1.929666519E0
1.460560286E1,2.558991909E0,-1.677081108E0,2.000372171E0
1.461475552E1,2.582051277E0,-1.712510347E0,2.002357244E0
1.462389536E1,2.514858246E0,-1.830403805E0,1.975632787E0
1.463306078E1,2.427354336E0,-2.107881069E0,1.935469508E0
1.464221338E1,2.374974251E0,-2.489049911E0,1.869498014E0
1.465135323E1,2.399713516E0,-2.873730898E0,1.791156888E0
1.466051864E1,2.464921474E0,-2.916642904E0,1.735417008E0
1.466967125E1,2.496227264E0,-2.480956078E0,1.727476001E0
1.467881114E1,2.457591295E0,-1.866901994E0,1.736486077E0
1.468797651E1,2.394368649E0,-1.254832983E0,1.713579297E0
1.469712911E1,2.342751980E0,-6.224533319E-1,1.658450365E0
1.470626901E1,2.257538795E0,-2.611372061E-2,1.623937488E0
1.471543437E1,2.125748396E0,3.636068404E-1,1.637986898E0
1.472458698E1,2.022209883E0,5.622848868E-1,1.662115335E0
1.473372687E1,1.969829679E0,6.281036735E-1,1.672041655E0
1.474289224E1,1.942494273E0,5.367820263E-1,1.628518820E0
1.475204484E1,1.902331114E0,2.907632887E-1,1.574153423E0
1.476118474E1,1.862015128E0,-1.618745178E-2,1.524522066E0
1.477035010E1,1.863236904E0,-3.936910629E-1,1.464964390E0
1.477950271E1,1.884769201E0,-7.550072074E-1,1.355470061E0
1.478864260E1,1.875453830E0,-1.028666735E0,1.207339644E0
1.479780797E1,1.821699262E0,-1.219098449E0,1.051268101E0
1.480696062E1,1.742441773E0,-1.306144118E0,8.799254894E-1
1.481610047E1,1.633100152E0,-1.256360054E0,6.817055345E-1
1.482526583E1,1.487718463E0,-1.105022669E0,4.613423944E-1
1.483441849E1,1.311183691E0,-9.704836011E-1,2.634278834E-1
1.484355833E1,1.111131191E0,-8.887827396E-1,1.313321590E-1
1.485272370E1,9.017632604E-1,-8.038749695E-1,6.505523622E-2
1.486187635E1,6.981984377E-1,-6.988092661E-1,3.176405653E-2
1.487102896E1,4.969242513E-1,-5.685460567E-1,-9.162708884E-4
1.488018156E1,3.003841341E-1,-4.182776511E-1,-5.131116882E-2
1.488933422E1,1.075091213E-1,-2.412846684E-1,-1.449235082E-1
1.489848682E1,-1.104106456E-1,-8.063183725E-2,-2.596100867E-1
1.490763948E1,-3.880407214E-1,6.872031838E-2,-3.513898849E-1
1.491679208E1,-6.746807694E-1,1.585148573E-1,-3.889569938E-1
1.492593198E1,-9.213103652E-1,2.298312783E-1,-3.877353072E-1
1.493509734E1,-1.123806238E0,3.348970115E-1,-3.872771561E-1
1.494424995E1,-1.302479029E0,4.127800465E-1,-4.265241027E-1
1.495338984E1,-1.462368369E0,4.737120569E-1,-5.149442554E-1
1.496255521E1,-1.577971220E0,4.935645759E-1,-6.148177385E-1
1.497170781E1,-1.621494055E0,5.041016936E-1,-7.000309825E-1
1.498086047E1,-1.573848009E0,5.248705149E-1,-7.765395641E-1
1.499001307E1,-1.404948711E0,6.978929639E-1,-8.432746530E-1
1.499916568E1,-1.096928954E0,1.018282413E0,-8.834378719E-1
1.500830557E1,-9.329164624E-1,1.109909415E0,-7.963921428E-1
1.501747094E1,-1.347529054E0,7.808154821E-1,-6.036698222E-1
1.502662354E1,-2.075811625E0,8.596147895E-1,-5.257867575E-1
1.503576344E1,-2.424299955E0,1.338977218E0,-6.195518374E-1
1.504492880E1,-2.193247080E0,1.668681979E0,-5.338805318E-1
1.505408146E1,-1.589271903E0,1.973647475E0,-3.026748300E-1
1.506322130E1,-9.202414155E-1,1.693115830E0,-3.423798978E-1
1.507238666E1,-7.168292403E-1,7.142331600E-1,-6.332958937E-1
1.508153932E1,-9.833113551E-1,-2.652604282E-1,-7.455390692E-1
1.509067916E1,-1.197413325E0,-6.639909744E-1,-6.027535200E-1
1.509984458E1,-1.228566527E0,-6.957550049E-1,-5.705313683E-1
1.510899719E1,-1.109298587E0,-6.044333577E-1,-7.010999322E-1
1.511813703E1,-9.533798695E-1,-4.775298536E-1,-8.063184023E-1
1.512730245E1,-9.171871543E-1,-3.118375242E-1,-8.214368224E-1
1.513645505E1,-9.797990322E-1,-2.028012872E-1,-8.006680608E-1
1.514559489E1,-1.039051175E0,-6.597150117E-2,-7.852441669E-1
1.515476031E1,-1.067608237E0,2.137965336E-2,-7.574505806E-1
1.516391291E1,-1.063179612E0,1.801999360E-1,-7.024743557E-1
1.517305281E1,-1.074327588E0,3.636068404E-1,-6.386408210E-1
1.518221818E1,-1.043785214E0,4.488200247E-1,-5.938962698E-1
1.519137078E1,-1.022558331E0,4.616478086E-1,-5.375455618E-1
1.520052344E1,-1.049435616E0,4.685198367E-1,-4.680617154E-1
1.520967604E1,-1.073869467E0,4.970769584E-1,-4.103366435E-1
1.521882864E1,-1.081657767E0,5.325061083E-1,-4.049917459E-1
1.522798130E1,-1.082574010E0,5.799994469E-1,-4.416425824E-1
1.523713390E1,-1.084101200E0,5.654918551E-1,-4.880669713E-1
1.524628656E1,-1.086849928E0,4.773771465E-1,-5.227325559E-1
1.525543916E1,-1.130525589E0,4.040754735E-1,-5.572454333E-1
1.526459177E1,-1.156486630E0,3.558185399E-1,-5.757235289E-1
1.527374442E1,-1.157708287E0,3.521534503E-1,-5.848862529E-1
1.528289703E1,-1.184585571E0,4.008685052E-1,-6.137487888E-1
1.529204963E1,-1.193442822E0,4.538595080E-1,-6.401679516E-1
1.530120229E1,-1.189319611E0,5.488462448E-1,-6.578825116E-1
1.531035489E1,-1.192526579E0,7.055285573E-1,-6.769714952E-1
1.531950750E1,-1.197871447E0,8.278507590E-1,-6.875085831E-1
1.532866015E1,-1.180920482E0,9.362761378E-1,-6.759024858E-1
1.533781276E1,-1.173590302E0,1.065470338E0,-6.594096422E-1
1.534696541E1,-1.146254897E0,1.258956194E0,-6.714738607E-1
1.535611802E1,-1.070662498E0,1.448624253E0,-7.047650218E-1
1.536527062E1,-9.885035753E-1,1.651120186E0,-7.330167294E-1
1.537442328E1,-9.113841057E-1,1.786880970E0,-7.417212725E-1
1.538357588E1,-8.312104344E-1,1.794058442E0,-7.685985565E-1
1.539272854E1,-7.826480269E-1,1.829487562E0,-8.147175312E-1
1.540188114E1,-7.351546884E-1,1.850409031E0,-8.797727823E-1
1.541103375E1,-6.410841942E-1,1.640124917E0,-9.344435930E-1
1.542018640E1,-5.746545792E-1,1.374406338E0,-9.466605186E-1
1.542933901E1,-5.079194903E-1,1.346307397E0,-9.205468297E-1
1.543849166E1,-4.779879749E-1,1.359135151E0,-8.878664970E-1
1.544764427E1,-5.758762360E-1,1.220930934E0,-9.098569751E-1
1.545679687E1,-6.933116317E-1,9.866710305E-1,-9.410101771E-1
1.546594953E1,-7.325585485E-1,8.293778896E-1,-9.413156509E-1
1.547510213E1,-6.862868667E-1,6.010736823E-1,-9.199360013E-1
1.548425474E1,-6.039752364E-1,2.681619525E-1,-8.788564801E-1
1.549340739E1,-5.723638535E-1,7.482878864E-3,-8.289197087E-1
1.550256000E1,-5.854970813E-1,-2.640387416E-1,-7.647807598E-1
1.551171265E1,-5.998520255E-1,-5.118899941E-1,-6.700994372E-1
1.552086526E1,-5.833591223E-1,-6.241331697E-1,-5.483881235E-1
1.553001786E1,-5.470137000E-1,-6.019899845E-1,-4.308000207E-1
1.553917052E1,-4.731011987E-1,-6.291726828E-1,-3.350497186E-1
1.554832312E1,-3.810159862E-1,-7.148439884E-1,-2.275405973E-1
1.555746302E1,-3.164188862E-1,-6.876612902E-1,-1.085781008E-1
1.556662838E1,-2.531961799E-1,-5.022691488E-1,-1.527118147E-4
1.557578099E1,-1.294996142E-1,-2.400629669E-1,8.964183182E-2
1.558493364E1,8.032641560E-2,-1.771457121E-2,1.545443535E-1
1.559408625E1,3.527642787E-1,2.173089087E-1,2.160872221E-1
1.560323885E1,6.809419990E-1,5.068505406E-1,2.970244884E-1
1.561239151E1,1.008356094E0,7.730271816E-1,4.523324072E-1
1.562154411E1,1.251320601E0,8.490777016E-1,6.928535104E-1
1.563069677E1,1.386317849E0,4.538595080E-1,9.602518678E-1
1.563983661E1,1.533990145E0,-4.042281806E-1,1.206881523E0
1.564900198E1,1.845064163E0,-1.404948711E0,1.462521076E0
1.565815463E1,2.250514030E0,-2.114600420E0,1.672347069E0
1.566730724E1,2.538833857E0,-2.311904192E0,1.819866657E0
1.567645989E1,2.655353069E0,-2.063136578E0,1.895000935E0
1.568561250E1,2.666653633E0,-1.749619246E0,1.886296391E0
1.569475239E1,2.640387297E0,-1.673416018E0,1.848729253E0
1.570391776E1,2.559449911E0,-1.842315316E0,1.808718681E0
1.571307036E1,2.493631124E0,-2.113226175E0,1.758323789E0
1.572221026E1,2.489202499E0,-2.282278061E0,1.686396599E0
1.573137562E1,2.506917238E0,-2.225927353E0,1.599198103E0
1.574052823E1,2.524173498E0,-1.913479090E0,1.539182425E0
1.574966812E1,2.506764412E0,-1.336839199E0,1.517344594E0
1.575883349E1,2.467059374E0,-6.847597957E-1,1.533073902E0
1.576798614E1,2.438349485E0,-1.020114943E-1,1.579956412E0
1.577712599E1,2.415137291E0,3.941491842E-1,1.628976941E0
1.578629135E1,2.383526087E0,7.557707429E-1,1.660282850E0
1.579544401E1,2.329313278E0,9.654440880E-1,1.657228589E0
1.580458385E1,2.225469351E0,9.489512444E-1,1.623479247E0
1.581374927E1,2.105590582E0,7.230904698E-1,1.566059709E0
1.582290187E1,1.996401548E0,4.272876680E-1,1.497033954E0
1.583204172E1,1.922947168E0,4.902049154E-2,1.416249394E0
1.584120713E1,1.897138834E0,-3.799470067E-1,1.277128935E0
1.585035974E1,1.898513317E0,-7.915053368E-1,1.102121115E0
1.585949963E1,1.883089423E0,-1.127318621E0,9.203941226E-1
1.586866500E1,1.849950910E0,-1.356386304E0,7.487460375E-1
1.587781760E1,1.809787750E0,-1.466796994E0,5.958815217E-1
1.588695750E1,1.747939467E0,-1.457787037E0,4.610369802E-1
1.589612286E1,1.625617266E0,-1.362647533E0,3.312319219E-1
1.590527552E1,1.442515850E0,-1.240478039E0,2.156290859E-1
1.591441536E1,1.216960430E0,-1.132663488E0,1.229330078E-1
1.592358073E1,9.694145918E-1,-1.001331329E0,6.184828654E-2
1.593273338E1,7.217160463E-1,-8.278507590E-1,1.542389300E-2
1.594187323E1,4.834856093E-1,-6.403206587E-1,-2.611372061E-2
1.595103864E1,2.506000996E-1,-4.992149174E-1,-7.543963939E-2
1.596019125E1,3.038965166E-2,-3.883461356E-1,-1.276670843E-1
1.596934385E1,-1.814216375E-1,-2.496838123E-1,-1.617218107E-1
1.597849651E1,-3.903313875E-1,-1.047603041E-1,-1.601946950E-1
1.598764911E1,-5.996993184E-1,5.711421743E-2,-1.360662282E-1
1.599680177E1,-8.102889061E-1,2.238755226E-1,-1.010952219E-1
1.600595437E1,-1.015075445E0,3.092414141E-1,-8.002099395E-2
1.601510703E1,-1.169467092E0,3.432961702E-1,-9.147437662E-2
1.602424687E1,-1.285986185E0,3.771981895E-1,-1.510319859E-1
1.603341224E1,-1.429993391E0,4.028537571E-1,-2.773246467E-1
1.604256489E1,-1.632642031E0,3.994941115E-1,-4.581354558E-1
1.605171750E1,-1.814979911E0,4.871506989E-1,-6.493306160E-1
1.606087015E1,-1.814063668E0,8.793146014E-1,-8.426637650E-1
1.607002276E1,-1.460077643E0,1.395938754E0,-9.370396733E-1
1.607916265E1,-1.070051670E0,1.694184899E0,-7.916580439E-1
1.608832802E1,-1.221847177E0,9.741486907E-1,-5.534276366E-1
1.609748062E1,-1.990140319E0,1.815743446E-1,-4.172086716E-1
1.610662052E1,-2.433920860E0,3.084778599E-2,-4.188885093E-1
1.611578588E1,-1.913326383E0,-2.136438340E-1,-4.278984964E-1
1.612493849E1,-1.147476554E0,9.376505762E-2,-2.634278834E-1
1.613407838E1,-9.636115432E-1,2.640387416E-1,-2.182251811E-1
1.614324375E1,-1.163816690E0,-6.957550049E-1,-2.898470163E-1
1.615239640E1,-1.188556075E0,-1.219709277E0,-2.144073844E-1
1.616153625E1,-1.113727212E0,-7.623373866E-1,-5.619794875E-2
1.617070161E1,-9.988879561E-1,-6.284091473E-1,-7.253811508E-2
1.617985427E1,-8.768712282E-1,-7.942541242E-1,-2.993151546E-1
1.618899411E1,-9.211576581E-1,-7.041541934E-1,-5.231906772E-1
1.619815953E1,-1.043327093E0,-4.095730782E-1,-6.665870547E-1
1.620731213E1,-1.023016453E0,-2.168507688E-2,-7.215633392E-1
1.621645203E1,-9.133693576E-1,2.593046725E-1,-7.180509567E-1
1.622561739E1,-8.422056437E-1,5.034908652E-1,-6.969767213E-1
1.623477000E1,-8.444963098E-1,8.086090684E-1,-6.671979427E-1
1.624390989E1,-8.822161555E-1,1.036302328E0,-6.548282504E-1
1.625307526E1,-9.110786915E-1,1.153890491E0,-6.380299330E-1
1.626222791E1,-9.417737722E-1,1.268424392E0,-6.169557571E-1
1.627136776E1,-9.594883323E-1,1.359440565E0,-5.780141950E-1
1.628053312E1,-9.561286569E-1,1.330730796E0,-5.541911721E-1
1.628968578E1,-9.843803644E-1,1.304158926E0,-5.354076028E-1
1.629883838E1,-1.028208613E0,1.248724461E0,-5.357130170E-1
1.630799104E1,-1.031262875E0,1.179393291E0,-5.418215394E-1
1.631714364E1,-1.014159203E0,1.056460381E0,-5.531222224E-1
1.632629625E1,-1.030804753E0,9.159654379E-1,-5.683933496E-1
1.633544890E1,-1.087460876E0,7.939487100E-1,-5.957288146E-1
1.634460151E1,-1.104564548E0,6.526902914E-1,-6.390989423E-1
1.635375416E1,-1.121668339E0,5.815265775E-1,-6.849125028E-1
1.636290677E1,-1.120904684E0,5.728220344E-1,-7.276718020E-1
1.637205942E1,-1.116017938E0,6.064186096E-1,-7.637118101E-1
1.638121203E1,-1.101968408E0,6.455128193E-1,-7.953231335E-1
1.639036463E1,-1.084101200E0,7.207997441E-1,-8.185353279E-1
1.639951729E1,-1.080894232E0,7.954758406E-1,-8.435800672E-1
1.640866989E1,-1.078908920E0,9.261971712E-1,-8.704573512E-1
1.641782255E1,-1.064706802E0,1.088224411E0,-8.930587173E-1
1.642697515E1,-1.046381354E0,1.241241574E0,-9.089407325E-1
1.643612776E1,-1.015838981E0,1.341267824E0,-9.148964882E-1
1.644528041E1,-9.906415343E-1,1.418998241E0,-9.295567870E-1
1.645443302E1,-9.802571535E-1,1.596602082E0,-9.570449591E-1
1.646358568E1,-9.144383669E-1,1.687618256E0,-9.797990322E-1
1.647273828E1,-8.154810667E-1,1.583468795E0,-1.001636744E0
1.648189094E1,-7.634063363E-1,1.503295064E0,-1.031720996E0
1.649104354E1,-7.032378912E-1,1.533379316E0,-1.063637733E0
1.650019614E1,-5.610632300E-1,1.564990640E0,-1.073105931E0
1.650934880E1,-4.592044353E-1,1.617523551E0,-1.083337665E0
1.651850140E1,-4.723376334E-1,1.601030707E0,-1.122584581E0
1.652765406E1,-4.760027230E-1,1.393648028E0,-1.143811464E0
1.653680666E1,-4.544703662E-1,1.249793530E0,-1.120904684E0
1.654595932E1,-4.776825607E-1,1.212531805E0,-1.088682532E0
1.655511193E1,-5.535803437E-1,1.081046939E0,-1.078756213E0
1.656426453E1,-5.804576278E-1,7.485933304E-1,-1.028055906E0
1.657340442E1,-5.786250830E-1,4.277457893E-1,-9.397885203E-1
1.658256979E1,-5.740436912E-1,1.322484314E-1,-8.272398710E-1
1.659172245E1,-5.931326747E-1,-1.307213157E-1,-7.350019813E-1
1.660087505E1,-6.322268844E-1,-3.946073353E-1,-6.783458591E-1
1.661002765E1,-6.496360302E-1,-6.088619828E-1,-6.160394549E-1
1.661918031E1,-6.368082762E-1,-7.701256871E-1,-5.497625470E-1
1.662833291E1,-5.916055441E-1,-9.042066336E-1,-4.798205197E-1
1.663748557E1,-5.149442554E-1,-9.610154629E-1,-4.016320705E-1
1.664663818E1,-4.579827189E-1,-9.515473247E-1,-3.268032968E-1
1.665579083E1,-4.607315361E-1,-9.542961121E-1,-2.657185495E-1
1.666494344E1,-5.039489865E-1,-9.692618847E-1,-2.159345001E-1
1.667409609E1,-5.407525301E-1,-9.384140968E-1,-1.692046970E-1
1.668323594E1,-5.349494815E-1,-7.977665067E-1,-1.009425074E-1
1.669240130E1,-4.419479966E-1,-6.302416325E-1,2.290677279E-3
1.670155396E1,-2.499892414E-1,-5.787777901E-1,1.293469071E-1
1.671069380E1,-1.527118147E-3,-6.381826997E-1,2.586938143E-1
1.671985922E1,2.634278834E-1,-6.939224601E-1,3.785725832E-1
1.672901182E1,5.247178078E-1,-6.762079000E-1,4.840964675E-1
1.673816448E1,8.148702383E-1,-6.349757314E-1,6.065713167E-1
1.674731708E1,1.172521353E0,-6.668924689E-1,7.647807598E-1
1.675646969E1,1.521467805E0,-8.205205798E-1,9.518527389E-1
1.676560958E1,1.813605547E0,-1.049435616E0,1.159846187E0
1.677477495E1,2.015185118E0,-1.325080395E0,1.285986185E0
1.678392760E1,2.125137568E0,-1.581483603E0,1.336991906E0
1.679306745E1,2.218444586E0,-1.784742951E0,1.417929173E0
1.680223286E1,2.344431877E0,-1.711288571E0,1.502989650E0
1.681138547E1,2.487370014E0,-1.469087601E0,1.574000716E0
1.682053807E1,2.571666956E0,-1.203521848E0,1.652647257E0
1.682969073E1,2.548913002E0,-8.883246183E-1,1.704722047E0
1.683884333E1,2.467517614E0,-6.696413159E-1,1.690519810E0
1.684799599E1,2.385511160E0,-6.488724947E-1,1.643484592E0
1.685714859E1,2.323510170E0,-8.044858575E-1,1.618745208E0
1.686630125E1,2.272351742E0,-1.006065488E0,1.606986403E0
1.687545385E1,2.216612101E0,-1.165802002E0,1.577360392E0
1.688460646E1,2.177517653E0,-1.236660242E0,1.510014415E0
1.689375911E1,2.159192324E0,-1.243074179E0,1.442057610E0
1.690289896E1,2.158428907E0,-1.199093223E0,1.413347840E0
1.691206437E1,2.161635637E0,-1.090056896E0,1.425564766E0
1.692121698E1,2.159955978E0,-9.138274789E-1,1.458245158E0
1.693035687E1,2.145601034E0,-6.818582416E-1,1.484358788E0
1.693952224E1,2.093831778E0,-4.126273096E-1,1.487413049E0
1.694867484E1,1.994721770E0,-2.121167034E-1,1.473058224E0
1.695781474E1,1.851019859E0,-5.329642445E-2,1.456107140E0
1.696698010E1,1.709456086E0,7.299624383E-2,1.432436824E0
1.697613276E1,1.611720443E0,1.111742035E-1,1.422663212E0
1.698528536E1,1.558118701E0,4.428642616E-2,1.419761777E0
1.699443802E1,1.544527292E0,-9.376505762E-2,1.405712247E0
1.700359062E1,1.557965875E0,-2.722851634E-1,1.369977713E0
1.701273052E1,1.566365123E0,-4.857762754E-1,1.292552829E0
1.702189588E1,1.549414039E0,-6.839962006E-1,1.174811959E0
1.703104849E1,1.506349325E0,-8.196043372E-1,1.034164429E0
1.704020114E1,1.453969240E0,-9.028322697E-1,8.896990418E-1
1.704935375E1,1.402810693E0,-9.672766328E-1,7.519529462E-1
1.705850640E1,1.350277901E0,-1.037676811E0,6.392516494E-1
1.706765901E1,1.273463845E0,-1.106244445E0,5.520532131E-1
1.707681166E1,1.187181592E0,-1.143353343E0,4.891359508E-1
1.708596427E1,1.086849928E0,-1.132205367E0,4.384356141E-1
1.709511687E1,9.669712186E-1,-1.071273327E0,3.794888556E-1
1.710426953E1,8.374716043E-1,-9.649859667E-1,3.217637837E-1
1.711342213E1,7.140804529E-1,-8.509102464E-1,2.670929730E-1
1.712257479E1,5.929799676E-1,-7.427902818E-1,2.221956849E-1
1.713172739E1,4.645493329E-1,-6.226060390E-1,1.905843467E-1
1.714088005E1,3.370349705E-1,-4.885250926E-1,1.572931707E-1
1.715003265E1,2.141019702E-1,-3.684936166E-1,1.233911440E-1
1.715918531E1,8.994726092E-2,-2.481566966E-1,9.177979827E-2
1.716833791E1,-2.611372061E-2,-1.437018216E-1,5.619794875E-2
1.717749057E1,-1.356080920E-1,-8.246438205E-2,4.978405312E-2
1.718664318E1,-2.368560284E-1,-7.360709459E-2,4.963133857E-2
1.719579578E1,-3.367295563E-1,-6.597150117E-2,4.169032723E-2
1.720494844E1,-4.460712075E-1,-3.237490356E-2,2.565558441E-2
1.721410104E1,-5.578562617E-1,-5.497625098E-3,3.359660041E-3
1.722325370E1,-6.487197876E-1,-2.932066843E-2,-1.618745178E-2
1.723240630E1,-7.090409398E-1,-1.113269106E-1,-1.954711229E-2
1.724155896E1,-7.656970620E-1,-1.800472289E-1,-1.924168877E-2
1.725071156E1,-8.438854814E-1,-1.869192570E-1,-2.962609194E-2
1.725986416E1,-9.477295280E-1,-1.502684206E-1,-4.199574888E-2
1.726901682E1,-1.060889006E0,-1.017060652E-1,-5.131116882E-2
1.727816942E1,-1.178935170E0,-6.704048812E-2,-6.200099736E-2
1.728732208E1,-1.300188422E0,-8.047912270E-2,-7.574506104E-2
1.729647468E1,-1.363258362E0,-1.247655526E-1,-8.521319181E-2
1.730562734E1,-1.383569002E0,-1.308740228E-1,-1.024696305E-1
1.731476718E1,-1.370130420E0,1.710372418E-2,-1.916533262E-1
1.732393260E1,-1.210852027E0,1.180462316E-1,-3.377985358E-1
1.733308521E1,-7.513421178E-1,4.075878263E-1,-4.471401870E-1
1.734222510E1,-6.795676053E-2,7.250757217E-1,-4.517215490E-1
1.735139047E1,1.281252056E-1,6.433748603E-1,-4.605788291E-1
1.736054307E1,-3.396310806E-1,4.819584787E-1,-5.670189857E-1
1.736968297E1,-9.349017143E-1,6.122216582E-1,-7.519529462E-1
1.737884833E1,-1.473058224E0,-6.395570636E-1,-8.929060102E-1
1.738800099E1,-1.428160906E0,-1.322942495E0,-7.711946368E-1
1.739714083E1,-1.003469348E0,-8.551862091E-3,-4.308000207E-1
1.740630625E1,-1.088377118E0,9.944593310E-1,-3.637595475E-1
1.741545885E1,-1.428008199E0,1.118614078E0,-4.950917065E-1
1.742459875E1,-1.502226114E0,1.150378108E0,-5.152496696E-1
1.743376411E1,-1.317750216E0,9.910996556E-1,-5.137225389E-1
1.744291672E1,-1.150072694E0,5.616740584E-1,-6.404733658E-1
1.745205661E1,-1.145949483E0,1.664558798E-1,-7.916580439E-1
1.746122198E1,-1.189625025E0,-1.666085869E-1,-8.582404256E-1
1.747037463E1,-1.138313890E0,-2.580829561E-1,-8.467870355E-1
1.747952724E1,-1.052337170E0,-1.553079188E-1,-8.286142945E-1
1.748867989E1,-1.035080671E0,4.306473210E-2,-7.980719209E-1
1.749783250E1,-1.074327588E0,3.016058207E-1,-7.783721089E-1
1.750698515E1,-1.133121610E0,5.931326747E-1,-7.832589149E-1
1.751613776E1,-1.187334418E0,8.727480173E-1,-7.857022882E-1
1.752529041E1,-1.226275921E0,1.092042208E0,-7.702783942E-1
1.753444302E1,-1.244295835E0,1.226428628E0,-7.466080785E-1
1.754359562E1,-1.278350592E0,1.306754947E0,-7.188144922E-1
1.755274828E1,-1.311794519E0,1.315765023E0,-6.928535104E-1
1.756190088E1,-1.310725451E0,1.242921472E0,-6.580352187E-1
1.757105354E1,-1.279724956E0,1.189625025E0,-6.015318632E-1
1.758020614E1,-1.234216928E0,1.100135922E0,-5.328115225E-1
1.758935880E1,-1.185807228E0,9.558232427E-1,-4.602734149E-1
1.759851140E1,-1.182294846E0,8.348754644E-1,-4.181249440E-1
1.760766406E1,-1.177102685E0,7.215633392E-1,-4.008685052E-1
1.761681666E1,-1.181073189E0,6.006155610E-1,-3.800997138E-1
1.762596927E1,-1.180156946E0,4.903576374E-1,-3.683409095E-1
1.763512192E1,-1.145491362E0,4.036173224E-1,-3.668137789E-1
1.764427453E1,-1.107313395E0,3.590254784E-1,-3.775036037E-1
1.765342718E1,-1.097081661E0,3.228327632E-1,-3.938437700E-1
1.766257979E1,-1.087002754E0,3.023693860E-1,-4.030064642E-1
1.767173245E1,-1.091584086E0,3.205420971E-1,-3.993414044E-1
1.768088505E1,-1.092042208E0,3.855973184E-1,-4.030064642E-1
1.769003771E1,-1.079214454E0,4.807367921E-1,-4.201101959E-1
1.769919031E1,-1.060889006E0,5.758762360E-1,-4.329380095E-1
1.770834297E1,-1.037218690E0,6.771242023E-1,-4.358395338E-1
1.771749557E1,-1.031873703E0,7.795938253E-1,-4.413371384E-1
1.772664823E1,-1.043174386E0,8.718317747E-1,-4.579827189E-1
1.773580083E1,-1.031262875E0,8.524373770E-1,-4.608842432E-1
1.774495344E1,-9.773555994E-1,7.421793938E-1,-4.483618736E-1
1.775410609E1,-9.481876493E-1,6.519267559E-1,-4.401154518E-1
1.776325870E1,-9.518527389E-1,5.874823332E-1,-4.602734149E-1
1.777241135E1,-9.318475127E-1,4.963133931E-1,-4.837910235E-1
1.778156396E1,-8.845068216E-1,3.723114133E-1,-4.859289825E-1
1.779071661E1,-8.066238165E-1,2.073826492E-1,-4.729484916E-1
1.779986922E1,-7.235485911E-1,3.359660041E-3,-4.601207078E-1
1.780902187E1,-6.833853722E-1,-1.426328421E-1,-4.773771465E-1
1.781817448E1,-6.962131858E-1,-2.018850148E-1,-5.207473040E-1
1.782732713E1,-7.088882327E-1,-2.139492482E-1,-5.502206683E-1
1.783647974E1,-7.029324770E-1,-2.609844804E-1,-5.427377820E-1
1.784563234E1,-6.952968836E-1,-3.121429384E-1,-5.256340504E-1
1.785478500E1,-7.079719901E-1,-3.313846290E-1,-5.372401476E-1
1.786393760E1,-7.186617851E-1,-3.634541333E-1,-5.604523420E-1
1.787309026E1,-6.852179170E-1,-4.579827189E-1,-5.479300022E-1
1.788224286E1,-6.277982593E-1,-5.601469278E-1,-5.053234100E-1
1.789139552E1,-5.957288146E-1,-6.383354068E-1,-4.744756222E-1
1.790054812E1,-6.146650314E-1,-6.618530154E-1,-4.697415531E-1
1.790970078E1,-6.693359017E-1,-6.168029904E-1,-4.830274582E-1
1.791885338E1,-7.010999322E-1,-5.746545792E-1,-4.882196784E-1
1.792800604E1,-6.942279339E-1,-5.245651007E-1,-4.717268050E-1
1.793715864E1,-6.743753552E-1,-4.118637741E-1,-4.483618736E-1
1.794631130E1,-6.571189165E-1,-2.816005945E-1,-4.257605374E-1
1.795546390E1,-6.450546980E-1,-1.200314835E-1,-4.117110670E-1
1.796461651E1,-6.505523324E-1,8.551861346E-2,-4.210264683E-1
1.797376916E1,-6.644490957E-1,2.735068500E-1,-4.256078303E-1
1.798292177E1,-6.511631608E-1,4.422534108E-1,-4.091149569E-1
1.799207443E1,-6.212316751E-1,5.231906772E-1,-3.869717419E-1
1.800121427E1,-5.706840754E-1,5.089884996E-1,-3.377985358E-1
1.801037968E1,-4.929537475E-1,4.599680007E-1,-2.651077211E-1
1.801953229E1,-3.999522328E-1,3.513898849E-1,-1.673721522E-1
1.802867218E1,-3.164188862E-1,2.031067163E-1,-6.352811307E-2
1.803783755E1,-2.648022771E-1,2.565558441E-2,1.588202827E-2
1.804699021E1,-2.544178963E-1,-1.188097894E-1,5.268557742E-2
1.805614281E1,-2.706053257E-1,-2.272351831E-1,5.925218388E-2
1.806529547E1,-2.953446507E-1,-2.929012477E-1,5.192201585E-2
1.807444807E1,-3.174878657E-1,-2.846548259E-1,4.016320780E-2
1.808360073E1,-3.170297146E-1,-1.948602796E-1,2.535016090E-2
1.809275333E1,-3.092414141E-1,-3.161134571E-2,3.970507067E-3
1.810190599E1,-2.997733057E-1,1.719534993E-1,-2.489202656E-2
1.811105859E1,-3.005368412E-1,3.616215885E-1,-6.276455522E-2
1.812021120E1,-3.113794029E-1,4.831801951E-1,-1.044548824E-1
1.812936385E1,-3.280249834E-1,5.716003180E-1,-1.406475753E-1
1.813851646E1,-3.432961702E-1,6.407787800E-1,-1.695101112E-1
1.814766911E1,-3.483356535E-1,6.617003083E-1,-1.904316396E-1
1.815682172E1,-3.411581814E-1,6.248967648E-1,-2.055501044E-1
1.816597437E1,-3.180987239E-1,5.283828974E-1,-2.247917950E-1
1.817512698E1,-2.834331393E-1,3.839175105E-1,-2.446443290E-1
1.818427963E1,-2.408265322E-1,2.374668717E-1,-2.502946556E-1
1.819343224E1,-1.974563748E-1,1.327065676E-1,-2.383831441E-1
1.820258489E1,-1.756185889E-1,9.055810422E-2,-2.229592502E-1
1.821173750E1,-1.884463727E-1,7.314895838E-2,-2.034121305E-1
1.822089015E1,-2.382304370E-1,6.474980712E-2,-1.867665499E-1
1.823004276E1,-3.013004065E-1,6.948387623E-2,-1.835595965E-1
1.823919541E1,-3.408527672E-1,7.849387079E-2,-1.812689304E-1
1.824834802E1,-3.436015844E-1,1.044548824E-1,-1.698155403E-1
1.825750068E1,-3.008422852E-1,1.580567211E-1,-1.634016484E-1
1.826665328E1,-2.440334857E-1,2.130329758E-1,-1.728697717E-1
1.827580594E1,-1.950129867E-1,2.588465214E-1,-1.731752008E-1
1.828495854E1,-1.719534993E-1,2.945810854E-1,-1.681357026E-1
1.829411120E1,-1.702736765E-1,3.161134422E-1,-1.748550236E-1
1.830326380E1,-1.763821393E-1,3.071034551E-1,-1.858502775E-1
1.831241646E1,-1.811162084E-1,2.745758295E-1,-1.834068894E-1
1.832156906E1,-1.751604527E-1,2.330382317E-1,-1.724116355E-1
1.833072172E1,-1.635543555E-1,1.747023165E-1,-1.673721522E-1
