"Time (s)","Gyroscope x (rad/s)","Gyroscope y (rad/s)","Gyroscope z (rad/s)"
7.386638673E0,3.892624080E-1,-1.663031727E-1,-3.939964995E-2
7.395790704E0,3.791834414E-1,-2.880144715E-1,-3.145863488E-2
7.404942787E0,3.524588645E-1,-4.072824121E-1,-1.068982668E-2
7.414094818E0,3.234436214E-1,-4.940227270E-1,2.275406010E-2
7.423246902E0,2.692309320E-1,-5.179984570E-1,6.688777357E-2
7.432398933E0,1.791309565E-1,-4.619532526E-1,1.113269106E-1
7.441551016E0,6.352811307E-2,-3.500154912E-1,1.372879148E-1
7.450690339E0,-6.337540597E-2,-2.313583940E-1,1.406475753E-1
7.459855131E0,-1.806580722E-1,-1.363716573E-1,1.287360638E-1
7.469007162E0,-2.635805905E-1,-8.368607610E-2,1.079672500E-1
7.478159245E0,-2.838912606E-1,-6.566607952E-2,7.971556485E-2
7.487311329E0,-2.382304370E-1,-6.154286116E-2,3.802524135E-2
7.496463360E0,-1.408002973E-1,-4.169032723E-2,1.527118147E-4
7.505615443E0,-2.351761982E-2,9.620844387E-3,-2.535016090E-2
7.514767475E0,8.078455180E-2,7.055285573E-2,-3.802524135E-2
7.523919558E0,1.481304616E-1,1.236965731E-1,-4.306473210E-2
7.533071589E0,1.539335102E-1,1.658450365E-1,-4.978405312E-2
7.542223673E0,1.081199646E-1,2.122694254E-1,-6.597150117E-2
7.551375704E0,4.352286831E-2,2.669402659E-1,-7.879929990E-2
7.560527787E0,-1.985253533E-3,3.295520842E-1,-7.116370648E-2
7.569679870E0,-1.740914769E-2,3.790307343E-1,-4.993676394E-2
7.578831902E0,-1.328592747E-2,3.910949528E-1,-2.550287358E-2
7.587983985E0,-1.374406274E-3,3.587200642E-1,-5.192201585E-3
7.597136016E0,2.076880634E-2,2.954973578E-1,4.123218823E-3
7.606288100E0,6.139015034E-2,2.189887464E-1,1.053711493E-2
7.615440131E0,1.127013192E-1,1.383569092E-1,2.137965336E-2
7.624592214E0,1.614163816E-1,6.077930331E-2,4.062134400E-2
7.633744245E0,1.864611208E-1,-6.566607859E-3,5.375456065E-2
7.642896329E0,1.765348613E-1,-6.688777357E-2,5.314370990E-2
7.652048360E0,1.388150454E-1,-1.139230132E-1,4.489727318E-2
7.661200443E0,9.620844573E-2,-1.623326540E-1,3.237490356E-2
7.670352527E0,6.520794332E-2,-2.142546773E-1,2.183778957E-2
7.679504558E0,4.199574888E-2,-2.432699203E-1,1.374406368E-2
7.688656641E0,2.794626169E-2,-2.396048307E-1,5.192201585E-3
7.697808673E0,1.725643501E-2,-2.197522968E-1,-2.901524538E-3
7.706960756E0,1.160609815E-2,-1.980672181E-1,-1.206423342E-2
7.716112787E0,7.788302377E-3,-1.831014603E-1,-2.061609551E-2
7.725264870E0,6.413896102E-3,-1.722589284E-1,-2.672456764E-2
7.734416902E0,1.252236869E-2,-1.589729935E-1,-2.489202656E-2
7.743568985E0,2.886253223E-2,-1.288887709E-1,-2.061609551E-2
7.752721068E0,4.382828996E-2,-7.574506104E-2,-2.351761982E-2
7.761873100E0,5.008947477E-2,-1.068982668E-2,-2.473931387E-2
7.771025183E0,4.642439261E-2,5.024218559E-2,-2.122694254E-2
7.780177214E0,3.436015919E-2,9.834641218E-2,-1.817270555E-2
7.789329298E0,2.855710872E-2,1.200314835E-1,-2.260134928E-2
7.798481329E0,3.176405653E-2,1.181989461E-1,-3.298575059E-2
7.807633412E0,4.611896724E-2,1.012479365E-1,-4.260659590E-2
7.816785495E0,6.413896382E-2,8.078455180E-2,-4.550812021E-2
7.825937527E0,7.666133344E-2,5.192201585E-2,-3.985778242E-2
7.835089610E0,7.284353673E-2,4.886778072E-3,-3.741439432E-2
7.844241641E0,5.421269313E-2,-5.589252338E-2,-3.939964995E-2
7.853393725E0,4.489727318E-2,-1.221694499E-1,-3.817795217E-2
7.862545756E0,4.963133857E-2,-1.734806150E-1,-3.313846514E-2
7.871697839E0,6.108472496E-2,-2.101314515E-1,-2.764083818E-2
7.880849870E0,6.261184067E-2,-2.402156889E-1,-2.870982140E-2
7.890001954E0,5.176930502E-2,-2.722851634E-1,-3.558185324E-2
7.899154037E0,4.230117425E-2,-3.042019308E-1,-4.535540938E-2
7.908306068E0,4.688252881E-2,-3.277195692E-1,-5.268557742E-2
7.917458152E0,6.551336497E-2,-3.434488773E-1,-5.558710173E-2
7.926610183E0,8.704573661E-2,-3.481829464E-1,-5.482354015E-2
7.935762266E0,9.987352788E-2,-3.457395434E-1,-4.978405312E-2
7.944914298E0,9.315420687E-2,-3.469612300E-1,-4.443913698E-2
7.954066381E0,7.330167294E-2,-3.342861533E-1,-4.275930673E-2
7.963218412E0,4.718795046E-2,-3.090887070E-1,-4.291202128E-2
7.972370495E0,2.764083818E-2,-2.657185495E-1,-4.367557913E-2
7.981522579E0,1.313321572E-2,-2.170034945E-1,-4.260659590E-2
7.990674610E0,9.162708884E-4,-1.675248593E-1,-4.581354558E-2
7.999826693E0,-7.482878864E-3,-1.169772521E-1,-5.375456065E-2
8.008978725E0,-7.177455351E-3,-7.238540053E-2,-5.986303091E-2
8.018130808E0,3.054236295E-3,-4.230117425E-2,-6.108472496E-2
8.027282839E0,1.832541823E-2,-2.901524492E-2,-5.619794875E-2
8.036434923E0,3.237490356E-2,-3.191677108E-2,-4.566083103E-2
8.045586954E0,4.046862945E-2,-4.153761268E-2,-3.573456407E-2
8.054739037E0,4.611896724E-2,-5.054761097E-2,-2.718270384E-2
8.063891120E0,5.238015205E-2,-6.245913357E-2,-1.740914769E-2
8.073043152E0,6.474980712E-2,-7.269082218E-2,-9.315420873E-3
8.082195235E0,7.696675509E-2,-6.780404598E-2,-1.374406274E-3
8.091347266E0,7.986827940E-2,-4.428642616E-2,-1.527118147E-4
8.100499350E0,7.895200700E-2,-3.970507067E-3,-5.039489828E-3
8.109651433E0,8.353336155E-2,4.001049697E-2,-9.926267900E-3
8.118803464E0,8.811471611E-2,8.093725890E-2,-1.542389300E-2
8.127955548E0,8.597674966E-2,1.056765765E-1,-1.725643501E-2
8.137107579E0,7.482878864E-2,1.062874198E-1,-1.679829881E-2
8.146259662E0,5.772506446E-2,8.872556686E-2,-1.374406368E-2
8.155411745E0,3.833066672E-2,5.803048983E-2,-1.572931744E-2
8.164563777E0,2.626643144E-2,2.779355086E-2,-2.122694254E-2
8.173715860E0,2.397575416E-2,6.108472589E-3,-2.428117767E-2
8.182867891E0,3.206948191E-2,-5.344913341E-3,-2.489202656E-2
8.192019975E0,4.199574888E-2,-2.901524538E-3,-2.305948362E-2
8.201172006E0,4.489727318E-2,1.649287529E-2,-1.985253580E-2
8.210324089E0,4.092676565E-2,4.902049154E-2,-1.756185852E-2
8.219476120E0,2.519745007E-2,7.605048269E-2,-1.282779220E-2
8.228628204E0,7.788302377E-3,8.994726092E-2,-1.114796288E-2
8.237780287E0,-1.527118147E-3,1.036913246E-1,-1.114796288E-2
8.246932318E0,-2.290677279E-3,1.181989461E-1,-9.926267900E-3
8.256084402E0,1.114796288E-2,1.308740228E-1,-7.482878864E-3
8.265236433E0,3.206948191E-2,1.382041872E-1,-3.665083554E-3
8.274388516E0,5.115845799E-2,1.363716573E-1,1.527118147E-4
8.283540600E0,6.474980712E-2,1.334701329E-1,3.970507067E-3
8.292692631E0,7.269082218E-2,1.316375881E-1,3.970507067E-3
8.301844714E0,7.284353673E-2,1.238492802E-1,3.359660041E-3
8.310996745E0,6.917845458E-2,1.148392856E-1,4.581354558E-3
8.320148829E0,6.184828654E-2,9.910997003E-2,3.970507067E-3
8.329300860E0,5.833591148E-2,8.521319181E-2,-3.359660041E-3
8.338452943E0,6.093201414E-2,8.093725890E-2,-8.857285604E-3
8.347605027E0,6.642963737E-2,7.971556485E-2,-1.130067464E-2
8.356757058E0,6.826218218E-2,7.666133344E-2,-1.068982668E-2
8.365909141E0,6.597150117E-2,6.474980712E-2,-1.191152167E-2
8.375061173E0,6.612421572E-2,4.963133857E-2,-1.435491070E-2
8.384213256E0,6.994201243E-2,3.512371704E-2,-1.542389300E-2
8.393365339E0,7.498150319E-2,2.489202656E-2,-1.481304597E-2
8.402517370E0,6.826218218E-2,2.428117767E-2,-1.313321572E-2
8.411669454E0,4.779879749E-2,3.878879920E-2,-1.084253844E-2
8.420821485E0,1.664558798E-2,5.803048983E-2,-1.343864016E-2
8.429973568E0,-1.236965694E-2,7.482878864E-2,-1.863084175E-2
8.439125600E0,-2.718270384E-2,8.246438205E-2,-2.473931387E-2
8.448277683E0,-2.397575416E-2,7.711946964E-2,-3.084778599E-2
8.457429766E0,-9.009997360E-3,6.093201414E-2,-3.619270027E-2
8.466581798E0,1.084253844E-2,4.275930673E-2,-3.787253052E-2
8.475733881E0,3.008422814E-2,2.901524492E-2,-3.649812192E-2
8.484885964E0,4.184303805E-2,2.061609551E-2,-3.405473381E-2
8.494037995E0,4.795150831E-2,1.572931744E-2,-3.145863488E-2
8.503190079E0,4.917320609E-2,1.695101149E-2,-2.901524492E-2
8.512342110E0,4.611896724E-2,2.061609551E-2,-2.473931387E-2
8.521494193E0,4.474456236E-2,2.244863659E-2,-1.863084175E-2
8.530646225E0,4.535540938E-2,2.122694254E-2,-1.068982668E-2
8.539798308E0,4.291202128E-2,2.122694254E-2,-7.177455351E-3
8.548950391E0,3.787253052E-2,3.268032894E-2,-5.344913341E-3
8.558102423E0,3.405473381E-2,4.535540938E-2,-4.123218823E-3
8.567254506E0,3.206948191E-2,4.779879749E-2,-1.068982761E-3
8.576406537E0,3.466558084E-2,4.001049697E-2,-4.581354442E-4
8.585558620E0,4.031591862E-2,2.855710872E-2,-1.679830020E-3
8.594710704E0,4.474456236E-2,1.466033421E-2,-1.679830020E-3
8.603862735E0,4.428642616E-2,1.985253533E-3,-2.137965523E-3
8.613014818E0,4.062134400E-2,-7.024743594E-3,-4.734066315E-3
8.622166850E0,3.329117596E-2,-1.252236869E-2,-7.177455351E-3
8.631318933E0,2.718270384E-2,-1.969982497E-2,-1.084253844E-2
8.640471016E0,1.679829881E-2,-2.580829710E-2,-1.099525020E-2
8.649623048E0,1.068982668E-2,-2.275406010E-2,-1.160609815E-2
8.658775131E0,1.985253533E-3,-1.801999472E-2,-8.551862091E-3
8.667927162E0,-1.527118124E-2,-1.496575773E-2,-9.315420873E-3
8.677079245E0,-3.436015919E-2,-1.450762246E-2,-1.191152167E-2
8.686231329E0,-4.917320609E-2,-1.863084175E-2,-1.634016447E-2
8.695383360E0,-5.711421743E-2,-2.351761982E-2,-1.817270555E-2
8.704535443E0,-6.200099736E-2,-2.473931387E-2,-2.000524849E-2
8.713687475E0,-6.459710002E-2,-2.122694254E-2,-2.000524849E-2
8.722839558E0,-6.398624927E-2,-1.634016447E-2,-1.695101149E-2
8.731991641E0,-6.398624927E-2,-1.084253844E-2,-1.145338640E-2
8.741143673E0,-6.841489673E-2,-1.740914769E-2,-2.443389036E-3
8.750295756E0,-6.948387623E-2,-2.886253223E-2,1.832541777E-3
8.759447787E0,-6.627693027E-2,-3.665083647E-2,4.428642802E-3
8.768599870E0,-5.589252338E-2,-3.481829539E-2,9.315420873E-3
8.777751954E0,-4.932591692E-2,-2.336490713E-2,1.298050396E-2
8.786903985E0,-3.649812192E-2,-1.068982668E-2,1.313321572E-2
8.796056068E0,-2.367033064E-2,7.482878864E-3,1.252236869E-2
8.805208100E0,-7.177455351E-3,2.550287358E-2,1.389677543E-2
8.814360183E0,7.482878864E-3,3.512371704E-2,1.588202827E-2
8.823512266E0,1.236965694E-2,3.695625812E-2,1.893626526E-2
8.832664298E0,3.206948051E-3,3.756710514E-2,2.000524849E-2
8.841816381E0,-1.282779220E-2,3.268032894E-2,2.000524849E-2
8.850968412E0,-2.076880634E-2,2.367033064E-2,1.740914769E-2
8.860120495E0,-1.756185852E-2,1.588202827E-2,1.450762246E-2
8.869272579E0,-7.635590620E-3,1.221694518E-2,1.206423342E-2
8.878424610E0,-3.054236295E-4,2.000524849E-2,1.023169141E-2
8.887576693E0,3.359660041E-3,2.916795574E-2,9.009997360E-3
8.896728725E0,-2.137965523E-3,2.672456764E-2,7.177455351E-3
8.905880808E0,-6.413896102E-3,9.773556143E-3,4.123218823E-3
8.915032891E0,-1.359135192E-2,-5.344913341E-3,4.123218823E-3
8.924184923E0,-2.153236605E-2,-1.908897609E-2,1.023169141E-2
8.933337006E0,-2.382304333E-2,-3.542914242E-2,1.695101149E-2
8.942489037E0,-1.328592747E-2,-4.382828996E-2,2.244863659E-2
8.951641120E0,-4.581354442E-4,-4.550812021E-2,2.993151546E-2
8.960793204E0,1.313321572E-2,-4.367557913E-2,3.665083647E-2
8.969945235E0,1.557660475E-2,-4.245388508E-2,4.031591862E-2
8.979097318E0,9.926267900E-3,-4.062134400E-2,4.031591862E-2
8.988249402E0,1.374406274E-3,-4.077405483E-2,3.787253052E-2
8.997401433E0,-7.941014133E-3,-3.283303976E-2,3.038965166E-2
9.006553516E0,-1.298050396E-2,-2.336490713E-2,2.305948362E-2
9.015705548E0,-1.908897609E-2,-1.969982497E-2,1.511846948E-2
9.024857631E0,-2.825168520E-2,-2.397575416E-2,8.246437646E-3
9.034009714E0,-3.741439432E-2,-3.420744836E-2,2.137965523E-3
9.043161745E0,-4.703523964E-2,-5.115845799E-2,-2.137965523E-3
9.052313829E0,-5.482354015E-2,-7.345438004E-2,1.527118147E-4
9.061465860E0,-5.405998230E-2,-9.391776472E-2,5.650337320E-3
9.070617943E0,-4.596625641E-2,-1.059819981E-1,1.252236869E-2
9.079770027E0,-3.924693540E-2,-1.010952219E-1,1.557660475E-2
9.088922058E0,-3.268032894E-2,-8.414421231E-2,1.618745178E-2
9.098074141E0,-2.733541466E-2,-5.222744122E-2,1.252236869E-2
9.107226225E0,-1.847812906E-2,-1.191152167E-2,7.177455351E-3
9.116378256E0,-1.023169141E-2,3.451287001E-2,2.901524538E-3
9.125530339E0,-4.428642802E-3,7.543963939E-2,3.512371797E-3
9.134682370E0,-1.679830020E-3,1.026223376E-1,5.955760833E-3
9.143834454E0,-2.901524538E-3,1.097997949E-1,1.023169141E-2
9.152986537E0,-1.160609815E-2,1.050657257E-1,1.374406368E-2
9.162138568E0,-2.687728032E-2,9.590301663E-2,1.374406368E-2
9.171290652E0,-4.291202128E-2,8.994726092E-2,1.481304597E-2
9.180442683E0,-5.085303262E-2,8.444963396E-2,1.542389300E-2
9.189594766E0,-4.902049154E-2,8.322793990E-2,1.847812906E-2
9.198746850E0,-4.046862945E-2,9.361234307E-2,2.214321308E-2
9.207898881E0,-2.458660305E-2,1.062874198E-1,2.779355086E-2
9.217050964E0,-6.719320081E-3,1.050657257E-1,3.268032894E-2
9.226202995E0,3.970507067E-3,9.315420687E-2,3.466558084E-2
9.235355079E0,5.955760833E-3,6.780404598E-2,3.588727489E-2
9.244507162E0,1.114796288E-2,3.466558084E-2,3.603998944E-2
9.253659193E0,1.893626526E-2,5.803049076E-3,3.603998944E-2
9.262811277E0,3.008422814E-2,-1.527118124E-2,3.924693540E-2
9.271963360E0,3.695625812E-2,-2.916795574E-2,3.741439432E-2
9.281115391E0,3.405473381E-2,-4.184303805E-2,3.558185324E-2
9.290267475E0,2.244863659E-2,-5.161659420E-2,3.008422814E-2
9.299419558E0,1.206423342E-2,-5.757235363E-2,2.504473738E-2
9.308571589E0,5.192201585E-3,-5.344913527E-2,1.954711229E-2
9.317723673E0,1.527118147E-3,-4.260659590E-2,1.527118124E-2
9.326875704E0,-2.901524538E-3,-2.932066843E-2,1.328592747E-2
9.336027787E0,-3.665083554E-3,-2.275406010E-2,1.572931744E-2
9.345179870E0,-5.497625098E-3,-2.214321308E-2,1.511846948E-2
9.354331902E0,-6.108472589E-3,-2.397575416E-2,1.450762246E-2
9.363483985E0,0.000000000E0,-2.275406010E-2,1.527118124E-2
9.372636068E0,7.482878864E-3,-2.092151903E-2,1.404948719E-2
9.381788100E0,1.542389300E-2,-1.359135192E-2,1.404948719E-2
9.390940183E0,2.031067200E-2,-8.857285604E-3,1.404948719E-2
9.400092214E0,2.015795931E-2,-9.162708884E-4,1.404948719E-2
9.409244298E0,1.954711229E-2,1.053711493E-2,1.404948719E-2
9.418396381E0,1.068982668E-2,2.367033064E-2,1.588202827E-2
9.427548412E0,-1.068982761E-3,2.794626169E-2,1.817270555E-2
9.436700495E0,-7.788302377E-3,2.244863659E-2,1.634016447E-2
9.445852579E0,-1.068982668E-2,1.038440317E-2,1.572931744E-2
9.455004610E0,-9.926267900E-3,1.527118147E-4,1.328592747E-2
9.464156693E0,-6.261184346E-3,-8.857285604E-3,1.267508045E-2
9.473308777E0,-2.596100792E-3,-1.007897966E-2,1.389677543E-2
9.482460808E0,3.054236295E-3,-1.007897966E-2,1.771457121E-2
9.491612891E0,7.941014133E-3,-1.236965694E-2,2.137965336E-2
9.500764923E0,1.114796288E-2,-1.954711229E-2,2.382304333E-2
9.509917006E0,1.053711493E-2,-2.809897438E-2,2.748812735E-2
9.519069089E0,9.926267900E-3,-3.161134571E-2,3.176405653E-2
9.528221120E0,1.114796288E-2,-3.054236248E-2,3.176405653E-2
9.537373204E0,1.236965694E-2,-3.222219273E-2,3.298575059E-2
9.546525287E0,1.618745178E-2,-3.710897267E-2,3.054236248E-2
9.555677318E0,2.657185495E-2,-3.955236077E-2,3.252761811E-2
9.564829402E0,3.222219273E-2,-4.123219103E-2,3.802524135E-2
9.573981485E0,3.100049868E-2,-4.489727318E-2,4.291202128E-2
9.583133516E0,2.046338283E-2,-4.963133857E-2,4.642439261E-2
9.592285600E0,1.985253533E-3,-4.917320609E-2,4.459185153E-2
9.601437631E0,-9.162709117E-3,-4.306473210E-2,3.833066672E-2
9.610589714E0,-8.551862091E-3,-2.809897438E-2,2.855710872E-2
9.619741798E0,-5.650337320E-3,-4.581354558E-3,1.572931744E-2
9.628893829E0,-1.527118147E-3,1.710372418E-2,4.123218823E-3
9.638045912E0,3.970507067E-3,2.840439789E-2,-1.832541777E-3
9.647197995E0,8.246437646E-3,3.573456407E-2,-6.108472589E-4
9.656350027E0,3.817795310E-3,3.634541109E-2,5.344913341E-3
9.665502110E0,-5.344913341E-3,3.817795217E-2,1.023169141E-2
9.674654193E0,-2.275406010E-2,4.474456236E-2,1.191152167E-2
9.683806225E0,-3.512371704E-2,5.314370990E-2,1.313321572E-2
9.692958308E0,-3.833066672E-2,6.337540597E-2,8.093725890E-3
9.702110391E0,-3.100049868E-2,7.360709459E-2,2.137965523E-3
9.711262423E0,-1.572931744E-2,8.933641016E-2,-4.581354558E-3
9.720414506E0,3.359660041E-3,1.014006436E-1,-1.053711493E-2
9.729566537E0,2.122694254E-2,1.043021679E-1,-1.527118124E-2
9.738718620E0,3.008422814E-2,9.407047927E-2,-2.137965336E-2
9.747870704E0,3.206948191E-2,7.727217674E-2,-2.428117767E-2
9.757022735E0,3.038965166E-2,5.619794875E-2,-2.061609551E-2
9.766174818E0,2.748812735E-2,3.329117596E-2,-1.267508045E-2
9.775326902E0,2.076880634E-2,8.551862091E-3,-4.886778072E-3
9.784478933E0,5.650337320E-3,-1.908897609E-2,4.275931045E-3
9.793631016E0,-1.084253844E-2,-4.443913698E-2,8.399149403E-3
9.802783100E0,-2.550287358E-2,-6.245913357E-2,1.084253844E-2
9.811935131E0,-3.100049868E-2,-7.101099193E-2,1.068982668E-2
9.821087214E0,-2.718270384E-2,-7.467607409E-2,8.399149403E-3
9.830239298E0,-1.801999472E-2,-7.284353673E-2,3.512371797E-3
9.839391329E0,-6.872031838E-3,-6.856760383E-2,-1.527118147E-4
9.848543412E0,4.581354442E-4,-6.245913357E-2,6.108472589E-4
9.857695495E0,-2.137965523E-3,-4.932591692E-2,3.054236295E-3
9.866847527E0,-5.344913341E-3,-3.955236077E-2,5.344913341E-3
9.875999610E0,-4.734066315E-3,-3.665083647E-2,4.734066315E-3
9.885151693E0,-1.679830020E-3,-3.298575059E-2,-1.832541777E-3
9.894303725E0,1.985253533E-3,-2.214321308E-2,-5.497625098E-3
9.903455808E0,7.330167107E-3,3.206948051E-3,-6.108472589E-3
9.912607839E0,1.389677543E-2,3.268032894E-2,-7.330167107E-3
9.921759923E0,2.168507688E-2,6.047387794E-2,-8.551862091E-3
9.930912006E0,3.008422814E-2,7.177454978E-2,-1.206423342E-2
9.940064037E0,3.130592033E-2,7.360709459E-2,-1.267508045E-2
9.949216120E0,2.519745007E-2,7.910472155E-2,-1.282779220E-2
9.958368204E0,2.076880634E-2,8.506047726E-2,-1.038440317E-2
9.967520235E0,2.321219631E-2,8.750387281E-2,-3.665083554E-3
9.976672318E0,2.504473738E-2,8.444963396E-2,1.221694518E-3
9.985824402E0,2.137965336E-2,8.399149776E-2,6.108472589E-3
9.994976433E0,1.023169141E-2,8.276980370E-2,6.566607859E-3
1.000412852E1,-7.635590737E-4,7.666133344E-2,4.734066315E-3
1.001328060E1,-5.650337320E-3,7.238540053E-2,2.290677279E-3
1.002243263E1,-3.206948051E-3,6.948387623E-2,1.068982761E-3
1.003158471E1,4.275931045E-3,6.032116711E-2,-1.374406274E-3
1.004073680E1,9.926267900E-3,5.619794875E-2,-5.497625098E-3
1.004988883E1,1.175880991E-2,5.741964281E-2,-5.497625098E-3
1.005904091E1,1.053711493E-2,6.093201414E-2,-7.330167107E-3
1.006819300E1,1.038440317E-2,6.581879407E-2,-4.886778072E-3
1.007734503E1,1.282779220E-2,7.299624383E-2,-4.275931045E-3
1.008649711E1,2.076880634E-2,7.543963939E-2,-1.221694518E-3
1.009564919E1,3.130592033E-2,7.971556485E-2,1.221694518E-3
1.010480123E1,3.863608837E-2,8.643488586E-2,1.985253533E-3
1.011395331E1,4.214845970E-2,9.422318637E-2,3.817795310E-3
1.012310539E1,4.153761268E-2,1.062874198E-1,1.985253533E-3
1.013225742E1,3.466558084E-2,1.183516532E-1,-1.832541777E-3
1.014140951E1,2.901524492E-2,1.267508119E-1,-3.054236295E-3
1.015056159E1,2.214321308E-2,1.363716573E-1,-4.886778072E-3
1.015971362E1,1.664558798E-2,1.392731816E-1,-7.330167107E-3
1.016886570E1,1.221694518E-2,1.386623234E-1,-9.315420873E-3
1.017801779E1,9.926267900E-3,1.314848661E-1,-9.926267900E-3
1.018716982E1,7.482878864E-3,1.224748790E-1,-1.359135192E-2
1.019632190E1,2.596100792E-3,1.157555580E-1,-1.359135192E-2
1.020547399E1,-5.955760833E-3,1.133121699E-1,-1.420219894E-2
1.021462602E1,-5.955760833E-3,1.114796251E-1,-1.420219894E-2
1.022377810E1,-6.566607859E-3,1.139230132E-1,-1.542389300E-2
1.023293018E1,-4.734066315E-3,1.217113137E-1,-1.969982497E-2
1.024208221E1,-3.665083554E-3,1.265980899E-1,-1.969982497E-2
1.025123430E1,7.635590737E-4,1.278197914E-1,-1.908897609E-2
1.026038638E1,9.468132630E-3,1.200314835E-1,-1.542389300E-2
1.026953841E1,2.000524849E-2,1.104106456E-1,-1.099525020E-2
1.027869050E1,2.367033064E-2,9.956810623E-2,-4.275931045E-3
1.028784258E1,2.199050039E-2,8.399149776E-2,-2.443389036E-3
1.029699461E1,1.725643501E-2,7.238540053E-2,-7.330167107E-3
1.030614669E1,2.275406010E-2,6.642963737E-2,-1.160609815E-2
1.031529878E1,3.329117596E-2,6.765133142E-2,-1.756185852E-2
1.032445081E1,4.611896724E-2,7.421794534E-2,-2.122694254E-2
1.033360289E1,5.360184610E-2,8.093725890E-2,-2.473931387E-2
1.034275498E1,5.909947306E-2,8.506047726E-2,-2.718270384E-2
1.035190701E1,6.077930331E-2,9.040539712E-2,-2.962609194E-2
1.036105909E1,6.016845629E-2,9.055810422E-2,-2.962609194E-2
1.037021117E1,5.848862603E-2,8.750387281E-2,-3.390202299E-2
1.037936320E1,6.047387794E-2,7.849387079E-2,-3.634541109E-2
1.038851529E1,6.551336497E-2,6.872031838E-2,-4.062134400E-2
1.039766737E1,7.421794534E-2,5.558710173E-2,-4.596625641E-2
1.040681940E1,8.551861346E-2,4.459185153E-2,-5.207473040E-2
1.041597148E1,9.590301663E-2,3.924693540E-2,-5.619794875E-2
1.042512357E1,1.021642014E-1,3.497100621E-2,-5.864133686E-2
1.043427560E1,1.033858955E-1,2.962609194E-2,-6.108472496E-2
1.044342768E1,1.047603041E-1,2.061609551E-2,-5.986303091E-2
1.045257977E1,1.043021679E-1,6.108472589E-3,-5.803048983E-2
1.046173180E1,1.026223376E-1,-1.130067464E-2,-5.558710173E-2
1.047088388E1,1.020114943E-1,-2.153236605E-2,-5.497625470E-2
1.048003596E1,9.956810623E-2,-2.947338112E-2,-5.803048983E-2
1.048918800E1,9.972081333E-2,-3.603998944E-2,-6.108472496E-2
1.049834008E1,1.041494608E-1,-4.092676565E-2,-6.520794332E-2
1.050749216E1,1.078145429E-1,-4.398100078E-2,-6.826218218E-2
1.051664419E1,1.090362370E-1,-4.642439261E-2,-7.131642103E-2
1.052579628E1,1.065928489E-1,-4.581354558E-2,-7.437065244E-2
1.053494836E1,9.804098308E-2,-5.176930502E-2,-7.635590434E-2
1.054410039E1,8.948912472E-2,-6.688777357E-2,-7.391251624E-2
1.055325248E1,7.788302749E-2,-7.956285775E-2,-7.085828483E-2
1.056240456E1,6.749862432E-2,-8.735115826E-2,-6.612421572E-2
1.057155664E1,6.077930331E-2,-8.506047726E-2,-6.245913357E-2
1.058070867E1,5.818320066E-2,-7.223268598E-2,-6.123743951E-2
1.058986076E1,6.291726977E-2,-5.299099907E-2,-6.245913357E-2
1.059901284E1,7.192726433E-2,-3.558185324E-2,-6.429167092E-2
1.060816487E1,8.842013776E-2,-1.985253580E-2,-6.352811307E-2
1.061731695E1,1.093416587E-1,-1.145338640E-2,-6.398624927E-2
1.062646904E1,1.221694499E-1,-1.679830020E-3,-6.398624927E-2
1.063562107E1,1.307213157E-1,6.719320081E-3,-6.322269142E-2
1.064477315E1,1.356080920E-1,9.773556143E-3,-6.139015034E-2
1.065392524E1,1.374406368E-1,1.160609815E-2,-5.894676223E-2
1.066307727E1,1.398840249E-1,1.756185852E-2,-5.772506446E-2
1.067222935E1,1.459924877E-1,2.733541466E-2,-5.528167635E-2
1.068138143E1,1.569877416E-1,3.573456407E-2,-5.024218559E-2
1.069053346E1,1.724116355E-1,3.634541109E-2,-4.352286831E-2
1.069968555E1,1.908897758E-1,3.527642787E-2,-3.603998944E-2
1.070883763E1,2.075353563E-1,2.993151546E-2,-2.733541466E-2
1.071798966E1,2.229592502E-1,1.786728203E-2,-1.863084175E-2
1.072714174E1,2.422009408E-1,5.955760833E-3,-1.175880991E-2
1.073629383E1,2.675510943E-1,-8.399149403E-3,-4.275931045E-3
1.074544586E1,3.003841341E-1,-2.519745007E-2,-4.581354442E-4
1.075459794E1,3.417690396E-1,-4.443913698E-2,4.123218823E-3
1.076375003E1,3.944546282E-1,-7.330167294E-2,1.068982668E-2
1.077290211E1,4.611896873E-1,-1.099525094E-1,2.764083818E-2
1.078205414E1,5.441122055E-1,-1.517955512E-1,4.657710344E-2
1.079120622E1,6.453601122E-1,-1.954711229E-1,7.421794534E-2
1.080035831E1,7.684458494E-1,-2.428117841E-1,1.142284349E-1
1.080951034E1,9.165763259E-1,-2.961082160E-1,1.678302884E-1
1.081866242E1,1.087766290E0,-3.648285270E-1,2.301367074E-1
1.082780174E1,1.271325827E0,-4.605788291E-1,3.035911024E-1
1.083696654E1,1.458092451E0,-5.799994469E-1,3.904841244E-1
1.084611862E1,1.646233320E0,-7.015580535E-1,4.920374751E-1
1.085525794E1,1.828571320E0,-8.134958148E-1,5.911474228E-1
1.086442279E1,1.991056681E0,-8.932114244E-1,6.632274389E-1
1.087357482E1,2.125442982E0,-9.080244303E-1,6.916317940E-1
1.088271414E1,2.252499342E0,-8.451071978E-1,6.852179170E-1
1.089187893E1,2.413610220E0,-7.302678823E-1,6.788040400E-1
1.090103102E1,2.617480516E0,-5.841227174E-1,6.942279339E-1
1.091018310E1,2.796000719E0,-4.169032574E-1,7.040014863E-1
1.091933518E1,2.874341726E0,-2.710634768E-1,6.731536984E-1
1.092848721E1,2.830055237E0,-2.382304370E-1,5.891621709E-1
1.093762654E1,2.700402975E0,-3.709369898E-1,4.682144225E-1
1.094679138E1,2.556243181E0,-5.975613594E-1,3.463504016E-1
1.095594341E1,2.440334797E0,-8.342646360E-1,2.608317733E-1
1.096509550E1,2.358939409E0,-1.049588323E0,2.652604282E-1
1.097424758E1,2.312056780E0,-1.210852027E0,3.584146202E-1
1.098339966E1,2.272657156E0,-1.208714008E0,4.908157587E-1
1.099253893E1,2.229287148E0,-1.033400893E0,6.166502833E-1
1.100170378E1,2.183473587E0,-7.747070193E-1,7.010999322E-1
1.101085586E1,2.134911060E0,-5.112791657E-1,7.120952010E-1
1.102000789E1,2.090319395E0,-3.338280320E-1,6.531484127E-1
1.102915998E1,2.037633657E0,-2.631224692E-1,5.696150661E-1
1.103831206E1,1.973952889E0,-2.791571915E-1,5.007420182E-1
1.104746409E1,1.901720285E0,-3.729222417E-1,4.587462842E-1
1.105661617E1,1.833763480E0,-4.976878166E-1,4.436278343E-1
1.106576826E1,1.776496530E0,-6.334486008E-1,4.520269632E-1
1.107492029E1,1.740303874E0,-7.382088900E-1,4.701996744E-1
1.108407237E1,1.715259075E0,-7.672241330E-1,4.792096615E-1
1.109322445E1,1.691130638E0,-7.637118101E-1,4.686725736E-1
1.110237654E1,1.664711475E0,-7.637118101E-1,4.445441067E-1
1.111152857E1,1.640277624E0,-7.597413063E-1,4.187358022E-1
1.112068065E1,1.621035933E0,-7.267554998E-1,3.739912212E-1
1.112983274E1,1.586981177E0,-7.004891038E-1,3.272614181E-1
1.113898477E1,1.524063945E0,-6.772769094E-1,3.005368412E-1
1.114813685E1,1.442363143E0,-6.219952106E-1,2.816005945E-1
1.115728893E1,1.352873921E0,-5.335750580E-1,2.547233105E-1
1.116644096E1,1.258956194E0,-4.201101959E-1,2.203631550E-1
1.117559305E1,1.160762548E0,-3.184041381E-1,1.890572309E-1
1.118474513E1,1.062416077E0,-2.560977042E-1,1.577513069E-1
1.119389716E1,9.735378027E-1,-2.302894145E-1,1.351499557E-1
1.120304924E1,8.988617659E-1,-2.148655206E-1,1.200314835E-1
1.121220133E1,8.309049606E-1,-1.885990947E-1,1.053711548E-1
1.122135341E1,7.560762167E-1,-1.634016484E-1,8.353336155E-2
1.123050544E1,6.690304875E-1,-1.316375881E-1,6.215370819E-2
1.123965753E1,5.737382770E-1,-8.124268800E-2,4.428642616E-2
1.124880961E1,4.776825607E-1,-2.428117767E-2,3.145863488E-2
1.125796164E1,3.823903799E-1,2.794626169E-2,1.908897609E-2
1.126711373E1,2.840439677E-1,6.322269142E-2,1.160609815E-2
1.127626581E1,1.884463727E-1,8.124268800E-2,1.038440317E-2
1.128541789E1,1.084253863E-1,6.429167092E-2,1.771457121E-2
1.129456992E1,3.878879920E-2,-1.175880991E-2,2.947338112E-2
1.130372201E1,-2.870982140E-2,-1.178935245E-1,3.756710514E-2
1.131287409E1,-1.038440317E-1,-2.058555335E-1,4.016320780E-2
1.132202612E1,-1.876828223E-1,-2.644968629E-1,4.520269856E-2
1.133117820E1,-2.719797492E-1,-3.037438095E-1,5.558710173E-2
1.134033029E1,-3.568875194E-1,-3.255815804E-1,7.024743408E-2
1.134948237E1,-4.466820657E-1,-3.359659910E-1,8.490777016E-2
1.135863440E1,-5.456393361E-1,-3.142809272E-1,9.941539168E-2
1.136778648E1,-6.609367132E-1,-2.438807636E-1,1.180462316E-1
1.137693857E1,-7.850914598E-1,-1.579040140E-1,1.336228400E-1
1.138609060E1,-8.898517489E-1,-9.651386738E-2,1.414111406E-1
1.139524268E1,-9.164236188E-1,-9.009996802E-2,1.296523362E-1
1.140438201E1,-7.947123051E-1,-1.026223376E-1,1.000262350E-1
1.141354685E1,-6.334486008E-1,-6.032116711E-2,6.505523622E-2
1.142269888E1,-5.405998230E-1,-2.168507688E-2,3.512371704E-2
1.143183820E1,-4.830274582E-1,-1.795890927E-1,2.107422985E-2
1.144100305E1,-3.910949528E-1,-4.860817194E-1,4.077405483E-2
1.145015508E1,-2.773246467E-1,-6.748335361E-1,8.276980370E-2
1.145930716E1,-2.182251811E-1,-4.524851143E-1,5.971032009E-2
1.146845924E1,-2.304421216E-1,5.451811850E-2,-1.038440317E-2
1.147761133E1,-3.762819171E-1,4.019374847E-1,-5.680879578E-2
1.148675060E1,-6.710157394E-1,4.398100376E-1,-1.133121699E-1
1.149591865E1,-1.010646820E0,3.961344361E-1,-1.736333370E-1
1.150507073E1,-1.333632231E0,4.081986845E-1,-1.911951900E-1
1.151422276E1,-1.649745703E0,4.459185004E-1,-1.495048702E-1
1.152337484E1,-1.970593214E0,8.386932611E-1,-2.504473738E-2
1.153252693E1,-2.126359224E0,1.490009189E0,1.640124917E-1
1.154166625E1,-2.073062897E0,1.548955917E0,2.869454920E-1
1.155083104E1,-1.955322027E0,9.535325766E-1,2.192941606E-1
1.155998312E1,-1.926459551E0,2.200577259E-1,2.275406010E-2
1.156912245E1,-1.919129372E0,-1.585148573E-1,-1.814216375E-1
1.157828724E1,-1.916227818E0,-2.747285664E-1,-3.272614181E-1
1.158743932E1,-1.951656938E0,-5.708367825E-1,-3.687990308E-1
1.159657865E1,-1.878049850E0,-8.758022785E-1,-2.521272004E-1
1.160574349E1,-1.745954156E0,-9.332218766E-1,-1.114796288E-2
1.161489552E1,-1.731446505E0,-8.683193922E-1,2.160872221E-1
1.162403484E1,-1.758323789E0,-6.529957056E-1,2.956500649E-1
1.163319969E1,-1.744732499E0,-3.403946459E-1,2.168507725E-1
1.164235172E1,-1.730377555E0,-2.229592577E-2,6.642963737E-2
1.165150380E1,-1.721214890E0,1.971509457E-1,-6.368082762E-2
1.166065588E1,-1.689908981E0,3.258870244E-1,-1.588202864E-1
1.166980797E1,-1.673416018E0,4.466820657E-1,-2.339545041E-1
1.167896000E1,-1.683189631E0,5.338805318E-1,-2.932066917E-1
1.168811208E1,-1.677844763E0,5.716003180E-1,-3.335226178E-1
1.169726417E1,-1.658908486E0,6.024481058E-1,-3.284831047E-1
1.170641625E1,-1.652036428E0,6.960604787E-1,-2.767138183E-1
1.171556828E1,-1.683189631E0,8.397622705E-1,-1.915006191E-1
1.172472036E1,-1.745037913E0,1.039509296E0,-1.078145429E-1
1.173387245E1,-1.800166845E0,1.242005229E0,-4.856235534E-2
1.174302448E1,-1.817576051E0,1.449387789E0,-2.977880463E-2
1.175217656E1,-1.782299638E0,1.669750929E0,-5.971032009E-2
1.176132864E1,-1.749771953E0,1.858350039E0,-1.218640283E-1
1.177048073E1,-1.773442268E0,1.980977654E0,-1.973036677E-1
1.177963276E1,-1.806275368E0,2.042673349E0,-2.713688910E-1
1.178878484E1,-1.792836666E0,2.088334084E0,-3.300102353E-1
1.179793693E1,-1.745648742E0,2.126206636E0,-3.730749488E-1
1.180708896E1,-1.656617761E0,2.184084415E0,-3.999522328E-1
1.181624104E1,-1.569113851E0,2.198591948E0,-4.182776511E-1
1.182539313E1,-1.490467310E0,2.088944912E0,-4.292729199E-1
1.183454521E1,-1.397160411E0,1.920351028E0,-4.443913698E-1
1.184369724E1,-1.322942495E0,1.767791986E0,-4.619532526E-1
1.185284932E1,-1.300188422E0,1.633405566E0,-4.752391577E-1
1.186200141E1,-1.269340634E0,1.488940239E0,-4.741701782E-1
1.187115349E1,-1.205659747E0,1.251626015E0,-4.466820657E-1
1.188030552E1,-1.107466102E0,9.367342591E-1,-4.220954478E-1
1.188945760E1,-1.008203387E0,6.586460471E-1,-4.100312293E-1
1.189860969E1,-9.674293399E-1,5.001311898E-1,-4.030064642E-1
1.190776172E1,-9.645278454E-1,4.424061179E-1,-3.912476599E-1
1.191691380E1,-9.384140968E-1,4.165978432E-1,-3.776563108E-1
1.192606588E1,-9.184088707E-1,4.372139275E-1,-3.494046330E-1
1.193521797E1,-9.043593407E-1,5.048652887E-1,-3.096995652E-1
1.194437000E1,-8.596147895E-1,5.786250830E-1,-2.735068500E-1
1.195352208E1,-8.199097514E-1,6.161921620E-1,-2.499892414E-1
1.196267417E1,-8.078454733E-1,6.336013079E-1,-2.486148328E-1
1.197182625E1,-7.991409302E-1,6.377245188E-1,-2.663294077E-1
1.198097828E1,-8.095253110E-1,6.449019909E-1,-2.915268540E-1
1.199013036E1,-8.443436027E-1,6.887302995E-1,-3.124483824E-1
1.199928245E1,-8.377770185E-1,7.930324674E-1,-3.283303976E-1
1.200843453E1,-7.794411182E-1,8.840487003E-1,-3.329117596E-1
1.201758656E1,-7.128587365E-1,8.758022785E-1,-3.269560039E-1
1.202673864E1,-6.872031689E-1,7.721109390E-1,-3.170297146E-1
1.203589073E1,-6.839962006E-1,6.244385839E-1,-3.283303976E-1
1.204504276E1,-6.853706241E-1,5.712949038E-1,-3.539859951E-1
1.205419484E1,-6.566607952E-1,5.436540842E-1,-3.629959822E-1
1.206334693E1,-6.149705052E-1,4.740174711E-1,-3.303156495E-1
1.207249901E1,-5.731274486E-1,3.862081766E-1,-2.675510943E-1
1.208165104E1,-4.960079789E-1,3.414636254E-1,-2.041756958E-1
1.209080312E1,-3.689517379E-1,3.943018913E-1,-1.629435122E-1
1.209995521E1,-2.021904439E-1,4.132381678E-1,-1.362189353E-1
1.210910729E1,-1.389677543E-2,3.539859951E-1,-1.043021679E-1
1.211825932E1,2.052446753E-1,2.345653474E-1,-6.108472496E-2
1.212741141E1,4.663818777E-1,8.460234851E-2,-2.443389036E-3
1.213656349E1,7.805100679E-1,-5.726693198E-2,8.246438205E-2
1.214570281E1,1.139077425E0,-1.612636745E-1,1.844758689E-1
1.215486760E1,1.513068676E0,-1.711899489E-1,2.622061968E-1
1.216401969E1,1.909203053E0,-3.115320951E-2,3.150444627E-1
1.217315901E1,2.313431263E0,8.490777016E-2,3.880407214E-1
1.218232385E1,2.699944973E0,-1.427855492E-1,5.528167486E-1
1.219147589E1,3.107990742E0,-7.569924593E-1,8.138012886E-1
1.220061521E1,3.403182745E0,-1.379140377E0,1.113727212E0
1.220978005E1,3.548411846E0,-1.820783019E0,1.371504784E0
1.221893214E1,3.598195791E0,-2.082836390E0,1.516275644E0
1.222807141E1,3.543982983E0,-2.019613743E0,1.544527292E0
1.223723625E1,3.408680439E0,-1.711441278E0,1.528645277E0
1.224638833E1,3.348359346E0,-1.427091956E0,1.507876515E0
1.225552766E1,3.416926861E0,-1.498255610E0,1.479166627E0
1.226469245E1,3.450676203E0,-1.954558492E0,1.441141367E0
1.227384453E1,3.374625683E0,-2.681466818E0,1.418540001E0
1.228299661E1,3.288038015E0,-3.147848606E0,1.441599488E0
1.229214865E1,3.230160236E0,-2.984447002E0,1.489856482E0
1.230130073E1,3.174267769E0,-2.650771618E0,1.502684236E0
1.231044005E1,3.111045122E0,-2.314805746E0,1.443890214E0
1.231960490E1,3.065536976E0,-2.003731728E0,1.346918225E0
1.232875693E1,3.043393850E0,-1.819103122E0,1.261094213E0
1.233789625E1,3.008728266E0,-1.565601468E0,1.207034230E0
1.234706109E1,2.967801332E0,-1.261399627E0,1.208866715E0
1.235621318E1,2.911298037E0,-9.468132257E-1,1.216196895E0
1.236536521E1,2.808981180E0,-6.487197876E-1,1.190846682E0
1.237451729E1,2.691240311E0,-4.124746025E-1,1.127013206E0
1.238366938E1,2.587701797E0,-2.417428046E-1,1.050351858E0
1.239280870E1,2.513789177E0,-1.408002973E-1,9.923213720E-1
1.240197349E1,2.453315258E0,-1.067455560E-1,9.407047629E-1
1.241112557E1,2.369781971E0,-1.162136942E-1,8.845068216E-1
1.242027766E1,2.260287523E0,-1.973036677E-1,8.342646360E-1
1.242942974E1,2.149113417E0,-3.520007432E-1,7.744016051E-1
1.243858177E1,2.026027679E0,-5.344913602E-1,6.875085831E-1
1.244772109E1,1.875606537E0,-6.833853722E-1,5.639647245E-1
1.245688594E1,1.715106368E0,-8.054021001E-1,4.246915579E-1
1.246603802E1,1.563463569E0,-9.368869662E-1,2.808370292E-1
1.247519005E1,1.419761777E0,-1.070357084E0,1.522536725E-1
1.248434214E1,1.266744494E0,-1.152821541E0,4.932591692E-2
1.249349422E1,1.074938416E0,-1.158929944E0,-3.939964995E-2
1.250264630E1,8.293778896E-1,-1.106702566E0,-1.247655526E-1
1.251179838E1,5.176930428E-1,-1.031415582E0,-1.873773932E-1
1.252095042E1,1.698155403E-1,-9.223793745E-1,-2.150182426E-1
1.253010250E1,-1.601946950E-1,-8.162446618E-1,-2.192941606E-1
1.253925458E1,-4.338542521E-1,-7.539382577E-1,-1.937913001E-1
1.254840667E1,-6.404733658E-1,-6.884248853E-1,-1.611109674E-1
1.255755870E1,-7.785248160E-1,-5.602996349E-1,-1.450762302E-1
1.256671078E1,-8.802309036E-1,-4.170559645E-1,-1.366770715E-1
1.257586286E1,-9.909469485E-1,-3.141281903E-1,-1.278197914E-1
1.258500219E1,-1.114796281E0,-2.473931462E-1,-1.311794519E-1
1.259416698E1,-1.255291104E0,-1.736333370E-1,-1.499630064E-1
1.260331906E1,-1.377613306E0,-1.119377613E-1,-2.014268786E-1
1.261245838E1,-1.391204596E0,-6.642963737E-2,-2.889307439E-1
1.262162323E1,-1.209019423E0,3.206948191E-2,-4.306473136E-1
1.263077526E1,-8.890882134E-1,3.617742956E-1,-5.592306852E-1
1.263991458E1,-7.427902818E-1,8.200624585E-1,-5.390726924E-1
1.264907943E1,-1.046075940E0,8.785510659E-1,-3.848337829E-1
1.265823151E1,-1.679219127E0,8.037222624E-1,-3.258870244E-1
1.266737083E1,-2.383831501E0,8.838959932E-1,-4.932591617E-1
1.267653563E1,-2.845631838E0,1.088835239E0,-6.041279435E-1
1.268568771E1,-2.644663095E0,1.685327530E0,-2.373141646E-1
1.269482703E1,-2.078407764E0,2.271740913E0,3.231382072E-1
1.270399188E1,-1.855448604E0,2.066190958E0,3.926220834E-1
1.271314391E1,-1.816659689E0,1.293163657E0,1.052184403E-1
1.272228323E1,-1.722283840E0,5.984776020E-1,-6.887302548E-2
1.273144807E1,-1.742289066E0,8.017370105E-2,-7.727217674E-2
1.274060016E1,-1.893015623E0,-4.317162931E-1,-1.035386100E-1
1.274975219E1,-1.992889166E0,-9.016105533E-1,-1.649287641E-1
1.275890427E1,-1.989834905E0,-1.307824016E0,-1.786728203E-1
1.276805635E1,-1.923405290E0,-1.600878000E0,-9.865183383E-2
1.277719568E1,-1.802762985E0,-1.730224848E0,5.803048983E-2
1.278636047E1,-1.652341843E0,-1.643942714E0,1.818797737E-1
1.279551255E1,-1.513984919E0,-1.407392025E0,2.107423097E-1
1.280465188E1,-1.437781692E0,-1.024085402E0,1.756185889E-1
1.281381672E1,-1.412584305E0,-6.284091473E-1,9.788827598E-2
1.282296880E1,-1.397160411E0,-3.118375242E-1,4.886778072E-3
1.283212083E1,-1.364327312E0,-9.437590092E-2,-4.810422286E-2
1.284127292E1,-1.328592777E0,4.123219103E-2,-4.123219103E-2
1.285042500E1,-1.316070437E0,2.220429778E-1,-2.733541466E-2
1.285957708E1,-1.331647038E0,4.654656053E-1,-3.802524135E-2
1.286872917E1,-1.304311633E0,7.340856791E-1,-8.322793990E-2
1.287788120E1,-1.225054145E0,1.009425044E0,-1.462979168E-1
1.288703328E1,-1.158013701E0,1.253916740E0,-1.997470558E-1
1.289618536E1,-1.117086887E0,1.376238823E0,-2.283041626E-1
1.290533745E1,-1.087460876E0,1.391204596E0,-2.414373755E-1
1.291448948E1,-1.099677801E0,1.367076159E0,-2.385358512E-1
1.292364156E1,-1.131594539E0,1.357455373E0,-2.283041626E-1
1.293279364E1,-1.128387570E0,1.407544851E0,-2.399102598E-1
1.294194573E1,-1.074022174E0,1.476723194E0,-2.732014358E-1
1.295109776E1,-9.926267862E-1,1.568808436E0,-3.251234591E-1
1.296024984E1,-9.339854717E-1,1.592326045E0,-3.840702176E-1
1.296940193E1,-8.944330812E-1,1.542083859E0,-4.466820657E-1
1.297855401E1,-8.793146014E-1,1.517802715E0,-4.915793240E-1
1.298770604E1,-8.845068216E-1,1.545443535E0,-4.990622103E-1
1.299685813E1,-9.205468297E-1,1.564227104E0,-4.596625566E-1
1.300601021E1,-9.817842841E-1,1.566823244E0,-3.953709006E-1
1.301516229E1,-1.005454540E0,1.556133389E0,-3.393256664E-1
1.302431438E1,-9.640696645E-1,1.622563004E0,-3.274141252E-1
1.303346641E1,-9.397885203E-1,1.741830945E0,-3.553603888E-1
1.304261849E1,-9.451334476E-1,1.662115335E0,-3.822376728E-1
1.305177057E1,-9.571976662E-1,1.417471051E0,-3.706315756E-1
1.306092266E1,-9.260444641E-1,1.227192163E0,-3.353551328E-1
1.307007469E1,-8.249492049E-1,1.063026905E0,-3.071034551E-1
1.307922677E1,-7.600467205E-1,8.371661901E-1,-3.003841341E-1
1.308837885E1,-7.869240046E-1,6.038225293E-1,-3.064926267E-1
1.309753094E1,-8.380824327E-1,4.688252807E-1,-3.092414141E-1
1.310668302E1,-8.834378719E-1,3.616215885E-1,-2.845021188E-1
1.311583505E1,-9.055810571E-1,1.918060333E-1,-2.460187376E-1
1.312498714E1,-8.976400495E-1,-2.260134928E-2,-2.238755226E-1
1.313413922E1,-8.577822447E-1,-2.105895877E-1,-2.307475507E-1
1.314329130E1,-8.099834919E-1,-2.980934680E-1,-2.651077211E-1
1.315244333E1,-7.930324674E-1,-3.096995652E-1,-3.211529553E-1
1.316158266E1,-7.818844914E-1,-2.092151791E-1,-3.749074936E-1
1.317074750E1,-7.840224504E-1,-2.687728032E-2,-4.214846194E-1
1.317989958E1,-7.951704264E-1,1.423274130E-1,-4.625640810E-1
1.318905167E1,-8.003626466E-1,3.933856487E-1,-4.873034060E-1
1.319820370E1,-7.802046537E-1,6.948387623E-1,-4.866925478E-1
1.320735578E1,-7.461498976E-1,8.703046441E-1,-4.706578255E-1
1.321649510E1,-6.902574301E-1,9.066500664E-1,-4.624113739E-1
1.322565995E1,-5.971031785E-1,8.150229454E-1,-4.720322192E-1
1.323481198E1,-4.659237564E-1,6.314633489E-1,-4.911212027E-1
1.324395130E1,-3.136700690E-1,4.859289825E-1,-4.776825607E-1
1.325311615E1,-1.598892659E-1,3.466558158E-1,-4.008685052E-1
1.326226823E1,3.710897267E-2,2.432699203E-1,-2.791571915E-1
1.327142031E1,2.389939874E-1,2.330382317E-1,-1.762294322E-1
1.328057234E1,3.759764731E-1,2.648022771E-1,-1.288887709E-1
1.328972443E1,4.998257756E-1,2.704526186E-1,-1.250709742E-1
1.329887651E1,6.710157394E-1,2.797680497E-1,-1.275143623E-1
1.330802859E1,8.976400495E-1,3.862081766E-1,-1.076618284E-1
1.331718068E1,1.155112147E0,5.163186193E-1,-5.879404768E-2
1.332633271E1,1.405406833E0,5.459447503E-1,2.168507688E-2
1.333548479E1,1.627144337E0,4.347705245E-1,1.325538605E-1
1.334463688E1,1.813758254E0,1.739387512E-1,2.635805905E-1
1.335378896E1,1.961430550E0,-2.084516287E-1,4.211791754E-1
1.336294104E1,2.111851692E0,-5.135698318E-1,6.117635369E-1
1.337209307E1,2.256011724E0,-8.251019120E-1,8.365553021E-1
1.338123240E1,2.353441715E0,-1.282779217E0,1.067150116E0
1.339039724E1,2.407959938E0,-1.668987393E0,1.203369141E0
1.339954932E1,2.529213190E0,-1.851936221E0,1.201994658E0
1.340868865E1,2.739802599E0,-1.946922898E0,1.176033735E0
1.341785344E1,2.968564987E0,-2.028470993E0,1.191763043E0
1.342700552E1,3.155637026E0,-2.301061630E0,1.218945742E0
1.343614484E1,3.284525633E0,-2.645579576E0,1.212837219E0
1.344530969E1,3.334615231E0,-2.655811071E0,1.176491857E0
1.345446172E1,3.276737452E0,-2.350692987E0,1.115407109E0
1.346360104E1,3.179307222E0,-2.105285168E0,1.054627776E0
1.347276589E1,3.115168333E0,-1.949519038E0,9.998042583E-1
1.348191797E1,3.109976053E0,-1.735264301E0,9.245173335E-1
1.349105729E1,3.097148418E0,-1.428924441E0,8.393041492E-1
1.350022208E1,3.025526524E0,-1.036302328E0,7.902836204E-1
1.350937417E1,2.938786268E0,-6.476507783E-1,7.960866690E-1
1.351852625E1,2.898622990E0,-3.800997138E-1,8.420529366E-1
1.352767833E1,2.901982546E0,-1.484358907E-1,8.944330812E-1
1.353683042E1,2.896790504E0,2.107423097E-1,9.240592122E-1
1.354596974E1,2.874952555E0,5.138752460E-1,9.419264793E-1
1.355513453E1,2.828833580E0,6.517740488E-1,9.286405444E-1
1.356428661E1,2.746063948E0,6.743753552E-1,8.871029615E-1
1.357342594E1,2.667722702E0,5.703786016E-1,8.251019120E-1
1.358259078E1,2.613204479E0,3.072561622E-1,7.362236381E-1
1.359174281E1,2.541124582E0,4.886778072E-3,6.206207871E-1
1.360088214E1,2.467211962E0,-2.886253297E-1,5.005893111E-1
1.361004698E1,2.413763046E0,-5.201364160E-1,3.611634374E-1
1.361919906E1,2.335421801E0,-6.587987542E-1,2.226538211E-1
1.362833839E1,2.220277071E0,-6.882721782E-1,1.113269106E-1
1.363750318E1,2.081462145E0,-6.394043565E-1,2.061609551E-2
1.364665526E1,1.922947168E0,-5.772506595E-1,-5.879404768E-2
1.365579458E1,1.742747188E0,-5.279247165E-1,-1.253764033E-1
1.366495943E1,1.545748949E0,-4.735593498E-1,-1.647760421E-1
1.367411151E1,1.327065706E0,-4.147652984E-1,-1.724116355E-1
1.368326354E1,1.088987947E0,-3.319954872E-1,-1.637070626E-1
1.369241562E1,8.315158486E-1,-2.082989216E-1,-1.656923145E-1
1.370156771E1,5.558710098E-1,-5.635065958E-2,-1.867665499E-1
1.371071979E1,2.767138183E-1,9.025268257E-2,-2.076880634E-1
1.371987188E1,1.389677543E-2,1.814216375E-1,-2.009687424E-1
1.372902396E1,-2.032594234E-1,1.710372269E-1,-1.322484314E-1
1.373817599E1,-3.567348123E-1,-9.620844387E-3,-1.603474095E-2
1.374732807E1,-4.920374751E-1,-2.377723008E-1,7.589777559E-2
1.375648016E1,-6.757497787E-1,-3.819322586E-1,1.094943732E-1
1.376561948E1,-9.284878373E-1,-4.552339315E-1,1.017060652E-1
1.377478427E1,-1.191152096E0,-5.728220344E-1,7.986827940E-2
1.378393635E1,-1.325843930E0,-7.386670709E-1,6.123743951E-2
1.379307568E1,-1.235285878E0,-9.045121074E-1,2.748812549E-3
1.380224052E1,-1.004996419E0,-8.823688626E-1,-1.458397806E-1
1.381139260E1,-9.032903910E-1,-5.238015056E-1,-3.174878657E-1
1.382053193E1,-1.038745761E0,-4.382828996E-2,-3.390202224E-1
1.382969672E1,-1.299883008E0,3.264978528E-1,-1.383569092E-1
1.383884880E1,-1.630198598E0,3.629959822E-1,8.399149776E-2
1.384800089E1,-2.019002914E0,2.965663373E-1,1.901262105E-1
1.385715297E1,-2.158123255E0,8.188407421E-1,2.199050188E-1
1.386630505E1,-1.908286810E0,1.626838923E0,2.362451702E-1
1.387544438E1,-1.820172071E0,1.941883445E0,1.530172378E-1
1.388460917E1,-2.077033281E0,1.269187927E0,-8.597674966E-2
1.389376125E1,-2.096580505E0,3.428380191E-1,-2.631224692E-1
1.390290057E1,-1.761836171E0,1.284306347E-1,-2.226538211E-1
1.391206542E1,-1.640888453E0,3.057290614E-1,-6.077930331E-2
1.392121745E1,-1.831014633E0,9.315420687E-2,2.901524492E-2
1.393035677E1,-1.818186879E0,-4.437805414E-1,1.542389300E-2
1.393952161E1,-1.597518325E0,-8.580876589E-1,-4.123218823E-3
1.394867370E1,-1.482220888E0,-1.015533566E0,4.199574888E-2
1.395781302E1,-1.483137131E0,-8.898517489E-1,1.427855492E-1
1.396697786E1,-1.443432093E0,-7.605048418E-1,2.351761907E-1
1.397612990E1,-1.314543247E0,-7.860077024E-1,2.922904193E-1
1.398526922E1,-1.229482770E0,-8.834378719E-1,3.240544796E-1
1.399443406E1,-1.262163162E0,-8.863393664E-1,3.434488773E-1
1.400358615E1,-1.296217918E0,-7.811209559E-1,3.126010895E-1
1.401273823E1,-1.291636586E0,-6.339067221E-1,2.171562016E-1
1.402189026E1,-1.284917235E0,-4.920374751E-1,9.071081877E-2
1.403104234E1,-1.266744494E0,-3.315373361E-1,-1.191152167E-2
1.404019443E1,-1.249640822E0,-1.455343664E-1,-7.971556485E-2
1.404934651E1,-1.269035220E0,4.291202128E-2,-1.191152185E-1
1.405849859E1,-1.260330558E0,1.826433241E-1,-1.331647038E-1
1.406765062E1,-1.214669824E0,3.151971996E-1,-1.291942000E-1
1.407680271E1,-1.188403368E0,4.787515402E-1,-1.143811494E-1
1.408595479E1,-1.187334418E0,5.522059202E-1,-1.114796251E-1
1.409510688E1,-1.198482275E0,6.479562521E-1,-1.311794519E-1
1.410425896E1,-1.199093223E0,7.298097610E-1,-1.653869003E-1
1.411341099E1,-1.194969893E0,7.771504521E-1,-2.130329758E-1
1.412256307E1,-1.185349107E0,8.072346449E-1,-2.484621257E-1
1.413171516E1,-1.159235358E0,8.692356348E-1,-2.550287247E-1
1.414086724E1,-1.189166903E0,8.933641315E-1,-2.473931462E-1
1.415001932E1,-1.260941505E0,8.451071978E-1,-2.379250079E-1
1.415917141E1,-1.321415305E0,8.533536196E-1,-2.359397560E-1
1.416832344E1,-1.319735527E0,9.642223716E-1,-2.501419485E-1
1.417747552E1,-1.272547603E0,1.135259628E0,-2.841966748E-1
1.418662760E1,-1.241852522E0,1.251473308E0,-3.254288733E-1
1.419577969E1,-1.294690728E0,1.391662717E0,-3.747547865E-1
1.420493177E1,-1.417012930E0,1.514901161E0,-4.112529159E-1
1.421408385E1,-1.482068181E0,1.542389274E0,-4.219427407E-1
1.422323589E1,-1.417012930E0,1.570182920E0,-4.094203711E-1
1.423238797E1,-1.328745484E0,1.628976941E0,-4.027010500E-1
1.424154005E1,-1.319124699E0,1.669903636E0,-4.228590131E-1
1.425069214E1,-1.342031479E0,1.702125907E0,-4.731011987E-1
1.425984422E1,-1.353637576E0,1.721214890E0,-5.207473040E-1
1.426899630E1,-1.295301557E0,1.670667291E0,-5.404471159E-1
1.427814833E1,-1.190693974E0,1.553842664E0,-5.415160656E-1
1.428730042E1,-1.095554590E0,1.403268814E0,-5.444176197E-1
1.429645250E1,-1.047755718E0,1.147934675E0,-5.482354164E-1
1.430560458E1,-1.061805248E0,7.936432958E-1,-5.503733754E-1
1.431475667E1,-1.089904189E0,5.464028716E-1,-5.534276366E-1
1.432390875E1,-1.039662004E0,4.422534108E-1,-5.525113344E-1
1.433306078E1,-9.535325766E-1,3.249707520E-1,-5.499152541E-1
1.434220010E1,-9.521581531E-1,1.711899489E-1,-5.503733754E-1
1.435136495E1,-1.013701081E0,7.895200700E-2,-5.471664071E-1
1.436051703E1,-1.026681542E0,9.345962852E-2,-5.447230339E-1
1.436966911E1,-9.964445829E-1,2.350234836E-1,-5.665608048E-1
1.437882115E1,-1.006829023E0,4.535540938E-1,-6.120689511E-1
1.438797323E1,-1.023627281E0,6.424586177E-1,-6.537593007E-1
1.439712531E1,-9.857547879E-1,6.804838181E-1,-6.786513329E-1
1.440627740E1,-9.287932515E-1,5.998520255E-1,-6.928535104E-1
1.441542948E1,-8.945857882E-1,4.726430774E-1,-6.888830066E-1
1.442458156E1,-8.606837988E-1,3.962871730E-1,-6.647545099E-1
1.443373364E1,-7.864658237E-1,4.291202128E-1,-6.239804626E-1
1.444288568E1,-6.432221532E-1,5.073086619E-1,-5.673243999E-1
1.445202500E1,-4.220954478E-1,5.567872524E-1,-4.914266169E-1
1.446118984E1,-1.278197914E-1,5.360184908E-1,-3.781144619E-1
1.447034193E1,2.289150059E-1,3.509317636E-1,-2.221956849E-1
1.447949401E1,6.039752364E-1,1.236965731E-1,-9.910997003E-2
1.448864604E1,9.518527389E-1,1.322484314E-1,-3.069507517E-2
1.449779813E1,1.302937150E0,3.350497186E-1,3.634541109E-2
1.450695021E1,1.671125412E0,4.854708612E-1,1.304158866E-1
1.451610229E1,1.989987612E0,4.068242610E-1,2.330382317E-1
1.452525438E1,2.247154236E0,2.028012872E-1,3.558185399E-1
1.453439370E1,2.408570766E0,-2.348707765E-1,5.483881235E-1
1.454355854E1,2.475611210E0,-8.321266770E-1,8.099834919E-1
1.455271057E1,2.561129808E0,-1.170688748E0,9.988879561E-1
1.456184990E1,2.734763145E0,-1.264148355E0,1.066233873E0
1.457101474E1,2.937258959E0,-1.255138397E0,1.106702566E0
1.458016682E1,3.125247240E0,-1.362494826E0,1.187487125E0
1.458930614E1,3.279639006E0,-1.775885701E0,1.271325827E0
1.459847099E1,3.371876955E0,-2.166827917E0,1.285069942E0
1.460762302E1,3.402877331E0,-2.166827917E0,1.243226886E0
1.461676234E1,3.238101244E0,-2.505848169E0,1.237271070E0
1.462592719E1,3.094857693E0,-2.251277685E0,1.205048919E0
1.463507927E1,3.025221109E0,-1.860640764E0,1.118766785E0
1.464421859E1,2.996969461E0,-1.473669052E0,1.004691005E0
1.465338344E1,2.962609291E0,-1.028666735E0,9.095515609E-1
1.466253547E1,2.880603075E0,-5.190674663E-1,8.742751479E-1
1.467167479E1,2.767290831E0,-5.711421743E-2,9.006943107E-1
1.468083964E1,2.640692711E0,3.075616062E-1,9.465078115E-1
1.468999172E1,2.536085129E0,5.520532131E-1,9.736905098E-1
1.469914380E1,2.494241953E0,6.068767309E-1,9.807152748E-1
1.470829588E1,2.485384703E0,5.743491650E-1,9.654440880E-1
1.471744792E1,2.473625898E0,4.590517282E-1,9.349017143E-1
1.472660000E1,2.438807726E0,2.895416021E-1,9.072608948E-1
1.473575208E1,2.388718128E0,1.152974218E-1,8.802309036E-1
1.474490417E1,2.346264362E0,-7.910472155E-2,8.312104344E-1
1.475404349E1,2.301672459E0,-2.915268540E-1,7.492041588E-1
1.476320833E1,2.216917515E0,-4.921901822E-1,6.375718117E-1
1.477236042E1,2.078560591E0,-6.700994372E-1,4.999784827E-1
1.478149974E1,1.917144179E0,-8.174663186E-1,3.353551328E-1
1.479066453E1,1.755422354E0,-9.206995368E-1,1.907370538E-1
1.479981661E1,1.592173338E0,-9.532271624E-1,8.017370105E-2
1.480895594E1,1.404185176E0,-9.147437811E-1,-3.054236295E-3
1.481812078E1,1.188708782E0,-8.454126120E-1,-6.139015034E-2
1.482727286E1,9.349017143E-1,-7.803573608E-1,-8.887827396E-2
1.483642490E1,6.476507783E-1,-7.156075835E-1,-9.391776472E-2
1.484557698E1,3.451287150E-1,-6.594096422E-1,-9.009996802E-2
1.485472906E1,6.749862432E-2,-6.328377724E-1,-1.053711548E-1
1.486386839E1,-1.632489264E-1,-5.790832043E-1,-1.375933439E-1
1.487303323E1,-3.568875194E-1,-4.366030693E-1,-1.324011385E-1
1.488218531E1,-5.326588154E-1,-2.480039895E-1,-4.825693369E-2
1.489132464E1,-6.928535104E-1,-1.133121699E-1,7.024743408E-2
1.490048948E1,-8.622109294E-1,-1.939439960E-2,1.605001241E-1
1.490964151E1,-1.033553600E0,-6.276455522E-2,2.284568697E-1
1.491878083E1,-1.198634982E0,-2.750339806E-1,2.371614426E-1
1.492794568E1,-1.337602735E0,-4.799732268E-1,1.398840249E-1
1.493709776E1,-1.296828747E0,-3.854446113E-1,-7.681404054E-2
1.494624984E1,-1.023016453E0,2.809897363E-1,-3.530697227E-1
1.495540193E1,-9.707890153E-1,9.347490072E-1,-5.419742465E-1
1.496455396E1,-1.267049909E0,4.920374751E-1,-5.120427012E-1
1.497369333E1,-1.707623482E0,-4.263713956E-1,-3.727695346E-1
1.498285813E1,-2.201340914E0,-4.188885093E-1,-2.480039895E-1
1.499201021E1,-2.342751980E0,9.025267959E-1,-3.436015919E-2
1.500114953E1,-2.009687424E0,2.387496471E0,1.635543555E-1
1.501031438E1,-1.947839141E0,2.525395393E0,1.162136942E-1
1.501946646E1,-2.171256542E0,1.683647752E0,-1.070509851E-1
1.502860578E1,-1.992278337E0,1.054475069E0,-1.534753740E-1
1.503777057E1,-1.677233815E0,6.470399499E-1,-2.580829710E-2
1.504692266E1,-1.647913218E0,2.993151546E-2,-5.039489828E-3
1.505606198E1,-1.679371834E0,-6.044333577E-1,-1.146865711E-1
1.506522682E1,-1.601946950E0,-9.100096822E-1,-1.542389393E-1
1.507437891E1,-1.484664321E0,-9.828532338E-1,-5.008947477E-2
1.508351823E1,-1.425717473E0,-9.573503733E-1,1.090362370E-1
1.509268307E1,-1.405559540E0,-9.200887084E-1,2.289150059E-1
1.510183510E1,-1.390593767E0,-9.436063170E-1,2.313583940E-1
1.511097443E1,-1.369825006E0,-1.000109673E0,1.032331884E-1
1.512013927E1,-1.352263093E0,-9.652913809E-1,-6.261184067E-2
1.512929135E1,-1.329203606E0,-7.921161652E-1,-1.829487532E-1
1.513843068E1,-1.287818789E0,-6.265766025E-1,-2.512109280E-1
1.514759552E1,-1.265522838E0,-4.277457893E-1,-2.597627938E-1
1.515674760E1,-1.295607090E0,-1.956238300E-1,-2.014268786E-1
1.516589964E1,-1.337450027E0,4.031591862E-2,-1.214058921E-1
1.517505172E1,-1.327676535E0,2.954973578E-1,-5.726693198E-2
1.518420380E1,-1.282015681E0,5.590779781E-1,-1.939439960E-2
1.519335588E1,-1.236049414E0,7.153021693E-1,-8.093725890E-3
1.520250797E1,-1.221236348E0,7.857022882E-1,-1.298050396E-2
1.521166005E1,-1.224596024E0,7.476770282E-1,-2.580829710E-2
1.522081214E1,-1.206881523E0,7.104153633E-1,-3.970507160E-2
1.522996422E1,-1.190999389E0,6.734591126E-1,-6.276455522E-2
1.523911625E1,-1.205201626E0,6.076403260E-1,-9.086353332E-2
1.524826833E1,-1.223374367E0,5.244123936E-1,-1.122431830E-1
1.525742042E1,-1.238950968E0,3.984251320E-1,-1.209477559E-1
1.526657250E1,-1.289956689E0,3.188622594E-1,-1.194206402E-1
1.527572458E1,-1.365090966E0,3.753656447E-1,-1.211004704E-1
1.528487667E1,-1.402047157E0,5.173876286E-1,-1.441599578E-1
1.529402875E1,-1.390441060E0,6.305471063E-1,-1.899735034E-1
1.530318083E1,-1.371504784E0,8.116632700E-1,-2.502946556E-1
1.531233286E1,-1.400367379E0,1.042105436E0,-3.185568452E-1
1.532148495E1,-1.456259847E0,1.267202616E0,-3.831539452E-1
1.533063703E1,-1.491383553E0,1.497797489E0,-4.349232614E-1
1.533978911E1,-1.486649513E0,1.673721433E0,-4.703523815E-1
1.534894120E1,-1.452594757E0,1.797265291E0,-4.830274582E-1
1.535809328E1,-1.413653255E0,1.936385870E0,-4.804313779E-1
1.536724536E1,-1.375627995E0,2.031067133E0,-4.857762754E-1
1.537639745E1,-1.333937645E0,2.058249950E0,-5.086830258E-1
1.538553672E1,-1.263842940E0,1.955627441E0,-5.422796607E-1
1.539470156E1,-1.151141644E0,1.765959382E0,-5.755708218E-1
1.540385365E1,-1.053253412E0,1.522536755E0,-6.113054156E-1
1.541299297E1,-9.843803644E-1,1.192831993E0,-6.325323582E-1
1.542215781E1,-9.249754548E-1,8.218950033E-1,-6.233696342E-1
1.543130990E1,-8.765658140E-1,4.314108789E-1,-6.093201637E-1
1.544044922E1,-8.596147895E-1,1.049130186E-1,-6.051968932E-1
1.544961406E1,-9.152019024E-1,-1.695101149E-2,-6.044333577E-1
1.545876609E1,-9.662076235E-1,-3.084778599E-2,-5.943543911E-1
1.546790542E1,-9.689564705E-1,-1.145338640E-2,-5.735855699E-1
1.547707026E1,-9.750649333E-1,1.108687744E-1,-5.664080977E-1
1.548622234E1,-1.010646820E0,3.138227761E-1,-5.864133835E-1
1.549537443E1,-1.012326598E0,4.534013867E-1,-6.187883019E-1
1.550452651E1,-9.521581531E-1,4.914266169E-1,-6.500942111E-1
1.551367859E1,-8.886300325E-1,4.969242513E-1,-6.827745438E-1
1.552281792E1,-8.215895891E-1,5.300627351E-1,-6.998782754E-1
1.553198276E1,-7.062921524E-1,5.157077909E-1,-6.875085831E-1
1.554113479E1,-5.349494815E-1,4.275930822E-1,-6.441384554E-1
1.555027411E1,-3.000787199E-1,3.735330999E-1,-5.471664071E-1
1.555943896E1,1.603474095E-2,3.132119179E-1,-3.982724249E-1
1.556859104E1,4.011739492E-1,2.541124523E-1,-2.392994165E-1
1.557773036E1,8.240329623E-1,2.895416021E-1,-1.337755471E-1
1.558689521E1,1.217571259E0,5.186093450E-1,-1.091889441E-1
1.559604729E1,1.556896925E0,8.276980519E-1,-1.075091213E-1
1.560518661E1,1.829334855E0,9.352071285E-1,-2.886253223E-2
1.561435141E1,2.068939686E0,7.259919643E-1,1.446180940E-1
1.562350349E1,2.292051554E0,1.718007922E-1,4.202629030E-1
1.563264286E1,2.476222038E0,-6.093201637E-1,7.798992395E-1
1.564180766E1,2.575331926E0,-1.236354828E0,1.134037971E0
1.565095974E1,2.668486357E0,-1.649287581E0,1.375627995E0
1.566009906E1,2.815242290E0,-2.005258799E0,1.515512109E0
1.566926391E1,3.006437540E0,-2.405974627E0,1.594158649E0
1.567841599E1,3.190760612E0,-3.010255337E0,1.569572091E0
1.568755531E1,3.331866264E0,-3.591323853E0,1.449998736E0
1.569672016E1,3.390355110E0,-3.843145609E0,1.287055135E0
1.570587224E1,3.350802660E0,-3.821002245E0,1.098608851E0
1.571501156E1,3.250623703E0,-3.494046211E0,9.274188280E-1
1.572417635E1,3.155637026E0,-3.069965601E0,7.803573608E-1
1.573332844E1,3.118527889E0,-2.590145111E0,6.656708121E-1
1.574246776E1,3.115320921E0,-1.929819226E0,6.412369013E-1
1.575163260E1,3.130897522E0,-1.142437100E0,7.104153633E-1
1.576078469E1,3.115779161E0,-3.744493723E-1,7.824953198E-1
1.576992401E1,3.027664423E0,3.136700690E-1,8.142594099E-1
1.577908885E1,2.884726286E0,7.721109390E-1,8.519791961E-1
1.578824094E1,2.735832214E0,1.008203387E0,8.788564801E-1
1.579738026E1,2.640387297E0,1.066997409E0,8.678612709E-1
1.580654510E1,2.599307775E0,9.909469485E-1,8.345700502E-1
1.581569719E1,2.565253019E0,8.220477104E-1,8.144121170E-1
1.582483651E1,2.517301559E0,6.574243903E-1,8.049439788E-1
1.583400130E1,2.477291107E0,4.717268050E-1,7.589777112E-1
1.584315338E1,2.447817564E0,2.276933193E-1,6.374191046E-1
1.585229271E1,2.401240587E0,-6.413896382E-2,4.559974670E-1
1.586145755E1,2.340003252E0,-3.571929336E-1,2.768665254E-1
1.587060964E1,2.270672083E0,-6.152759194E-1,1.250709742E-1
1.587976172E1,2.181641102E0,-7.911999226E-1,-4.275931045E-3
1.588891380E1,2.051225185E0,-8.544226289E-1,-1.017060652E-1
1.589806589E1,1.863236904E0,-8.290724158E-1,-1.488940120E-1
1.590720521E1,1.620577812E0,-7.620319724E-1,-1.688992679E-1
1.591637005E1,1.353942990E0,-6.526902914E-1,-1.812689304E-1
1.592552214E1,1.099983215E0,-5.146388412E-1,-2.020377368E-1
1.593466146E1,8.571714163E-1,-3.465031087E-1,-2.301367074E-1
1.594382630E1,6.087092757E-1,-2.060082406E-1,-2.490729690E-1
1.595297839E1,3.640649617E-1,-1.400367320E-1,-2.588465214E-1
1.596211771E1,1.195733473E-1,-9.590301663E-2,-2.623589039E-1
1.597128250E1,-1.450762302E-1,-1.557660475E-2,-2.435753495E-1
1.598043458E1,-4.187358022E-1,9.941539168E-2,-1.795890927E-1
1.598957391E1,-6.468872428E-1,1.386623234E-1,-8.047912270E-2
1.599873875E1,-7.902836204E-1,5.741964281E-2,1.084253844E-2
1.600789083E1,-8.906152844E-1,-1.566823274E-1,2.550287358E-2
1.601703016E1,-1.066997409E0,-4.114056230E-1,-1.832541823E-2
1.602619500E1,-1.299577594E0,-5.143333673E-1,-6.627693027E-2
1.603534708E1,-1.470920205E0,-5.480827093E-1,-1.395785958E-1
1.604448641E1,-1.519482613E0,-4.424061179E-1,-2.284568697E-1
1.605365125E1,-1.515664816E0,-8.826743066E-2,-2.654131353E-1
1.606280333E1,-1.532921195E0,1.577513069E-1,-2.235700935E-1
1.607194266E1,-1.621799469E0,-3.075616062E-1,-2.183778882E-1
1.608110750E1,-1.701056957E0,-1.358371615E0,-2.681619525E-1
1.609025958E1,-1.733431816E0,-1.676012158E0,-1.105633527E-1
1.609939891E1,-1.850409031E0,-1.044854283E0,1.359135211E-1
1.610856370E1,-2.084058046E0,1.305686086E-1,2.855710983E-1
1.611771578E1,-2.135980129E0,1.030193925E0,3.425326049E-1
1.612685516E1,-1.938218355E0,1.300341129E0,2.673983872E-1
1.613601995E1,-1.967997193E0,1.342184186E0,2.177670449E-1
1.614517203E1,-2.202409744E0,1.374711752E0,3.264978528E-1
1.615431135E1,-2.154305458E0,1.376086116E0,4.851654470E-1
1.616347620E1,-1.927833915E0,1.191610336E0,5.241069198E-1
1.617262828E1,-1.792989373E0,7.134696245E-1,3.965925872E-1
1.618176760E1,-1.818339586E0,-1.771457121E-2,2.026485801E-1
1.619093245E1,-1.817881465E0,-6.358919740E-1,5.650337040E-2
1.620008453E1,-1.702736735E0,-8.060129285E-1,-2.443389036E-2
1.620923661E1,-1.569724798E0,-7.021689415E-1,-5.833591148E-2
1.621838870E1,-1.470309377E0,-7.811209559E-1,-7.223268598E-2
1.622754078E1,-1.359135151E0,-1.145033240E0,-1.114796251E-1
1.623668010E1,-1.239714503E0,-1.451067686E0,-1.446180940E-1
1.624584495E1,-1.236812949E0,-1.442515850E0,-1.128540337E-1
1.625499703E1,-1.292094707E0,-1.156181097E0,-4.688252881E-2
1.626413635E1,-1.257123709E0,-7.411104441E-1,1.771457121E-2
1.627330120E1,-1.216960430E0,-2.353289127E-1,8.246438205E-2
1.628245328E1,-1.268118858E0,1.672194302E-1,1.246128380E-1
1.629160536E1,-1.290720224E0,3.500154912E-1,1.493521482E-1
1.630075745E1,-1.304617047E0,5.079194903E-1,1.650814712E-1
1.630990948E1,-1.343405843E0,7.139277458E-1,1.713426560E-1
1.631904885E1,-1.353332043E0,9.373451471E-1,1.551551968E-1
1.632821364E1,-1.318361044E0,1.054169655E0,1.113269106E-1
1.633736573E1,-1.243837714E0,1.077534556E0,5.512896553E-2
1.634651781E1,-1.176644564E0,1.035996914E0,-6.108472589E-4
1.635566990E1,-1.167481780E0,9.387195110E-1,-5.176930502E-2
1.636482198E1,-1.190541267E0,8.463288546E-1,-1.032331884E-1
1.637397406E1,-1.216196895E0,8.431219459E-1,-1.510319859E-1
1.638312615E1,-1.255596519E0,9.199360013E-1,-1.910424829E-1
1.639227823E1,-1.318819284E0,9.830059409E-1,-2.257080674E-1
1.640143031E1,-1.394716978E0,1.009272337E0,-2.524326444E-1
1.641058240E1,-1.445875406E0,1.149003744E0,-2.689255178E-1
1.641973448E1,-1.464658976E0,1.259872437E0,-2.690782249E-1
1.642888656E1,-1.470003963E0,1.425564766E0,-2.582356930E-1
1.643803865E1,-1.455954432E0,1.667154908E0,-2.747285664E-1
1.644719073E1,-1.472447276E0,1.880187869E0,-3.330644667E-1
1.645634281E1,-1.530630469E0,2.023278952E0,-4.086568058E-1
1.646549490E1,-1.494285107E0,2.193705320E0,-4.799732268E-1
1.647464698E1,-1.366312623E0,2.255706310E0,-5.383091569E-1
1.648378630E1,-1.192068458E0,2.011214495E0,-5.723638535E-1
1.649295114E1,-1.045465112E0,1.401436329E0,-5.879405141E-1
1.650210323E1,-9.414683580E-1,5.844281316E-1,-5.836645365E-1
1.651125531E1,-8.576295376E-1,-1.395785958E-1,-5.587725043E-1
1.652040740E1,-8.200624585E-1,-4.883723855E-1,-5.404471159E-1
1.652955948E1,-8.063184023E-1,-4.347705245E-1,-5.386145711E-1
1.653869880E1,-8.192988634E-1,-2.997733057E-1,-5.454866290E-1
1.654786364E1,-7.963921428E-1,-2.292204350E-1,-5.599942207E-1
1.655701573E1,-7.942541242E-1,-4.672981426E-2,-5.674771070E-1
1.656616781E1,-8.454126120E-1,2.382304370E-1,-5.619794726E-1
1.657531990E1,-8.722898960E-1,6.203153729E-1,-5.453338623E-1
1.658447198E1,-8.374716043E-1,9.258917570E-1,-5.288410187E-1
1.659362406E1,-8.050966859E-1,1.018740535E0,-5.254813433E-1
1.660277614E1,-8.145648241E-1,9.704836011E-1,-5.384618640E-1
1.661192823E1,-7.870767117E-1,9.512419105E-1,-5.431959033E-1
1.662108031E1,-7.339329720E-1,9.268079996E-1,-5.299099684E-1
1.663023240E1,-7.049177289E-1,8.310576677E-1,-5.045598149E-1
1.663938448E1,-6.748335361E-1,7.583668828E-1,-4.537068009E-1
1.664852380E1,-5.903838873E-1,7.858549953E-1,-3.828485310E-1
1.665768864E1,-4.304946065E-1,8.629744649E-1,-3.170297146E-1
1.666684073E1,-1.954711229E-1,8.936695457E-1,-2.744231224E-1
1.667598005E1,7.620319724E-2,8.339592218E-1,-2.353289127E-1
1.668514490E1,3.530697227E-1,7.291989326E-1,-1.898207814E-1
1.669429698E1,6.365028620E-1,6.424586177E-1,-1.310267299E-1
1.670343630E1,9.672766328E-1,5.517477989E-1,-3.344388679E-2
1.671260114E1,1.341267824E0,4.407263100E-1,8.964183182E-2
1.672175323E1,1.710677743E0,4.495835900E-1,1.838650256E-1
1.673089255E1,2.026638508E0,5.833591223E-1,2.318165302E-1
1.674005740E1,2.259524107E0,7.105680704E-1,2.938175201E-1
1.674920948E1,2.384442329E0,5.996993184E-1,4.242334068E-1
1.675834880E1,2.389939785E0,3.184041381E-1,5.832064152E-1
1.676751364E1,2.350845575E0,-1.175880991E-2,7.725690603E-1
1.677666573E1,2.300756216E0,-6.485670805E-1,9.839222431E-1
1.678580505E1,2.280292749E0,-1.507876515E0,1.185349107E0
1.679496990E1,2.433462858E0,-2.079018593E0,1.306449533E0
1.680412198E1,2.746980190E0,-2.276169538E0,1.308740258E0
1.681327406E1,3.057595968E0,-2.304726601E0,1.242616057E0
1.682242614E1,3.213361979E0,-2.303199530E0,1.142437100E0
1.683157823E1,3.174726009E0,-2.406127453E0,1.012173891E0
1.684071755E1,3.008422852E0,-2.502794027E0,8.761076927E-1
1.684988240E1,2.828986406E0,-2.451482773E0,7.812736630E-1
1.685903448E1,2.747285604E0,-2.254789829E0,7.568397522E-1
1.686817385E1,2.756295443E0,-1.948602796E0,7.798992395E-1
1.687733865E1,2.759960651E0,-1.565754294E0,8.180772066E-1
1.688649073E1,2.717201233E0,-1.127013206E0,8.510629535E-1
1.689563010E1,2.624810696E0,-6.594096422E-1,8.719844818E-1
1.690479495E1,2.510735035E0,-3.106158376E-1,8.831323981E-1
1.691394703E1,2.425063610E0,-1.438545287E-1,8.623636365E-1
1.692309911E1,2.393910408E0,-1.049130186E-1,8.296833038E-1
1.693225120E1,2.365353346E0,-7.009471953E-2,7.965448499E-1
1.694140328E1,2.328397036E0,2.137965523E-3,7.803573608E-1
1.695055536E1,2.298007488E0,2.321219631E-2,7.965448499E-1
1.695970745E1,2.274031639E0,5.803049076E-3,8.177717924E-1
1.696885953E1,2.254942656E0,-4.749337584E-2,7.937960029E-1
1.697799885E1,2.225011110E0,-9.972081333E-2,6.899519563E-1
1.698716370E1,2.165606260E0,-1.414111406E-1,5.373928547E-1
1.699631578E1,2.071077585E0,-1.939440072E-1,3.909422457E-1
1.700545510E1,1.940967202E0,-2.716743052E-1,2.782409191E-1
1.701461995E1,1.803679228E0,-3.884988427E-1,1.925695986E-1
1.702377203E1,1.684869409E0,-5.125008225E-1,1.238492802E-1
1.703292411E1,1.567892194E0,-6.436802745E-1,6.642963737E-2
1.704207620E1,1.420372605E0,-7.302678823E-1,2.596100792E-3
1.705122828E1,1.217876673E0,-7.302678823E-1,-6.368082762E-2
1.706038036E1,9.713998437E-1,-6.453601122E-1,-1.191152185E-1
1.706953245E1,7.163711190E-1,-5.001311898E-1,-1.589729935E-1
1.707868453E1,4.897467792E-1,-3.023693860E-1,-2.192941606E-1
1.708783661E1,2.667875290E-1,-6.016845629E-2,-2.899997234E-1
1.709698870E1,2.641914412E-2,1.478250325E-1,-3.297048211E-1
1.710614078E1,-2.136438340E-1,2.385358512E-1,-2.991624475E-1
1.711529286E1,-4.326325655E-1,1.475196183E-1,-1.797417998E-1
1.712444495E1,-6.306998134E-1,-3.374931216E-2,-6.306997687E-2
1.713359708E1,-7.933378816E-1,-1.856975704E-1,-4.169032723E-2
1.714273641E1,-9.559759498E-1,-1.908897758E-1,-6.597150117E-2
1.715190125E1,-1.151752472E0,-1.328592747E-1,-9.605573118E-2
1.716105333E1,-1.360662222E0,-3.110739589E-1,-1.585148573E-1
1.717020542E1,-1.549566746E0,-5.190674663E-1,-2.542651594E-1
1.717935750E1,-1.662878990E0,-4.046863019E-1,-3.510844707E-1
1.718850958E1,-1.694643021E0,-6.872031838E-2,-4.321744442E-1
1.719764891E1,-1.688381791E0,3.124483824E-1,-4.885250926E-1
1.720681375E1,-1.761530757E0,4.220954478E-1,-4.818057716E-1
1.721596583E1,-1.980214119E0,-7.635590737E-4,-3.536805511E-1
1.722510516E1,-2.154305458E0,-1.395785958E-1,-1.800472289E-1
1.723427000E1,-2.182251930E0,7.353073955E-1,-3.252761811E-2
1.724342208E1,-2.443694353E0,1.892862916E0,4.779879749E-2
1.725256141E1,-2.419565916E0,2.164537191E0,4.230117425E-2
1.726172625E1,-1.902789235E0,1.530172348E0,1.038440317E-2
1.727087833E1,-1.710525036E0,8.405258060E-1,1.099525020E-2
1.728001771E1,-1.939440012E0,4.992149174E-1,5.726693198E-2
1.728918255E1,-1.964790225E0,-6.230641901E-2,8.612946421E-2
1.729833464E1,-1.677081108E0,-7.947123051E-1,5.207473040E-2
1.730747396E1,-1.615843654E0,-1.030957460E0,1.175880991E-2
1.731663880E1,-1.800624967E0,-8.354863524E-1,2.015795931E-2
1.732579088E1,-1.769777179E0,-5.899257660E-1,8.063183725E-2
1.733493021E1,-1.562394619E0,-6.525375843E-1,1.536280811E-1
1.734409505E1,-1.439614296E0,-9.475768209E-1,1.742441803E-1
1.735324714E1,-1.453358293E0,-1.255749226E0,1.212531775E-1
1.736238646E1,-1.454885483E0,-1.434116602E0,-1.374406274E-3
1.737155130E1,-1.369825006E0,-1.325233102E0,-1.194206402E-1
1.738070338E1,-1.346918225E0,-1.030193925E0,-1.835595965E-1
1.738984276E1,-1.376544356E0,-6.615476012E-1,-2.163926363E-1
1.739900760E1,-1.364632726E0,-2.446443290E-1,-2.458660156E-1
1.740815969E1,-1.356691718E0,1.777565479E-1,-2.363978922E-1
1.741729901E1,-1.379293084E0,6.238277555E-1,-1.861557066E-1
1.742646385E1,-1.383263588E0,9.820896983E-1,-1.302631795E-1
1.743561594E1,-1.339588046E0,1.245517612E0,-8.979454637E-2
1.744476802E1,-1.305227876E0,1.471683741E0,-7.818844914E-2
1.745392010E1,-1.279877663E0,1.610956907E0,-9.758284688E-2
1.746307219E1,-1.291483760E0,1.613705754E0,-1.411057115E-1
1.747222427E1,-1.356691718E0,1.618897915E0,-1.910424829E-1
1.748137635E1,-1.354401112E0,1.600419760E0,-2.501419485E-1
1.749052844E1,-1.293010950E0,1.526812673E0,-3.364241421E-1
1.749968057E1,-1.302020907E0,1.475196123E0,-4.262186885E-1
1.750883266E1,-1.393037200E0,1.413805962E0,-4.995203316E-1
1.751798474E1,-1.473058224E0,1.289956689E0,-5.567872524E-1
1.752713682E1,-1.448624253E0,1.254374862E0,-5.717530251E-1
1.753628891E1,-1.333479524E0,1.254680276E0,-5.398362875E-1
1.754544099E1,-1.214669824E0,1.248419046E0,-5.060869455E-1
1.755459307E1,-1.182600260E0,1.314695954E0,-5.163186193E-1
1.756374516E1,-1.267202616E0,1.436101913E0,-5.786250830E-1
1.757289724E1,-1.358829737E0,1.590035439E0,-6.398624778E-1
1.758204938E1,-1.343253136E0,1.789476991E0,-6.520794630E-1
1.759120146E1,-1.243837714E0,2.018697500E0,-6.221479177E-1
1.760035354E1,-1.173284888E0,2.127428293E0,-5.851916671E-1
1.760950562E1,-1.149919987E0,2.040229797E0,-5.635066032E-1
1.761865771E1,-1.127318621E0,1.929361105E0,-5.560237169E-1
1.762780979E1,-1.116017938E0,1.759545565E0,-5.515950918E-1
1.763694911E1,-1.069898963E0,1.485427856E0,-5.314370990E-1
1.764611396E1,-9.630007148E-1,1.166260123E0,-5.085303187E-1
1.765526609E1,-8.535063267E-1,7.681404352E-1,-5.068505406E-1
1.766441818E1,-8.107470274E-1,3.168770075E-1,-4.989095032E-1
1.767357026E1,-7.994463444E-1,-2.053973973E-1,-4.715740979E-1
1.768272234E1,-7.847860456E-1,-6.161921620E-1,-4.320217371E-1
1.769186167E1,-8.338065147E-1,-7.420266867E-1,-3.852919042E-1
1.770102651E1,-9.310839176E-1,-7.047650218E-1,-3.665083647E-1
1.771017859E1,-9.961391687E-1,-6.494833231E-1,-3.944546282E-1
1.771931797E1,-1.009577751E0,-5.642701387E-1,-4.561502039E-1
1.772848276E1,-9.827005267E-1,-3.674246371E-1,-5.123481154E-1
1.773763490E1,-9.393303990E-1,-1.065928489E-1,-5.415160656E-1
1.774678698E1,-8.776348233E-1,1.652341783E-1,-5.499152541E-1
1.775593906E1,-7.893673778E-1,4.337015450E-1,-5.238015056E-1
1.776509114E1,-6.642963886E-1,6.125270724E-1,-4.657710493E-1
1.777423047E1,-4.523324072E-1,6.577298045E-1,-3.836120665E-1
1.778339531E1,-1.236965731E-1,6.557445526E-1,-2.695363462E-1
1.779254740E1,2.817533016E-1,5.917583108E-1,-1.267508119E-1
1.780168677E1,7.183563709E-1,4.430169761E-1,1.252236869E-2
1.781085161E1,1.140451789E0,4.361449480E-1,7.406523079E-2
1.782000370E1,1.512305140E0,7.950177193E-1,1.420219894E-2
1.782915578E1,1.824600816E0,1.402657986E0,-5.543438718E-2
1.783830786E1,2.132773161E0,1.783215880E0,3.802524135E-2
1.784745995E1,2.408723354E0,1.475348830E0,2.858765125E-1
1.785659932E1,2.651382446E0,5.810684562E-1,6.080984473E-1
1.786576417E1,2.802109003E0,-6.044333577E-1,9.721634388E-1
1.787491625E1,2.808522940E0,-1.476570487E0,1.261094213E0
1.788406833E1,2.726058722E0,-1.695406556E0,1.418081880E0
1.789322042E1,2.708802223E0,-1.577818513E0,1.468629479E0
1.790237250E1,2.820587158E0,-1.676470280E0,1.449387789E0
1.791151188E1,3.010102510E0,-2.053363085E0,1.438698053E0
1.792067672E1,3.155942440E0,-2.578538895E0,1.448776960E0
1.792982880E1,3.193051338E0,-2.938480854E0,1.422968745E0
1.793896813E1,3.080197334E0,-2.956347942E0,1.348903418E0
1.794813297E1,2.925194740E0,-2.873883724E0,1.238492846E0
1.795728505E1,2.851587772E0,-2.784089088E0,1.095554590E0
1.796642443E1,2.849144220E0,-2.573194027E0,9.616262913E-1
1.797558927E1,2.874036312E0,-2.160566807E0,8.993198872E-1
1.798474135E1,2.884420872E0,-1.532463074E0,9.397885203E-1
1.799388068E1,2.841356039E0,-9.483403563E-1,1.022100210E0
1.800304552E1,2.740871668E0,-4.746283293E-1,1.060125470E0
1.801219760E1,2.622672796E0,-8.124268800E-2,1.069440842E0
1.802134969E1,2.511651278E0,1.982199401E-1,1.084406614E0
1.803050182E1,2.438654900E0,3.590254784E-1,1.109298587E0
1.803965391E1,2.409334183E0,3.776563108E-1,1.117697716E0
1.804879323E1,2.374516010E0,2.860292196E-1,1.090667725E0
1.805795807E1,2.296022177E0,1.511846930E-1,1.016907930E0
1.806711016E1,2.197981119E0,-6.719320081E-3,8.977927566E-1
1.807624953E1,2.121472597E0,-2.079934925E-1,7.514948249E-1
1.808541438E1,2.066190958E0,-4.311054647E-1,5.955760479E-1
1.809456646E1,2.000830173E0,-6.397097707E-1,4.352286756E-1
1.810371854E1,1.924474239E0,-7.873821259E-1,2.919849753E-1
1.811287063E1,1.834527016E0,-8.802309036E-1,1.856975704E-1
1.812202276E1,1.708845258E0,-9.168817401E-1,1.145338640E-1
1.813117484E1,1.536433578E0,-9.197832346E-1,6.032116711E-2
1.814032693E1,1.337450027E0,-9.063445926E-1,8.704573847E-3
1.814947901E1,1.121362805E0,-8.382351398E-1,-3.619270027E-2
1.815863109E1,9.104678631E-1,-7.368345261E-1,-7.131642103E-2
1.816778323E1,6.809419990E-1,-5.740436912E-1,-9.681928903E-2
1.817693531E1,4.074351192E-1,-3.810159862E-1,-1.056765765E-1
1.818608740E1,1.082726792E-1,-2.217375487E-1,-8.842013776E-2
1.819523948E1,-1.669140160E-1,-1.443126649E-1,-4.275930673E-2
1.820439156E1,-3.888042867E-1,-1.033858955E-1,1.435491070E-2
1.821354370E1,-5.783196688E-1,-2.031067200E-2,8.246438205E-2
1.822269578E1,-7.774558663E-1,8.567132801E-2,1.537808031E-1
1.823184786E1,-9.717052579E-1,1.398840249E-1,2.133384049E-1
1.824098724E1,-1.140146375E0,1.068982761E-3,2.429644912E-1
1.825015203E1,-1.309961915E0,-2.403683960E-1,2.241809368E-1
1.825930417E1,-1.521773219E0,-3.668137789E-1,1.495048702E-1
1.826844349E1,-1.768708229E0,-1.895153672E-1,6.566607859E-3
1.827760833E1,-1.918365836E0,1.921114624E-1,-2.092151791E-1
1.828676042E1,-1.830709219E0,7.094991207E-1,-4.679090083E-1
1.829589979E1,-1.546054363E0,1.108535051E0,-6.927008033E-1
1.830506464E1,-1.417929173E0,5.557183027E-1,-6.791094542E-1
1.831421672E1,-1.727476001E0,-4.436278343E-1,-4.650074840E-1
1.832335604E1,-2.241809368E0,-3.206948042E-1,-2.202104330E-1
1.833252088E1,-2.596406221E0,1.127624035E0,1.469087601E-1
1.834167302E1,-2.550592661E0,2.399408102E0,5.028799772E-1
1.835081234E1,-2.235701084E0,2.139492512E0,4.827220440E-1
1.835997719E1,-1.709303379E0,6.140542030E-1,5.818320066E-2
1.836912927E1,-1.267660737E0,-9.335273504E-1,-1.684411317E-1
1.837826865E1,-1.435338378E0,-1.573237062E0,4.275931045E-3
1.838743349E1,-1.920503736E0,-1.460383058E0,2.463241518E-1
1.839658557E1,-2.013199806E0,-1.193290114E0,3.145863414E-1
1.840572490E1,-1.758629203E0,-1.063026905E0,2.002051920E-1
1.841488974E1,-1.623326540E0,-1.100899458E0,5.512896553E-2
1.842404188E1,-1.688534498E0,-1.092653036E0,9.468132630E-3
1.843319396E1,-1.754200578E0,-9.694145918E-1,-2.947338112E-2
1.844234604E1,-1.695101142E0,-8.330429196E-1,-1.586675793E-1
1.845149812E1,-1.577207565E0,-7.104153633E-1,-3.080197275E-1
1.846063750E1,-1.516733766E0,-4.624113739E-1,-3.964398801E-1
1.846980234E1,-1.513984919E0,-1.551551968E-1,-4.008685052E-1
1.847895443E1,-1.512763262E0,1.036913246E-1,-3.376458287E-1
1.848809375E1,-1.512610555E0,3.782671690E-1,-2.223484069E-1
1.849725865E1,-1.496575832E0,6.699467301E-1,-8.139539510E-2
1.850641073E1,-1.457328796E0,9.790354371E-1,3.405473381E-2
1.851556281E1,-1.425564766E0,1.271478534E0,9.025268257E-2
1.852471490E1,-1.393953443E0,1.449235082E0,7.941014320E-2
1.853386698E1,-1.352263093E0,1.506502032E0,4.169032723E-2
1.854301911E1,-1.322484374E0,1.499629974E0,3.512371797E-3
1.855217120E1,-1.333937645E0,1.482068181E0,-3.451287001E-2
1.856132328E1,-1.357455373E0,1.441446781E0,-7.849387079E-2
1.857047542E1,-1.367992401E0,1.270104170E0,-1.316375881E-1
1.857962750E1,-1.410751700E0,1.192068458E0,-1.953184158E-1
1.858877958E1,-1.534753680E0,1.241547108E0,-2.719797492E-1
1.859793167E1,-1.617370844E0,1.212226391E0,-3.574983478E-1
1.860708375E1,-1.625769973E0,1.214822531E0,-4.369085133E-1
1.861623589E1,-1.623173833E0,1.295454383E0,-4.741701782E-1
1.862538797E1,-1.608666301E0,1.392579079E0,-4.662291706E-1
1.863454005E1,-1.564685225E0,1.418081880E0,-4.207210541E-1
1.864369214E1,-1.554911733E0,1.471989155E0,-3.742966652E-1
1.865284427E1,-1.571099162E0,1.626838923E0,-3.781144619E-1
1.866199635E1,-1.522689462E0,1.750840902E0,-4.272876680E-1
1.867114844E1,-1.389677525E0,1.798487067E0,-4.692834020E-1
1.868030052E1,-1.293469071E0,1.718466043E0,-4.844018817E-1
1.868945266E1,-1.275754452E0,1.625006437E0,-5.170822144E-1
1.869860474E1,-1.287818789E0,1.478861213E0,-5.751127005E-1
1.870774406E1,-1.262163162E0,1.304006219E0,-6.102364063E-1
1.871690891E1,-1.157402873E0,1.096318126E0,-6.026008129E-1
1.872606104E1,-1.027903199E0,7.881456614E-1,-5.661026835E-1
1.873521312E1,-9.497147799E-1,3.654393852E-1,-5.108210444E-1
1.874436521E1,-9.481876493E-1,1.740914769E-2,-4.671454430E-1
1.875351729E1,-9.692618847E-1,-1.038440317E-1,-4.666872919E-1
1.876265667E1,-9.387195110E-1,-6.581879407E-2,-4.891359508E-1
1.877182151E1,-8.715263009E-1,5.955760833E-3,-4.844018817E-1
1.878097359E1,-8.400676847E-1,5.497625470E-2,-4.512633979E-1
1.879012568E1,-8.000571728E-1,1.201841980E-1,-4.162923992E-1
1.879927781E1,-7.206470370E-1,2.620534599E-1,-4.046863019E-1
1.880842990E1,-6.128324866E-1,4.068242610E-1,-4.028537571E-1
1.881758198E1,-4.894413650E-1,4.527905285E-1,-3.935383558E-1
1.882673411E1,-3.825430870E-1,4.156815708E-1,-3.518480062E-1
1.883588620E1,-2.774773538E-1,4.228590131E-1,-2.863346636E-1
1.884503828E1,-2.221956849E-1,4.219427407E-1,-2.437280566E-1
1.885419036E1,-2.392994165E-1,4.043808877E-1,-2.438807636E-1
1.886334245E1,-2.626643181E-1,4.747810364E-1,-2.576248348E-1
1.887249458E1,-2.454078794E-1,6.175665855E-1,-2.735068500E-1
1.888164667E1,-1.569877416E-1,8.163973689E-1,-2.967190444E-1
1.889079875E1,2.122694254E-2,1.026376128E0,-3.237490356E-1
1.889993813E1,2.742704153E-1,1.124264359E0,-3.330644667E-1
1.890910297E1,5.821374655E-1,1.077381849E0,-2.983988822E-1
1.891825505E1,9.513946176E-1,8.843541145E-1,-1.777565479E-1
1.892739438E1,1.381583810E0,5.839699507E-1,1.893626526E-2
1.893655927E1,1.840024710E0,2.257080674E-1,2.166980654E-1
1.894571135E1,2.261509180E0,-3.756710514E-2,3.726168275E-1
1.895485068E1,2.573499441E0,-1.661504507E-1,4.792096615E-1
1.896401552E1,2.763625622E0,-2.373141646E-1,5.558710098E-1
1.897316766E1,2.796764135E0,-3.237490356E-1,6.323796511E-1
1.898230698E1,2.756906509E0,-3.384093940E-1,7.713474035E-1
1.899147182E1,2.704068184E0,-3.069507480E-1,9.633061290E-1
1.900062391E1,2.622214556E0,-3.468085229E-1,1.145949483E0
1.900976328E1,2.511345863E0,-4.833329022E-1,1.268577099E0
1.901892813E1,2.471487999E0,-4.625640810E-1,1.335464835E0
1.902808021E1,2.594879150E0,-4.266768098E-1,1.365090966E0
1.903721958E1,2.812798977E0,-5.486935377E-1,1.381278396E0
1.904638443E1,3.037285328E0,-9.862129092E-1,1.402810693E0
1.905553651E1,3.228938580E0,-1.740609288E0,1.386928678E0
1.906467583E1,3.370349646E0,-2.357717752E0,1.301715493E0
1.907384068E1,3.446400166E0,-2.596100807E0,1.150988936E0
1.908299281E1,3.409902096E0,-2.616258860E0,9.588775039E-1
1.909213214E1,3.274294138E0,-2.535321474E0,7.637118101E-1
1.910129698E1,3.135631800E0,-2.386121988E0,5.978667736E-1
1.911044911E1,3.028886080E0,-1.992583752E0,5.015056133E-1
1.911958844E1,2.922751427E0,-1.356997132E0,5.234960914E-1
1.912875328E1,2.839828968E0,-7.437065244E-1,6.372663975E-1
1.913790536E1,2.788059711E0,-2.466295809E-1,7.678350210E-1
1.914705750E1,2.725600481E0,1.421747059E-1,8.623636365E-1
1.915620958E1,2.614273548E0,3.868190348E-1,9.072608948E-1
1.916536167E1,2.450108290E0,4.816530645E-1,8.773293495E-1
1.917450104E1,2.280445576E0,4.900522232E-1,7.820371985E-1
1.918366588E1,2.145295620E0,4.188885093E-1,6.797202826E-1
1.919281797E1,2.052752256E0,2.557922900E-1,5.931326747E-1
1.920195734E1,1.969829679E0,6.062658876E-2,5.010474920E-1
1.921112219E1,1.871483326E0,-1.572931707E-1,4.266768098E-1
1.922027427E1,1.785201073E0,-3.964398801E-1,3.420744538E-1
1.922942635E1,1.718466043E0,-5.975613594E-1,2.458660156E-1
1.923857844E1,1.653868914E0,-7.143858671E-1,1.482831687E-1
1.924773057E1,1.570182920E0,-7.707365155E-1,6.704048812E-2
1.925688266E1,1.448318839E0,-8.247964978E-1,1.863084175E-2
1.926603474E1,1.289956689E0,-8.866447806E-1,-7.635590737E-4
1.927518682E1,1.103648305E0,-9.333745837E-1,-1.114796288E-2
1.928433896E1,9.095515609E-1,-9.420791864E-1,-1.801999472E-2
1.929349104E1,7.160657048E-1,-8.857285380E-1,-1.221694518E-2
1.930264312E1,5.215108395E-1,-7.852441669E-1,1.206423342E-2
1.931179521E1,3.165715933E-1,-6.969767213E-1,4.657710344E-2
1.932094734E1,1.049130186E-1,-6.206207871E-1,8.536590636E-2
1.933009943E1,-7.910472155E-2,-5.346440673E-1,1.359135211E-1
1.933925151E1,-2.220429778E-1,-4.297310412E-1,1.879882365E-1
1.934840364E1,-3.516952991E-1,-2.881672084E-1,2.290677279E-1
1.935755573E1,-4.938700199E-1,-1.618745178E-1,2.347180545E-1
1.936670781E1,-6.490252018E-1,-1.096470803E-1,2.250972092E-1
1.937585995E1,-8.057075143E-1,-9.910997003E-2,2.195995897E-1
1.938501203E1,-9.839222431E-1,-8.674030751E-2,2.116585821E-1
1.939416411E1,-1.174659252E0,-4.688252881E-2,1.858502775E-1
1.940331620E1,-1.350277901E0,-1.893626526E-2,1.363716573E-1
1.941246833E1,-1.514137626E0,-3.206948051E-3,7.773031294E-2
1.942162042E1,-1.674790502E0,7.635590620E-3,-3.359660041E-3
1.943077250E1,-1.794821978E0,3.710897267E-2,-1.221694499E-1
1.943992464E1,-1.745037913E0,1.969982386E-1,-2.464768738E-1
1.944906396E1,-1.416096687E0,5.172349215E-1,-3.292466700E-1
1.945822880E1,-1.033400893E0,5.376983285E-1,-3.210002482E-1
1.946738088E1,-1.121210098E0,-1.869192570E-1,-2.185306102E-1
1.947652026E1,-1.485122442E0,-7.762341499E-1,-8.765657991E-2
1.948568510E1,-1.857433796E0,-5.198310018E-1,-6.719320081E-3
1.949483719E1,-2.113226175E0,-5.619794875E-2,1.801999472E-2
1.950397656E1,-2.069550514E0,5.251759291E-1,1.449235082E-1
1.951314141E1,-1.988155127E0,9.321529269E-1,3.107685447E-1
1.952229349E1,-1.883242130E0,6.377245188E-1,3.184041381E-1
1.953143281E1,-1.693726778E0,1.357607991E-1,2.547233105E-1
1.954059771E1,-1.563921690E0,-1.797417998E-1,2.638860047E-1
1.954974979E1,-1.657075882E0,-2.609844804E-1,3.048127890E-1
1.955888911E1,-1.846438527E0,-3.121429384E-1,2.753393948E-1
1.956805396E1,-1.928902984E0,-4.842491746E-1,1.954711229E-1
1.957720609E1,-1.907065153E0,-6.905628443E-1,1.346918195E-1
1.958634542E1,-1.837123156E0,-8.712208867E-1,1.273616552E-1
1.959551026E1,-1.731904745E0,-9.312366247E-1,1.514901221E-1
1.960466240E1,-1.604237556E0,-1.010035992E0,1.475196183E-1
1.961380172E1,-1.466644287E0,-1.139077425E0,8.078455180E-2
1.962296656E1,-1.335464835E0,-1.152974248E0,4.123218823E-3
1.963211865E1,-1.269951463E0,-9.999569654E-1,-5.100574717E-2
1.964125802E1,-1.292552829E0,-7.206470370E-1,-1.027750522E-1
1.965042286E1,-1.361273170E0,-3.810159862E-1,-1.615691036E-1
1.965957495E1,-1.446944475E0,-1.801999472E-2,-2.008160353E-1
1.966872708E1,-1.513221383E0,2.982461751E-1,-1.973036677E-1
1.967787917E1,-1.543763757E0,5.387672782E-1,-1.672194302E-1
1.968703125E1,-1.576749444E0,7.760814428E-1,-1.528645307E-1
1.969618333E1,-1.617676258E0,1.018282413E0,-1.704263836E-1
1.970533547E1,-1.621035933E0,1.201994658E0,-2.011214644E-1
1.971448755E1,-1.603779435E0,1.352568507E0,-2.170034945E-1
1.972363964E1,-1.569419265E0,1.443584800E0,-2.229592502E-1
1.973279177E1,-1.579650998E0,1.480235577E0,-2.260134816E-1
1.974194385E1,-1.621341348E0,1.457328796E0,-2.244863659E-1
1.975109594E1,-1.702431321E0,1.423426867E0,-2.257080674E-1
1.976024807E1,-1.781230569E0,1.413042426E0,-2.365505993E-1
1.976940016E1,-1.798945189E0,1.482220888E0,-2.507528067E-1
1.977855224E1,-1.799708724E0,1.578123927E0,-2.588465214E-1
1.978770432E1,-1.801235914E0,1.670361876E0,-2.625116110E-1
1.979685646E1,-1.779550791E0,1.743205309E0,-2.741177082E-1
1.980600854E1,-1.750993609E0,1.803373814E0,-3.118375242E-1
1.981516062E1,-1.727476001E0,1.807497025E0,-3.636068404E-1
1.982431276E1,-1.661809921E0,1.718313336E0,-3.929274976E-1
1.983346484E1,-1.546512604E0,1.567128658E0,-3.822376728E-1
1.984261693E1,-1.457176089E0,1.420372605E0,-3.533751369E-1
1.985176901E1,-1.418692708E0,1.316070437E0,-3.603998721E-1
1.986092115E1,-1.417165637E0,1.316528559E0,-4.115583301E-1
1.987007323E1,-1.379903913E0,1.368297815E0,-4.602734149E-1
1.987922531E1,-1.272242069E0,1.329814434E0,-4.662291706E-1
1.988837745E1,-1.139840961E0,1.195733547E0,-4.462239146E-1
1.989752953E1,-1.034622550E0,1.076618314E0,-4.362976551E-1
1.990668161E1,-9.388722181E-1,1.046686769E0,-4.379774928E-1
1.991583370E1,-8.840487003E-1,1.063026905E0,-4.370612204E-1
1.992498583E1,-8.857285380E-1,1.034164429E0,-4.248442650E-1
1.993413792E1,-9.371923804E-1,9.967499971E-1,-4.159869850E-1
1.994327729E1,-9.733850956E-1,8.985562921E-1,-4.020902216E-1
1.995244214E1,-9.613208771E-1,6.329904795E-1,-3.724641204E-1
1.996159422E1,-9.365815520E-1,3.216110766E-1,-3.263451457E-1
1.997074630E1,-9.323056340E-1,9.330692142E-2,-2.889307439E-1
1.997989844E1,-9.393303990E-1,-1.221694518E-2,-2.961082160E-1
1.998905052E1,-9.162709117E-1,-2.260134928E-2,-3.362714052E-1
1.999818984E1,-8.374716043E-1,-6.658235192E-2,-3.686463237E-1
2.000735469E1,-7.296570539E-1,-1.319430023E-1,-3.715478480E-1
2.001650682E1,-6.449019909E-1,-1.685938388E-1,-3.678827584E-1
2.002565891E1,-6.216897964E-1,-1.414111406E-1,-3.793361485E-1
2.003481099E1,-6.265766025E-1,-6.810946763E-2,-3.982724249E-1
2.004396312E1,-6.053496599E-1,-2.336490713E-2,-3.872771561E-1
2.005310245E1,-5.218162537E-1,-9.055810422E-2,-3.213056624E-1
2.006226729E1,-4.066715539E-1,-1.899735034E-1,-2.336490750E-1
2.007141938E1,-3.315373361E-1,-2.150182426E-1,-1.800472289E-1
2.008057151E1,-2.980934680E-1,-1.510319859E-1,-1.950129867E-1
2.008972359E1,-2.767138183E-1,-2.718270384E-2,-2.542651594E-1
2.009887568E1,-2.174616307E-1,5.772506446E-2,-3.057290614E-1
2.010801505E1,-9.040539712E-2,5.604523420E-2,-3.115321100E-1
2.011717990E1,9.376505762E-2,3.069507517E-2,-2.596100867E-1
2.012633198E1,2.971771955E-1,-9.162709117E-3,-1.788255423E-1
2.013548411E1,4.543176591E-1,-1.026223376E-1,-1.097997949E-1
2.014463620E1,5.410579443E-1,-2.432699203E-1,-5.589252338E-2
2.015378828E1,5.954233408E-1,-4.266768098E-1,-3.512371797E-3
2.016294036E1,6.644490957E-1,-5.216635466E-1,6.108472496E-2
2.017209250E1,7.637118101E-1,-4.097257853E-1,1.417165697E-1
2.018124458E1,8.927532434E-1,-1.343863904E-1,2.237228155E-1
2.019039667E1,1.072495103E0,1.482831687E-1,2.950392365E-1
2.019954880E1,1.299424887E0,3.019112647E-1,3.564293683E-1
2.020870089E1,1.555369854E0,2.663294077E-1,4.063661397E-1
2.021785297E1,1.823073626E0,8.979454637E-2,4.445441067E-1
2.022700510E1,2.093526363E0,-1.097997949E-1,4.758500159E-1
2.023615719E1,2.322746754E0,-2.061609477E-1,5.270084739E-1
2.024529651E1,2.449955702E0,-2.057028115E-1,6.232169271E-1
2.025446135E1,2.506000996E0,-1.345391124E-1,7.540909648E-1
2.026361349E1,2.513636589E0,-1.310267299E-1,8.623636365E-1
2.027276557E1,2.469655514E0,-2.756448388E-1,9.042066336E-1
2.028191766E1,2.398339033E0,-5.716003180E-1,9.057337642E-1
2.029106979E1,2.382457018E0,-7.963921428E-1,9.058864713E-1
2.030022188E1,2.489202499E0,-9.517000318E-1,9.072608948E-1
2.030937396E1,2.694141865E0,-1.116017938E0,8.904625773E-1
2.031852609E1,2.918933630E0,-1.215891480E0,8.538117409E-1
2.032767818E1,3.074547052E0,-1.239103675E0,8.188407421E-1
2.033683026E1,3.109670639E0,-1.215738773E0,8.020424247E-1
2.034598234E1,3.038965225E0,-1.161678791E0,7.886037827E-1
2.035512172E1,2.936190128E0,-1.102884769E0,7.664605975E-1
2.036428656E1,2.839676142E0,-1.042716265E0,7.266027927E-1
2.037343864E1,2.753241301E0,-9.239065051E-1,6.673506498E-1
2.038259078E1,2.668028116E0,-8.133431077E-1,6.103891134E-1
2.039174286E1,2.565100431E0,-7.353073955E-1,5.719057322E-1
2.040089495E1,2.471335411E0,-6.505523324E-1,5.558710098E-1
2.041004708E1,2.399102688E0,-4.964661002E-1,5.577035546E-1
2.041919917E1,2.351609230E0,-3.649812341E-1,5.908420086E-1
2.042835125E1,2.330229521E0,-2.637332976E-1,6.284091473E-1
2.043750339E1,2.323815584E0,-1.737860441E-1,6.484143734E-1
2.044665547E1,2.316791058E0,-8.582404256E-2,6.520794630E-1
2.045580755E1,2.274489880E0,-2.809897438E-2,6.430694461E-1
2.046495964E1,2.189429283E0,-2.596100792E-2,6.204680800E-1
2.047411177E1,2.085737944E0,-5.039490014E-2,5.801522136E-1
2.048326385E1,1.989834905E0,-5.909947306E-2,5.190674663E-1
2.049240323E1,1.913937211E0,-8.429691941E-2,4.489727318E-1
2.050156807E1,1.855143070E0,-1.563768983E-1,3.845283389E-1
2.051072016E1,1.801541328E0,-2.915268540E-1,3.365768492E-1
2.051987224E1,1.740151167E0,-4.411844313E-1,2.996205688E-1
2.052902438E1,1.664711475E0,-5.253286362E-1,2.544178963E-1
2.053817646E1,1.574306130E0,-5.322006941E-1,2.086043358E-1
2.054732854E1,1.485427856E0,-5.590779781E-1,1.641651988E-1
2.055648068E1,1.406017661E0,-6.268820167E-1,1.134648770E-1
2.056563276E1,1.332410574E0,-7.024743557E-1,6.658235192E-2
2.057478484E1,1.264148355E0,-7.803573608E-1,3.680354729E-2
2.058393698E1,1.189472318E0,-8.457180262E-1,2.535016090E-2
2.059308906E1,1.115712523E0,-8.620582223E-1,2.367033064E-2
2.060224114E1,1.049588323E0,-8.296833038E-1,2.076880634E-2
2.061139323E1,9.694145918E-1,-7.551599145E-1,1.221694518E-2
2.062054536E1,8.507575393E-1,-6.407787800E-1,-7.024743594E-3
2.062968469E1,6.980457306E-1,-4.990622103E-1,-3.390202299E-2
2.063884953E1,5.347967744E-1,-3.752129376E-1,-6.139015034E-2
2.064800167E1,3.825430870E-1,-2.924431264E-1,-7.482878864E-2
2.065715375E1,2.638860047E-1,-2.582356930E-1,-7.864658535E-2
2.066630583E1,1.768402755E-1,-2.403683960E-1,-8.047912270E-2
2.067545797E1,9.895725548E-2,-2.192941606E-1,-7.925742865E-2
2.068461005E1,1.114796288E-2,-1.940967143E-1,-6.581879407E-2
2.069376214E1,-8.842013776E-2,-1.647760421E-1,-4.337015375E-2
2.070291427E1,-1.887518018E-1,-1.177408099E-1,-2.336490713E-2
2.071206635E1,-2.683146596E-1,-5.024218559E-2,-1.374406274E-3
2.072121844E1,-3.139754832E-1,7.024743594E-3,2.809897438E-2
2.073037057E1,-3.210002482E-1,1.007897966E-2,6.658235192E-2
2.073952266E1,-3.141281903E-1,-1.496575773E-2,1.052184403E-1
2.074867474E1,-3.300102353E-1,-4.214845970E-2,1.264453828E-1
2.075782688E1,-3.738385141E-1,-1.018587798E-1,1.267508119E-1
2.076697896E1,-4.233171642E-1,-2.218902707E-1,1.148392856E-1
2.077613104E1,-4.514161348E-1,-3.863608837E-1,1.075091213E-1
2.078528318E1,-4.666872919E-1,-5.268557668E-1,1.050657257E-1
2.079443526E1,-4.953971207E-1,-5.732801557E-1,1.061347127E-1
2.080358734E1,-5.613686442E-1,-5.100574493E-1,1.165191159E-1
2.081273948E1,-6.720846891E-1,-3.884988427E-1,1.328592747E-1
2.082189156E1,-8.073873520E-1,-2.832804024E-1,1.464506239E-1
2.083104364E1,-9.527690411E-1,-2.304421216E-1,1.545443535E-1
2.084019578E1,-1.082268596E0,-2.342599183E-1,1.605001241E-1
2.084934786E1,-1.182600260E0,-2.403683960E-1,1.530172378E-1
2.085849995E1,-1.268271565E0,-2.273878902E-1,1.346918195E-1
2.086765208E1,-1.348292589E0,-2.324273884E-1,1.114796251E-1
2.087680417E1,-1.428008199E0,-2.777827978E-1,8.704573661E-2
2.088595625E1,-1.485427856E0,-3.141281903E-1,4.703523964E-2
2.089510838E1,-1.342947721E0,-3.474193811E-1,-3.924693540E-2
2.090424771E1,-8.458707333E-1,-3.367295563E-1,-1.389677525E-1
2.091341255E1,-2.840439789E-2,-3.894151151E-1,-2.156290859E-1
2.092256469E1,5.477772951E-1,-8.603783846E-1,-2.386885732E-1
2.093170401E1,4.376720488E-1,-1.316681266E0,-2.037175596E-1
2.094086885E1,4.581354558E-2,-9.236010313E-1,-1.713426560E-1
2.095002094E1,-4.095730782E-1,4.634803534E-1,-3.361186981E-1
2.095916031E1,-8.797727823E-1,5.115845799E-1,-6.172611713E-1
2.096832516E1,-1.282015681E0,-5.454866290E-1,-7.861604095E-1
2.097747729E1,-1.456412554E0,-3.726168275E-1,-5.938962698E-1
2.098661661E1,-1.610651493E0,8.025006056E-1,-1.971509457E-1
2.099578146E1,-1.897138834E0,1.507265568E0,2.382304333E-2
2.100493359E1,-2.121778011E0,1.749771953E0,1.298050396E-2
2.101407292E1,-2.079324007E0,1.772067904E0,1.679830020E-3
2.102323776E1,-1.865985632E0,1.614011168E0,6.872031838E-3
2.103238990E1,-1.654327035E0,1.198329568E0,-4.993676394E-2
2.104152922E1,-1.579192877E0,6.893411279E-1,-1.553079188E-1
2.105069406E1,-1.647149682E0,2.026485801E-1,-2.415900975E-1
2.105984620E1,-1.679829955E0,-2.011214644E-1,-2.579302490E-1
2.106899828E1,-1.562394619E0,-4.894413650E-1,-1.994416267E-1
2.107815036E1,-1.427244663E0,-6.238277555E-1,-1.006370857E-1
2.108730245E1,-1.425259352E0,-6.656708121E-1,-2.015795931E-2
2.109644182E1,-1.469393134E0,-7.282826304E-1,2.916795574E-2
2.110560667E1,-1.499171853E0,-7.191199064E-1,6.612421572E-2
2.111475880E1,-1.569113851E0,-6.310052276E-1,9.376505762E-2
2.112391088E1,-1.580109119E0,-4.902049303E-1,7.879929990E-2
2.113306297E1,-1.528492570E0,-2.444916219E-1,2.947338112E-2
2.114221510E1,-1.485275149E0,-3.008422814E-2,-8.704573847E-3
2.115136719E1,-1.471683741E0,1.169772521E-1,-1.969982497E-2
2.116051927E1,-1.444806457E0,2.838912606E-1,-3.558185324E-2
2.116967135E1,-1.411973476E0,5.044071078E-1,-6.108472496E-2
2.117882349E1,-1.384638071E0,6.887302995E-1,-7.330167294E-2
2.118797557E1,-1.355775476E0,7.528692484E-1,-5.054761097E-2
2.119712766E1,-1.326454878E0,6.957550049E-1,-1.985253533E-3
2.120627979E1,-1.311947227E0,6.303943992E-1,5.421269313E-2
2.121543188E1,-1.272089362E0,5.612159371E-1,9.788827598E-2
2.122458396E1,-1.226581335E0,4.856235683E-1,1.270562261E-1
2.123373609E1,-1.220778227E0,3.904841244E-1,1.382041872E-1
2.124288818E1,-1.221541762E0,3.397837877E-1,1.204896197E-1
2.125204026E1,-1.202758312E0,3.185568452E-1,8.399149776E-2
2.126119240E1,-1.188250661E0,3.038965166E-1,4.016320780E-2
2.127034448E1,-1.185196400E0,3.290939629E-1,-1.527118147E-4
2.127949656E1,-1.164274931E0,4.182776511E-1,-2.153236605E-2
2.128864870E1,-1.120446563E0,5.561764240E-1,-2.672456764E-2
2.129780078E1,-1.078298092E0,6.749862432E-1,-2.596100792E-2
2.130695286E1,-1.051573515E0,7.185090780E-1,-4.046862945E-2
2.131610500E1,-1.043937922E0,7.169819474E-1,-8.490777016E-2
2.132525708E1,-1.037676811E0,7.149966955E-1,-1.380514801E-1
2.133440922E1,-1.030193925E0,7.324058414E-1,-1.824906170E-1
2.134356130E1,-1.012326598E0,7.377507687E-1,-2.038702667E-1
2.135271338E1,-9.607100487E-1,6.925480962E-1,-2.028012872E-1
2.136186552E1,-8.997780085E-1,5.499152541E-1,-1.858502775E-1
2.137101760E1,-8.528954983E-1,3.385621011E-1,-1.760767251E-1
2.138016969E1,-8.115105629E-1,1.855448484E-1,-1.739387512E-1
2.138932182E1,-7.811209559E-1,1.049130186E-1,-1.760767251E-1
2.139847391E1,-7.492041588E-1,4.886778072E-2,-1.771457046E-1
2.140762599E1,-7.076665759E-1,8.551862091E-3,-1.711899489E-1
2.141677812E1,-6.786513329E-1,1.985253533E-3,-1.563768983E-1
2.142593021E1,-6.784985662E-1,4.062134400E-2,-1.484358907E-1
2.143508229E1,-6.710157394E-1,1.099525094E-1,-1.600419879E-1
2.144423443E1,-6.261184216E-1,2.075353563E-1,-1.739387512E-1
2.145338651E1,-5.865660906E-1,2.643441558E-1,-1.766875684E-1
2.146253859E1,-5.766398311E-1,2.541124523E-1,-1.661504507E-1
2.147169073E1,-6.035171151E-1,2.113531530E-1,-1.583621502E-1
2.148084281E1,-6.293253899E-1,2.082989216E-1,-1.579040140E-1
2.148999490E1,-6.345176101E-1,2.414373755E-1,-1.580567211E-1
2.149914703E1,-6.210789680E-1,2.510582209E-1,-1.493521482E-1
2.150829911E1,-6.227588058E-1,2.131856978E-1,-1.291942000E-1
2.151745120E1,-6.442911625E-1,1.330119967E-1,-1.067455560E-1
2.152660333E1,-6.659762263E-1,7.406523079E-2,-1.062874198E-1
2.153575542E1,-6.864396334E-1,1.076618284E-1,-1.320957243E-1
2.154490750E1,-6.846070886E-1,2.557922900E-1,-1.693574041E-1
2.155405964E1,-6.452074051E-1,4.237752855E-1,-2.021904439E-1
2.156321172E1,-5.874823332E-1,5.286883116E-1,-2.141019702E-1
2.157236380E1,-5.210527182E-1,5.926745534E-1,-2.032594234E-1
2.158151594E1,-4.427115619E-1,6.423059106E-1,-1.716480851E-1
2.159066802E1,-3.507790267E-1,6.847597957E-1,-1.276670843E-1
2.159982010E1,-2.683146596E-1,6.856760383E-1,-8.918370306E-2
2.160897224E1,-2.099787444E-1,6.160394549E-1,-6.184828654E-2
2.161812432E1,-1.504211426E-1,5.041016936E-1,-3.512371704E-2
2.162727646E1,-8.811471611E-2,4.019374847E-1,6.261184346E-3
2.163642854E1,-3.833066672E-2,3.119902313E-1,7.330167294E-2
2.164558062E1,-2.061609551E-2,2.296785712E-1,1.424801201E-1
2.165473276E1,-3.634541109E-2,1.725643575E-1,1.901262105E-1
2.166388484E1,-7.513421029E-2,1.678302884E-1,2.081461996E-1
2.167303693E1,-1.340809762E-1,2.104368806E-1,1.991362125E-1
2.168218906E1,-2.002051920E-1,2.506000996E-1,1.681357026E-1
2.169134115E1,-2.750339806E-1,2.996205688E-1,1.241547018E-1
2.170049323E1,-3.617742956E-1,3.590254784E-1,8.444963396E-2
2.170964536E1,-4.657710493E-1,4.311054647E-1,5.238015205E-2
2.171879745E1,-5.735855699E-1,5.181511641E-1,1.985253580E-2
2.172794953E1,-6.542174220E-1,5.931326747E-1,-2.168507688E-2
2.173710167E1,-6.890357137E-1,6.310052276E-1,-6.215370819E-2
2.174625375E1,-6.691831946E-1,6.386408210E-1,-9.758284688E-2
2.175540583E1,-6.175665855E-1,6.030589342E-1,-1.294996142E-1
2.176455797E1,-5.578562617E-1,4.873034060E-1,-1.716480851E-1
2.177371005E1,-5.085303187E-1,3.034383655E-1,-2.298312783E-1
2.178286219E1,-4.778352678E-1,7.055285573E-2,-2.851129472E-1
2.179201427E1,-4.631749392E-1,-1.699682474E-1,-3.159607351E-1
2.180116635E1,-4.495835900E-1,-3.964398801E-1,-3.174878657E-1
2.181031849E1,-4.330907166E-1,-5.819846988E-1,-3.013004065E-1
2.181947057E1,-4.253024161E-1,-7.072083950E-1,-2.797680497E-1
2.182862266E1,-4.330907166E-1,-7.534800768E-1,-2.530434728E-1
2.183777479E1,-4.575245976E-1,-7.270609736E-1,-2.226538211E-1
2.184692688E1,-4.854708612E-1,-6.510104537E-1,-1.936385781E-1
2.185607896E1,-5.103628635E-1,-5.483881235E-1,-1.695101112E-1
2.186523109E1,-5.325061083E-1,-4.303418994E-1,-1.550024897E-1
2.187438318E1,-5.381564498E-1,-2.779355049E-1,-1.459924877E-1
2.188353526E1,-5.361711979E-1,-9.529217333E-2,-1.345391124E-1
2.189268740E1,-5.282301903E-1,1.127013192E-1,-1.241547018E-1
2.190183948E1,-5.233433843E-1,3.344388604E-1,-1.102579311E-1
2.191099161E1,-5.183038712E-1,5.164713860E-1,-1.079672500E-1
2.192014370E1,-5.042544007E-1,6.009209752E-1,-1.165191159E-1
2.192929578E1,-4.743228853E-1,5.671716928E-1,-1.265980899E-1
2.193844792E1,-4.193466306E-1,4.388937652E-1,-1.389677525E-1
2.194760000E1,-3.371876776E-1,2.858765125E-1,-1.504211426E-1
2.195675208E1,-2.347180545E-1,1.823379099E-1,-1.368297935E-1
2.196590422E1,-1.192679256E-1,1.472141892E-1,-8.842013776E-2
2.197505630E1,-1.313321572E-2,1.620272398E-1,-3.268032894E-2
2.198420844E1,6.169557199E-2,1.919587553E-1,5.039489828E-3
2.199336052E1,9.345962852E-2,2.154763639E-1,2.367033064E-2
2.200251260E1,9.254335612E-2,2.522799075E-1,2.901524492E-2
2.201166474E1,7.467607409E-2,3.040492237E-1,3.497100621E-2
2.202081682E1,4.902049154E-2,3.504736125E-1,4.459185153E-2
2.202996891E1,1.969982497E-2,3.854446113E-1,5.100574717E-2
2.203912104E1,-9.315420873E-3,4.016320705E-1,5.085303262E-2
2.204827312E1,-3.390202299E-2,3.883461356E-1,3.359659761E-2
2.205742526E1,-5.909947306E-2,3.254288733E-1,4.734066315E-3
2.206657734E1,-7.895200700E-2,2.246390730E-1,-1.664558798E-2
2.207572943E1,-9.300149232E-2,1.252236813E-1,-2.458660305E-2
2.208488156E1,-9.956810623E-2,4.504998401E-2,-2.336490713E-2
2.209403364E1,-1.001789495E-1,-2.412846684E-2,-2.031067200E-2
2.210318573E1,-9.926267713E-2,-6.688777357E-2,-1.542389300E-2
2.211233786E1,-9.605573118E-2,-8.017370105E-2,-1.420219894E-2
2.212148995E1,-8.383878320E-2,-6.627693027E-2,-1.771457121E-2
2.213064208E1,-6.215370819E-2,-1.572931744E-2,-1.832541823E-2
2.213979417E1,-4.001049697E-2,5.787777901E-2,-1.756185852E-2
2.214894625E1,-3.252761811E-2,1.181989461E-1,-1.084253844E-2
2.215809833E1,-3.955236077E-2,1.568350345E-1,-3.512371797E-3
2.216725047E1,-4.657710344E-2,1.736333370E-1,6.108472589E-4
2.217640255E1,-5.283828825E-2,1.916533262E-1,-2.443389036E-3
2.218555469E1,-5.803048983E-2,2.073826492E-1,-4.275931045E-3
2.219470677E1,-5.497625470E-2,2.145601064E-1,-3.054236295E-3
2.220385885E1,-3.512371704E-2,2.055501044E-1,1.374406274E-3
2.221301099E1,-7.177455351E-3,1.736333370E-1,4.581354558E-3
2.222216307E1,1.786728203E-2,1.314848661E-1,2.901524538E-3
2.223131521E1,3.420744836E-2,1.003316641E-1,6.108472589E-4
2.224046729E1,3.787253052E-2,9.849911928E-2,4.428642802E-3
2.224961938E1,3.710897267E-2,1.165191159E-1,1.099525020E-2
2.225877151E1,3.023693897E-2,1.304158866E-1,1.527118124E-2
2.226792359E1,1.771457121E-2,1.339282542E-1,2.061609551E-2
2.227707573E1,3.054236295E-3,1.291942000E-1,2.244863659E-2
2.228622781E1,-1.359135192E-2,1.218640283E-1,2.046338283E-2
2.229537990E1,-3.008422814E-2,1.075091213E-1,1.603474095E-2
2.230453203E1,-4.092676565E-2,8.154810965E-2,1.236965694E-2
2.231368411E1,-4.001049697E-2,5.192201585E-2,1.236965694E-2
2.232283620E1,-3.420744836E-2,2.550287358E-2,9.468132630E-3
2.233198833E1,-2.657185495E-2,3.206948051E-3,5.192201585E-3
2.234114042E1,-1.527118124E-2,-2.214321308E-2,-1.527118147E-4
2.235029255E1,-4.734066315E-3,-3.726168349E-2,-5.039489828E-3
2.235944464E1,-4.581354442E-4,-2.764083818E-2,-6.108472589E-3
2.236859672E1,-6.108472589E-4,-3.512371797E-3,-1.374406274E-3
2.237774885E1,-5.192201585E-3,2.733541466E-2,4.123218823E-3
2.238690094E1,-4.886778072E-3,5.024218559E-2,7.788302377E-3
2.239605302E1,1.068982761E-3,6.887302548E-2,8.399149403E-3
2.240520516E1,9.773556143E-3,6.704048812E-2,9.009997360E-3
2.241435724E1,1.725643501E-2,5.986303091E-2,1.221694518E-2
2.242350938E1,2.336490713E-2,5.390727147E-2,1.649287529E-2
2.243266146E1,2.412846684E-2,4.306473210E-2,1.832541823E-2
2.244181354E1,2.596100792E-2,3.817795217E-2,1.771457121E-2
2.245096568E1,3.405473381E-2,3.634541109E-2,1.298050396E-2
2.246011776E1,4.459185153E-2,3.038965166E-2,6.872031838E-3
2.246926990E1,4.779879749E-2,2.672456764E-2,5.650337320E-3
2.247842198E1,3.665083647E-2,3.390202299E-2,6.872031838E-3
2.248757406E1,1.924168877E-2,4.046862945E-2,3.665083554E-3
2.249672620E1,3.817795310E-3,3.878879920E-2,1.679830020E-3
2.250587828E1,-4.581354558E-3,2.672456764E-2,2.290677279E-3
2.251503036E1,-5.039489828E-3,-1.068982761E-3,1.679830020E-3
2.252418250E1,2.748812549E-3,-3.420744836E-2,-1.221694518E-3
2.253333458E1,8.399149403E-3,-5.833591148E-2,-3.665083554E-3
2.254248672E1,1.221694518E-2,-6.917845458E-2,-3.054236295E-3
2.255163880E1,1.527118124E-2,-6.795676053E-2,1.832541777E-3
2.256079089E1,2.214321308E-2,-7.269082218E-2,8.093725890E-3
2.256994302E1,4.016320780E-2,-8.765657991E-2,1.298050396E-2
2.257909510E1,6.245913357E-2,-1.093416587E-1,1.328592747E-2
2.258824724E1,8.475505561E-2,-1.214058921E-1,1.527118124E-2
2.259739932E1,9.697200358E-2,-1.152974218E-1,1.404948719E-2
2.260655141E1,9.315420687E-2,-9.483403713E-2,1.343864016E-2
2.261570354E1,7.574506104E-2,-7.192726433E-2,1.267508045E-2
2.262485563E1,5.833591148E-2,-6.001574174E-2,8.857285604E-3
2.263400771E1,4.795150831E-2,-6.490252167E-2,6.413896102E-3
2.264315984E1,4.566083103E-2,-7.803573459E-2,2.137965523E-3
2.265231193E1,5.238015205E-2,-8.292251825E-2,3.359660041E-3
2.266146406E1,6.154286116E-2,-7.925742865E-2,1.145338640E-2
2.267061614E1,7.391251624E-2,-7.803573459E-2,2.000524849E-2
2.267976823E1,8.521319181E-2,-9.422318637E-2,2.260134928E-2
2.268892036E1,8.857285231E-2,-1.243074164E-1,1.710372418E-2
2.269807245E1,8.490777016E-2,-1.467560530E-1,1.160609815E-2
2.270722458E1,8.078455180E-2,-1.516428292E-1,7.330167107E-3
2.271637667E1,8.063183725E-2,-1.437018216E-1,4.275931045E-3
2.272552875E1,7.864658535E-2,-1.275143623E-1,6.108472589E-4
2.273468089E1,7.360709459E-2,-1.082726792E-1,-7.482878864E-3
2.274383297E1,6.062658876E-2,-8.658760041E-2,-1.374406368E-2
2.275298510E1,4.077405483E-2,-6.856760383E-2,-2.122694254E-2
2.276213719E1,1.786728203E-2,-5.543438718E-2,-3.298575059E-2
2.277128927E1,-4.275931045E-3,-4.947862774E-2,-4.474456236E-2
2.278044141E1,-2.351761982E-2,-3.497100621E-2,-5.161659420E-2
2.278959349E1,-3.359659761E-2,-2.550287358E-2,-5.039490014E-2
2.279874563E1,-4.138490185E-2,-3.619270027E-2,-5.405998230E-2
2.280789771E1,-4.428642616E-2,-5.741964281E-2,-5.894676223E-2
2.281704979E1,-3.634541109E-2,-5.314370990E-2,-5.650337040E-2
2.282620193E1,-2.061609551E-2,-3.206948191E-2,-5.146388337E-2
2.283535401E1,-1.527118147E-4,-4.092676565E-2,-4.718795046E-2
2.284450614E1,1.954711229E-2,-4.764608666E-2,-3.603998944E-2
2.285365823E1,2.687728032E-2,-3.420744836E-2,-2.000524849E-2
2.286281031E1,2.183778957E-2,-3.176405653E-2,-9.009997360E-3
2.287196245E1,1.695101149E-2,-4.321744293E-2,-3.665083554E-3
2.288111453E1,1.267508045E-2,-4.138490185E-2,7.941014133E-3
2.289026667E1,2.443389036E-3,-1.847812906E-2,1.634016447E-2
2.289941875E1,-2.596100792E-3,7.635590737E-4,1.878355257E-2
2.290857083E1,1.282779220E-2,3.817795310E-3,1.832541823E-2
2.291772297E1,3.374931216E-2,-1.527118147E-3,1.359135192E-2
2.292687505E1,4.795150831E-2,-3.054236295E-4,7.635590620E-3
2.293602719E1,5.787777901E-2,3.817795310E-3,1.527118147E-3
2.294517927E1,6.581879407E-2,1.053711493E-2,-2.137965523E-3
2.295433135E1,7.009471953E-2,1.832541823E-2,-1.985253533E-3
2.296348349E1,6.872031838E-2,2.733541466E-2,1.527118147E-3
2.297263557E1,5.940489471E-2,3.344388679E-2,4.581354558E-3
2.298178771E1,5.008947477E-2,3.390202299E-2,4.428642802E-3
2.299093979E1,4.214845970E-2,3.390202299E-2,3.206948051E-3
2.300009188E1,3.283303976E-2,3.634541109E-2,1.374406274E-3
2.300924401E1,2.229592577E-2,4.535540938E-2,-1.221694518E-3
2.301839609E1,1.542389300E-2,5.436540768E-2,-4.886778072E-3
2.302754823E1,1.175880991E-2,6.215370819E-2,-3.665083554E-3
2.303670031E1,7.941014133E-3,6.093201414E-2,-3.817795310E-3
2.304585240E1,5.039489828E-3,5.314370990E-2,-4.428642802E-3
2.305500453E1,1.985253533E-3,4.046862945E-2,-8.093725890E-3
2.306415661E1,-9.162708884E-4,3.084778599E-2,-8.704573847E-3
2.307330875E1,-2.748812549E-3,2.122694254E-2,-1.114796288E-2
2.308246083E1,-2.596100792E-3,1.511846948E-2,-1.236965694E-2
2.309161292E1,-7.635590737E-4,1.206423342E-2,-1.359135192E-2
2.310076505E1,2.901524538E-3,1.389677543E-2,-1.420219894E-2
2.310991714E1,1.282779220E-2,1.328592747E-2,-1.160609815E-2
2.311906927E1,2.076880634E-2,9.162709117E-3,-7.330167107E-3
2.312822135E1,2.275406010E-2,3.206948051E-3,-2.443389036E-3
2.313737344E1,2.153236605E-2,1.985253533E-3,-1.832541777E-3
2.314652557E1,2.199050039E-2,8.551862091E-3,-1.221694518E-3
2.315567766E1,2.382304333E-2,1.466033421E-2,-1.221694518E-3
2.316482979E1,2.870982140E-2,2.061609551E-2,-3.512371797E-3
2.317398188E1,2.932066843E-2,2.855710872E-2,-5.955760833E-3
2.318313401E1,2.733541466E-2,3.145863488E-2,-6.566607859E-3
2.319228609E1,2.000524849E-2,3.023693897E-2,-9.773556143E-3
2.320143818E1,1.389677543E-2,3.145863488E-2,-9.162709117E-3
2.321059031E1,7.635590620E-3,2.718270384E-2,-8.551862091E-3
2.321974240E1,5.344913341E-3,2.000524849E-2,-7.941014133E-3
2.322889453E1,2.290677279E-3,9.162709117E-3,-8.551862091E-3
2.323804661E1,1.832541777E-3,2.443389036E-3,-1.114796288E-2
2.324719870E1,2.443389036E-3,6.108472589E-4,-1.343864016E-2
2.325635083E1,7.330167107E-3,-1.679830020E-3,-1.466033421E-2
2.326550292E1,1.282779220E-2,-1.679830020E-3,-1.221694518E-2
2.327465505E1,1.710372418E-2,2.596100792E-3,-8.551862091E-3
2.328380714E1,1.710372418E-2,1.374406274E-3,-5.497625098E-3
2.329295922E1,1.298050396E-2,-7.635590620E-3,-4.275931045E-3
2.330211135E1,1.298050396E-2,-1.618745178E-2,-3.665083554E-3
2.331126344E1,1.679829881E-2,-2.641914412E-2,-4.886778072E-3
2.332041557E1,2.046338283E-2,-2.458660305E-2,-6.719320081E-3
2.332956766E1,2.596100792E-2,-1.007897966E-2,-5.344913341E-3
2.333871979E1,2.947338112E-2,7.482878864E-3,-4.734066315E-3
2.334787188E1,2.504473738E-2,1.878355257E-2,-4.886778072E-3
2.335702396E1,1.511846948E-2,2.244863659E-2,-7.330167107E-3
2.336617609E1,5.344913341E-3,2.061609551E-2,-1.160609815E-2
2.337532818E1,-1.374406274E-3,1.695101149E-2,-1.786728203E-2
2.338448031E1,2.290677279E-3,1.389677543E-2,-1.725643501E-2
2.339363240E1,1.038440317E-2,1.511846948E-2,-1.466033421E-2
2.340278448E1,1.588202827E-2,1.389677543E-2,-1.038440317E-2
2.341193661E1,1.893626526E-2,1.343864016E-2,-8.551862091E-3
2.342108870E1,1.832541823E-2,7.941014133E-3,-7.941014133E-3
2.343024083E1,2.031067200E-2,-4.123218823E-3,-9.162709117E-3
2.343939292E1,2.596100792E-2,-1.664558798E-2,-6.566607859E-3
2.344854505E1,3.023693897E-2,-1.969982497E-2,-4.123218823E-3
2.345769714E1,2.840439789E-2,-1.725643501E-2,-4.123218823E-3
2.346684922E1,2.657185495E-2,-1.068982668E-2,-2.901524538E-3
2.347600135E1,2.886253223E-2,-3.512371797E-3,-1.679830020E-3
2.348515344E1,2.702999115E-2,-7.024743594E-3,-3.512371797E-3
2.349430557E1,1.481304597E-2,-1.191152167E-2,-6.719320081E-3
2.350345766E1,3.206948051E-3,-1.924168877E-2,-1.038440317E-2
2.351260979E1,-2.901524538E-3,-2.107422985E-2,-1.114796288E-2
2.352176188E1,-7.330167107E-3,-1.252236869E-2,-9.926267900E-3
2.353091396E1,-9.926267900E-3,-2.901524538E-3,-1.359135192E-2
2.354006609E1,-1.114796288E-2,3.665083554E-3,-1.420219894E-2
2.354921818E1,-5.497625098E-3,-4.123218823E-3,-1.542389300E-2
2.355837031E1,5.192201585E-3,-2.031067200E-2,-1.404948719E-2
2.356752240E1,1.389677543E-2,-4.077405483E-2,-1.282779220E-2