"Time (s)","Gyroscope x (rad/s)","Gyroscope y (rad/s)","Gyroscope z (rad/s)"
7.808764925E0,1.798945218E-1,-1.287055135E0,2.409792393E-1
7.817917790E0,3.316900730E-1,-9.523108602E-1,2.376195788E-1
7.827057894E0,4.534013867E-1,-4.822639227E-1,2.136438340E-1
7.836223519E0,5.416688323E-1,5.192201585E-3,1.540862173E-1
7.845376383E0,6.009209752E-1,4.683671296E-1,7.482878864E-2
7.854529248E0,6.365028620E-1,8.605310917E-1,9.162708884E-4
7.863682113E0,6.368082762E-1,1.136786699E0,-6.093201414E-2
7.872834977E0,5.952706337E-1,1.251626015E0,-1.181989461E-1
7.881975081E0,5.082249045E-1,1.153126955E0,-1.650814712E-1
7.891140706E0,3.802524209E-1,8.641961813E-1,-1.945548505E-1
7.900293571E0,2.206685692E-1,4.480564594E-1,-2.020377368E-1
7.909433675E0,4.978405312E-2,3.268032894E-2,-1.876828223E-1
7.918599300E0,-1.120904684E-1,-2.779355049E-1,-1.653869003E-1
7.927752165E0,-2.353289127E-1,-4.263713956E-1,-1.521009654E-1
7.936905029E0,-3.087832928E-1,-4.396573007E-1,-1.262926757E-1
7.946057894E0,-3.280249834E-1,-3.779617548E-1,-7.895200700E-2
7.955210758E0,-3.042019308E-1,-2.970244884E-1,-2.443389036E-2
7.964363623E0,-2.573194206E-1,-2.418955117E-1,1.924168877E-2
7.973516488E0,-2.023431510E-1,-2.102841735E-1,3.787253052E-2
7.982669352E0,-1.456870735E-1,-1.982199401E-1,3.771981969E-2
7.991822217E0,-8.032641560E-2,-1.974563748E-1,2.886253223E-2
8.000975133E0,-1.114796288E-2,-2.087570578E-1,2.519745007E-2
8.010127998E0,5.070032179E-2,-2.250972092E-1,1.954711229E-2
8.019280863E0,1.049130186E-1,-2.298312783E-1,5.803049076E-3
8.028433727E0,1.491994411E-1,-2.110477239E-1,-6.108472589E-3
8.037586592E0,1.827960461E-1,-1.664558798E-1,-8.246437646E-3
8.046739456E0,1.988307834E-1,-1.175880954E-1,-5.192201585E-3
8.055892321E0,1.947075576E-1,-6.398624927E-2,-9.162708884E-4
8.065045185E0,1.780619770E-1,8.246437646E-3,2.596100792E-3
8.074198050E0,1.618745178E-1,9.743013978E-2,5.344913341E-3
8.083350915E0,1.511846930E-1,1.806580722E-1,1.068982668E-2
8.092503779E0,1.438545287E-1,2.444916219E-1,1.496575773E-2
8.101656696E0,1.305686086E-1,2.806843221E-1,1.847812906E-2
8.110809508E0,1.058292910E-1,2.909159958E-1,1.771457121E-2
8.119962373E0,7.574506104E-2,2.805316150E-1,7.788302377E-3
8.129115238E0,5.024218559E-2,2.425063550E-1,-6.566607859E-3
8.138268102E0,3.115320951E-2,1.785201132E-1,-1.878355257E-2
8.147420967E0,1.511846948E-2,1.157555580E-1,-2.672456764E-2
8.156573831E0,-1.328592747E-2,6.505523622E-2,-3.359659761E-2
8.165726696E0,-4.077405483E-2,2.458660305E-2,-4.306473210E-2
8.174879560E0,-5.008947477E-2,-2.061609551E-2,-5.650337040E-2
8.184032477E0,-4.672981426E-2,-5.070032179E-2,-6.505523622E-2
8.193185342E0,-3.359659761E-2,-5.986303091E-2,-7.162184268E-2
8.202338206E0,-1.954711229E-2,-4.718795046E-2,-6.719319522E-2
8.211491071E0,-1.114796288E-2,-3.206948191E-2,-5.864133686E-2
8.220643935E0,-5.650337320E-3,-2.657185495E-2,-5.131116882E-2
8.229796800E0,6.108472589E-4,-5.176930502E-2,-4.138490185E-2
8.238949665E0,7.177455351E-3,-9.575030953E-2,-2.916795574E-2
8.248102529E0,1.099525020E-2,-1.233911440E-1,-1.634016447E-2
8.257255394E0,8.551862091E-3,-1.240019947E-1,-6.566607859E-3
8.266408258E0,3.359660041E-3,-1.082726792E-1,7.635590737E-4
8.275561123E0,3.817795310E-3,-8.964183182E-2,5.650337320E-3
8.284713988E0,1.298050396E-2,-7.757759839E-2,9.315420873E-3
8.293866852E0,2.596100792E-2,-7.391251624E-2,9.468132630E-3
8.303019717E0,3.939964995E-2,-7.024743408E-2,6.413896102E-3
8.312172581E0,5.115845799E-2,-6.123743951E-2,4.581354442E-4
8.321325446E0,6.642963737E-2,-4.856235534E-2,-6.108472589E-3
8.330478310E0,7.803573459E-2,-3.710897267E-2,-1.343864016E-2
8.339631175E0,8.108997345E-2,-2.382304333E-2,-2.382304333E-2
8.348784040E0,7.666133344E-2,-1.068982668E-2,-3.359659761E-2
8.357936904E0,7.238540053E-2,-1.679830020E-3,-3.787253052E-2
8.367089769E0,7.177454978E-2,-2.901524538E-3,-3.787253052E-2
8.376242633E0,7.116370648E-2,-1.068982668E-2,-3.298575059E-2
8.385395498E0,6.505523622E-2,-2.626643144E-2,-2.580829710E-2
8.394548363E0,5.909947306E-2,-4.382828996E-2,-1.908897609E-2
8.403701227E0,5.283828825E-2,-4.978405312E-2,-1.481304597E-2
8.412854144E0,4.856235534E-2,-4.504998401E-2,-8.704573847E-3
8.422007008E0,4.107947648E-2,-3.894151375E-2,-4.581354558E-3
8.431159873E0,3.237490356E-2,-2.748812735E-2,-3.359660041E-3
8.440312738E0,2.489202656E-2,-1.664558798E-2,-7.024743594E-3
8.449465602E0,1.557660475E-2,-8.246437646E-3,-1.145338640E-2
8.458618467E0,8.093725890E-3,-5.344913341E-3,-1.511846948E-2
8.467771331E0,1.374406274E-3,-5.955760833E-3,-1.893626526E-2
8.476924196E0,4.581354558E-3,-9.009997360E-3,-2.183778957E-2
8.486077060E0,1.191152167E-2,-1.374406368E-2,-2.122694254E-2
8.495229925E0,1.756185852E-2,-2.458660305E-2,-2.122694254E-2
8.504382790E0,2.199050039E-2,-4.382828996E-2,-2.428117767E-2
8.513535654E0,2.657185495E-2,-5.833591148E-2,-2.718270384E-2
8.522688519E0,3.145863488E-2,-6.200099736E-2,-2.901524492E-2
8.531841383E0,3.588727489E-2,-6.077930331E-2,-3.023693897E-2
8.540994300E0,3.405473381E-2,-6.139015034E-2,-2.901524492E-2
8.550147113E0,2.351761982E-2,-7.040014863E-2,-2.840439789E-2
8.559299977E0,5.803049076E-3,-8.246438205E-2,-2.977880463E-2
8.568452842E0,-4.581354558E-3,-9.162709117E-2,-2.977880463E-2
8.577605706E0,-4.581354558E-3,-8.857285231E-2,-2.504473738E-2
8.586758571E0,3.054236295E-4,-8.490777016E-2,-2.000524849E-2
8.595911488E0,6.413896102E-3,-8.307522535E-2,-1.511846948E-2
8.605064300E0,1.496575773E-2,-8.185353130E-2,-1.023169141E-2
8.614217165E0,2.107422985E-2,-8.185353130E-2,-9.468132630E-3
8.623370029E0,2.550287358E-2,-7.941014320E-2,-9.468132630E-3
8.632522894E0,2.794626169E-2,-7.757759839E-2,-1.130067464E-2
8.641675758E0,2.794626169E-2,-7.574506104E-2,-1.252236869E-2
8.650828675E0,2.962609194E-2,-7.146912813E-2,-1.313321572E-2
8.659981488E0,3.329117596E-2,-6.123743951E-2,-7.635590620E-3
8.669134404E0,3.878879920E-2,-5.222744122E-2,-3.970507067E-3
8.678287269E0,4.107947648E-2,-4.734066129E-2,-1.527118147E-3
8.687440133E0,4.046862945E-2,-4.672981426E-2,-2.748812549E-3
8.696592998E0,3.985778242E-2,-4.688252881E-2,-5.803049076E-3
8.705745863E0,3.985778242E-2,-4.504998401E-2,-8.246437646E-3
8.714898727E0,3.436015919E-2,-4.504998401E-2,-8.857285604E-3
8.724051592E0,1.893626526E-2,-4.688252881E-2,-1.023169141E-2
8.733204456E0,4.123218823E-3,-4.627167806E-2,-1.267508045E-2
8.742357321E0,-9.468132630E-3,-3.848337755E-2,-1.343864016E-2
8.751510185E0,-1.878355257E-2,-2.275406010E-2,-1.404948719E-2
8.760663050E0,-2.336490713E-2,-4.581354442E-4,-1.481304597E-2
8.769815915E0,-2.168507688E-2,1.572931744E-2,-1.175880991E-2
8.778968779E0,-1.420219894E-2,1.817270555E-2,-8.704573847E-3
8.788121644E0,-6.261184346E-3,1.343864016E-2,-7.330167107E-3
8.797274560E0,1.221694518E-3,8.551862091E-3,-6.108472589E-3
8.806427373E0,9.162709117E-3,7.330167107E-3,-4.123218823E-3
8.815580238E0,8.551862091E-3,1.160609815E-2,-2.901524538E-3
8.824733102E0,3.054236295E-3,1.343864016E-2,-2.443389036E-3
8.833885967E0,-3.817795310E-3,1.695101149E-2,-4.275931045E-3
8.843038831E0,-6.413896102E-3,2.672456764E-2,-4.275931045E-3
8.852191696E0,-4.581354558E-3,3.634541109E-2,-3.665083554E-3
8.861344560E0,1.527118147E-3,4.596625641E-2,-2.443389036E-3
8.870497425E0,1.007897966E-2,5.192201585E-2,0.000000000E0
8.879650290E0,1.435491070E-2,5.803048983E-2,3.206948051E-3
8.888803154E0,1.175880991E-2,5.864133686E-2,6.719320081E-3
8.897956019E0,1.282779220E-2,6.826218218E-2,9.926267900E-3
8.907108883E0,6.551336497E-2,1.768402755E-1,1.145338640E-2
8.916261748E0,6.169557199E-2,1.201841980E-1,7.788302377E-3
8.925414665E0,6.108472589E-3,9.315420873E-3,7.635590737E-4
8.934567477E0,-1.634016447E-2,-2.886253223E-2,2.443389036E-3
8.943720394E0,-9.773556143E-3,-1.908897609E-2,6.108472589E-3
8.952873258E0,6.108472589E-3,3.054236295E-4,1.542389300E-2
8.962026123E0,2.260134928E-2,1.114796288E-2,2.214321308E-2
8.971178988E0,3.420744836E-2,3.038965166E-2,2.229592577E-2
8.980331852E0,4.077405483E-2,5.344913527E-2,2.046338283E-2
8.989484717E0,3.313846514E-2,7.024743408E-2,1.908897609E-2
8.998637581E0,1.832541823E-2,7.925742865E-2,1.908897609E-2
9.007790446E0,6.719320081E-3,7.788302749E-2,1.221694518E-2
9.016943310E0,5.039489828E-3,4.963133857E-2,9.773556143E-3
9.026096175E0,9.773556143E-3,1.282779220E-2,5.650337320E-3
9.035249040E0,1.420219894E-2,-1.191152167E-2,2.596100792E-3
9.044401904E0,1.496575773E-2,-1.725643501E-2,1.985253533E-3
9.053554769E0,1.191152167E-2,-1.374406368E-2,1.985253533E-3
9.062707633E0,7.482878864E-3,-1.007897966E-2,1.374406274E-3
9.071860498E0,7.482878864E-3,-3.512371797E-3,1.527118147E-4
9.081013363E0,7.330167107E-3,9.162709117E-3,-6.108472589E-4
9.090166227E0,6.566607859E-3,2.061609551E-2,2.443389036E-3
9.099319092E0,7.788302377E-3,2.305948362E-2,4.275931045E-3
9.108471956E0,7.177455351E-3,2.061609551E-2,4.886778072E-3
9.117624821E0,6.719320081E-3,1.343864016E-2,6.108472589E-3
9.126777685E0,3.054236295E-3,3.206948051E-3,4.886778072E-3
9.135930550E0,-3.054236295E-3,-2.290677279E-3,5.497625098E-3
9.145083415E0,-7.941014133E-3,-1.068982761E-3,4.275931045E-3
9.154236279E0,-6.108472589E-3,1.374406274E-3,5.497625098E-3
9.163389144E0,-7.482878864E-3,8.551862091E-3,7.941014133E-3
9.172542060E0,-6.872031838E-3,1.527118124E-2,1.038440317E-2
9.181694873E0,-7.635590737E-4,1.893626526E-2,1.221694518E-2
9.190847738E0,5.344913341E-3,2.183778957E-2,1.404948719E-2
9.200000654E0,7.177455351E-3,2.015795931E-2,1.282779220E-2
9.209153467E0,8.551862091E-3,1.527118124E-2,9.773556143E-3
9.218306331E0,6.719320081E-3,1.343864016E-2,1.038440317E-2
9.227459248E0,-1.374406274E-3,1.160609815E-2,1.038440317E-2
9.236612113E0,-5.039489828E-3,7.941014133E-3,9.773556143E-3
9.245764925E0,-4.428642802E-3,5.650337320E-3,8.551862091E-3
9.254917790E0,-1.221694518E-3,1.985253533E-3,7.941014133E-3
9.264070706E0,3.665083554E-3,-3.359660041E-3,1.038440317E-2
9.273223519E0,6.108472589E-3,-1.679830020E-3,1.404948719E-2
9.282376435E0,1.053711493E-2,-1.068982761E-3,1.542389300E-2
9.291529300E0,1.175880991E-2,-5.803049076E-3,1.664558798E-2
9.300682165E0,1.175880991E-2,-1.130067464E-2,1.664558798E-2
9.309835029E0,9.926267900E-3,-7.635590620E-3,1.603474095E-2
9.318987894E0,4.275931045E-3,-3.359660041E-3,1.343864016E-2
9.328140758E0,-4.428642802E-3,3.206948051E-3,1.038440317E-2
9.337293623E0,-6.872031838E-3,6.261184346E-3,8.551862091E-3
9.346446488E0,-7.482878864E-3,9.773556143E-3,8.551862091E-3
9.355599352E0,-9.468132630E-3,1.710372418E-2,1.038440317E-2
9.364752217E0,-1.007897966E-2,2.672456764E-2,9.162709117E-3
9.373905081E0,-1.007897966E-2,2.962609194E-2,7.330167107E-3
9.383057946E0,-9.468132630E-3,2.061609551E-2,4.275931045E-3
9.392210810E0,-6.261184346E-3,7.330167107E-3,3.054236295E-3
9.401363675E0,1.221694518E-3,-2.748812549E-3,6.719320081E-3
9.410516540E0,7.482878864E-3,-1.007897966E-2,1.236965694E-2
9.419669404E0,1.359135192E-2,-1.359135192E-2,1.786728203E-2
9.428822269E0,1.740914769E-2,-1.236965694E-2,1.847812906E-2
9.437975133E0,2.107422985E-2,-1.298050396E-2,1.969982497E-2
9.447127998E0,2.657185495E-2,-1.542389300E-2,2.275406010E-2
9.456280863E0,3.344388679E-2,-2.137965336E-2,2.412846684E-2
9.465433727E0,3.710897267E-2,-2.977880463E-2,2.473931387E-2
9.474586592E0,3.970507160E-2,-3.222219273E-2,2.535016090E-2
9.483739508E0,3.787253052E-2,-3.405473381E-2,2.473931387E-2
9.492892321E0,3.420744836E-2,-3.771981969E-2,2.657185495E-2
9.502045185E0,3.115320951E-2,-4.428642616E-2,2.657185495E-2
9.511198050E0,3.115320951E-2,-5.207473040E-2,2.779355086E-2
9.520350915E0,2.626643144E-2,-6.001574174E-2,2.779355086E-2
9.529503779E0,2.275406010E-2,-6.658235192E-2,2.718270384E-2
9.538656644E0,1.404948719E-2,-6.719319522E-2,2.397575416E-2
9.547809508E0,4.275931045E-3,-7.085828483E-2,2.458660305E-2
9.556962373E0,-8.093725890E-3,-6.902574003E-2,2.382304333E-2
9.566115238E0,-2.168507688E-2,-6.734590977E-2,2.321219631E-2
9.575268102E0,-3.405473381E-2,-5.757235363E-2,2.305948362E-2
9.584420967E0,-4.107947648E-2,-3.833066672E-2,1.924168877E-2
9.593573831E0,-4.245388508E-2,-1.664558798E-2,1.679829881E-2
9.602726696E0,-4.016320780E-2,2.596100792E-3,1.313321572E-2
9.611879560E0,-3.603998944E-2,2.428117767E-2,1.007897966E-2
9.621032425E0,-2.626643144E-2,4.291202128E-2,1.206423342E-2
9.630185342E0,-1.221694518E-2,5.803048983E-2,1.328592747E-2
9.639338154E0,1.832541777E-3,6.887302548E-2,1.527118124E-2
9.648491019E0,1.343864016E-2,7.559234649E-2,1.893626526E-2
9.657643935E0,1.908897609E-2,7.498150319E-2,2.031067200E-2
9.666796748E0,1.649287529E-2,7.375980914E-2,2.092151903E-2
9.675949665E0,1.282779220E-2,7.253811508E-2,2.199050039E-2
9.685102477E0,9.773556143E-3,7.375980914E-2,2.382304333E-2
9.694255394E0,6.566607859E-3,7.864658535E-2,2.687728032E-2
9.703408206E0,1.679830020E-3,7.864658535E-2,2.993151546E-2
9.712561071E0,-1.527118147E-4,7.192726433E-2,3.054236248E-2
9.721713988E0,-2.443389036E-3,6.169557199E-2,3.054236248E-2
9.730866800E0,-5.497625098E-3,5.573981255E-2,2.932066843E-2
9.740019717E0,-1.404948719E-2,5.207473040E-2,2.672456764E-2
9.749172529E0,-1.527118124E-2,4.718795046E-2,2.428117767E-2
9.758325394E0,-8.399149403E-3,4.062134400E-2,2.565558441E-2
9.767478258E0,-4.581354442E-4,3.573456407E-2,2.748812735E-2
9.776631123E0,4.581354558E-3,3.756710514E-2,2.748812735E-2
9.785784040E0,7.024743594E-3,4.123219103E-2,2.748812735E-2
9.794936904E0,6.872031838E-3,4.367557913E-2,2.626643144E-2
9.804089769E0,6.872031838E-3,4.611896724E-2,2.565558441E-2
9.813242633E0,6.872031838E-3,4.779879749E-2,2.382304333E-2
9.822395498E0,2.596100792E-3,4.840964451E-2,2.382304333E-2
9.831548363E0,2.596100792E-3,4.489727318E-2,2.321219631E-2
9.840701227E0,2.748812549E-3,3.466558084E-2,2.382304333E-2
9.849854092E0,5.955760833E-3,1.954711229E-2,2.626643144E-2
9.859006956E0,8.399149403E-3,5.192201585E-3,2.947338112E-2
9.868159821E0,7.941014133E-3,-2.748812549E-3,2.993151546E-2
9.877312685E0,5.497625098E-3,-4.581354558E-3,3.237490356E-2
9.886465550E0,-0.000000000E0,-5.192201585E-3,3.237490356E-2
9.895618415E0,-1.832541777E-3,-7.024743594E-3,3.237490356E-2
9.904771279E0,-2.443389036E-3,-9.926267900E-3,2.993151546E-2
9.913924144E0,1.221694518E-3,-1.175880991E-2,2.993151546E-2
9.923077008E0,5.650337320E-3,-1.298050396E-2,2.870982140E-2
9.932229873E0,1.175880991E-2,-1.603474095E-2,2.825168520E-2
9.941382738E0,1.908897609E-2,-1.481304597E-2,2.825168520E-2
9.950535602E0,2.779355086E-2,-1.542389300E-2,2.901524492E-2
9.959688467E0,3.268032894E-2,-1.710372418E-2,3.084778599E-2
9.968841331E0,3.527642787E-2,-2.137965336E-2,3.329117596E-2
9.977994196E0,3.588727489E-2,-2.321219631E-2,3.695625812E-2
9.987147060E0,4.016320780E-2,-2.015795931E-2,4.001049697E-2
9.996299925E0,4.321744293E-2,-1.954711229E-2,4.062134400E-2
1.000545279E1,4.566083103E-2,-2.015795931E-2,4.062134400E-2
1.001460565E1,4.810422286E-2,-2.076880634E-2,4.123219103E-2
1.002375852E1,4.688252881E-2,-2.137965336E-2,3.939964995E-2
1.003291138E1,4.504998401E-2,-2.076880634E-2,3.634541109E-2
1.004206425E1,4.199574888E-2,-2.137965336E-2,3.084778599E-2
1.005121711E1,4.398100078E-2,-2.687728032E-2,2.718270384E-2
1.006036998E1,4.764608666E-2,-2.916795574E-2,2.473931387E-2
1.006952284E1,4.886778072E-2,-3.283303976E-2,2.244863659E-2
1.007867571E1,4.657710344E-2,-3.878879920E-2,2.107422985E-2
1.008782857E1,4.352286831E-2,-4.734066129E-2,1.924168877E-2
1.009698144E1,3.802524135E-2,-5.573981255E-2,1.985253580E-2
1.010613430E1,3.436015919E-2,-6.352811307E-2,2.107422985E-2
1.011528716E1,2.641914412E-2,-6.902574003E-2,2.046338283E-2
1.012444003E1,2.214321308E-2,-7.085828483E-2,1.908897609E-2
1.013359289E1,1.969982497E-2,-7.024743408E-2,1.786728203E-2
1.014274576E1,2.031067200E-2,-6.780404598E-2,1.603474095E-2
1.015189862E1,2.397575416E-2,-6.368082762E-2,1.496575773E-2
1.016105149E1,2.702999115E-2,-5.818320066E-2,1.313321572E-2
1.017020435E1,2.702999115E-2,-5.161659420E-2,9.468132630E-3
1.017935722E1,2.321219631E-2,-4.489727318E-2,5.192201585E-3
1.018851008E1,1.710372418E-2,-4.199574888E-2,7.635590737E-4
1.019766295E1,9.009997360E-3,-3.894151375E-2,-1.068982761E-3
1.020681581E1,4.123218823E-3,-3.848337755E-2,-1.068982761E-3
1.021596868E1,4.123218823E-3,-4.077405483E-2,3.206948051E-3
1.022512154E1,2.901524538E-3,-4.978405312E-2,6.872031838E-3
1.023427440E1,3.665083554E-3,-5.940489471E-2,9.926267900E-3
1.024342727E1,3.665083554E-3,-6.841489673E-2,1.236965694E-2
1.025258013E1,5.039489828E-3,-7.574506104E-2,1.236965694E-2
1.026173300E1,8.704573847E-3,-8.047912270E-2,1.359135192E-2
1.027088586E1,9.926267900E-3,-8.414421231E-2,1.481304597E-2
1.028003873E1,1.420219894E-2,-8.231166750E-2,1.420219894E-2
1.028919159E1,1.664558798E-2,-7.986827940E-2,1.359135192E-2
1.029834446E1,1.359135192E-2,-7.146912813E-2,1.175880991E-2
1.030749732E1,1.298050396E-2,-6.612421572E-2,9.926267900E-3
1.031665018E1,9.162709117E-3,-5.818320066E-2,8.704573847E-3
1.032580305E1,9.620844387E-3,-4.917320609E-2,8.093725890E-3
1.033495592E1,1.145338640E-2,-4.443913698E-2,8.093725890E-3
1.034410878E1,1.572931744E-2,-4.199574888E-2,9.926267900E-3
1.035326164E1,1.939439960E-2,-3.710897267E-2,9.315420873E-3
1.036241451E1,2.183778957E-2,-3.466558084E-2,8.704573847E-3
1.037156737E1,2.244863659E-2,-2.687728032E-2,9.315420873E-3
1.038072024E1,2.367033064E-2,-2.382304333E-2,8.093725890E-3
1.038987310E1,2.290677279E-2,-1.664558798E-2,6.872031838E-3
1.039902597E1,1.969982497E-2,-5.803049076E-3,6.872031838E-3
1.040817883E1,1.908897609E-2,5.039489828E-3,6.261184346E-3
1.041733170E1,1.771457121E-2,1.649287529E-2,5.650337320E-3
1.042648456E1,1.145338640E-2,2.672456764E-2,5.039489828E-3
1.043563743E1,5.192201585E-3,3.512371704E-2,2.443389036E-3
1.044479029E1,-9.162708884E-4,4.474456236E-2,0.000000000E0
1.045394315E1,-2.290677279E-3,5.131116882E-2,-3.054236295E-3
1.046309602E1,1.374406274E-3,5.497625470E-2,-4.275931045E-3
1.047224888E1,1.985253533E-3,5.558710173E-2,-3.665083554E-3
1.048140175E1,-1.068982761E-3,5.558710173E-2,-5.497625098E-3
1.049055461E1,-4.123218823E-3,5.497625470E-2,-7.330167107E-3
1.049970748E1,-6.566607859E-3,5.375456065E-2,-9.162709117E-3
1.050886034E1,-8.399149403E-3,5.008947477E-2,-9.773556143E-3
1.051801321E1,-8.246437646E-3,4.474456236E-2,-1.038440317E-2
1.052716607E1,-8.246437646E-3,3.863608837E-2,-9.162709117E-3
1.053631894E1,-9.468132630E-3,3.451287001E-2,-7.941014133E-3
1.054547180E1,-8.246437646E-3,3.023693897E-2,-6.108472589E-3
1.055462466E1,-7.024743594E-3,2.489202656E-2,-3.054236295E-3
1.056377753E1,-3.817795310E-3,1.878355257E-2,-1.832541777E-3
1.057293039E1,-2.596100792E-3,1.878355257E-2,-1.221694518E-3
1.058208326E1,2.290677279E-3,2.122694254E-2,0.000000000E0
1.059123612E1,1.038440317E-2,2.122694254E-2,-4.581354442E-4
1.060038899E1,1.710372418E-2,2.061609551E-2,7.635590737E-4
1.060954185E1,2.137965336E-2,2.122694254E-2,1.527118147E-4
1.061869472E1,2.260134928E-2,2.244863659E-2,-4.581354442E-4
1.062784758E1,2.260134928E-2,2.244863659E-2,-2.901524538E-3
1.063700045E1,2.199050039E-2,2.550287358E-2,-4.734066315E-3
1.064615331E1,1.771457121E-2,2.367033064E-2,-7.788302377E-3
1.065530618E1,1.282779220E-2,2.000524849E-2,-1.145338640E-2
1.066445904E1,4.275931045E-3,1.389677543E-2,-1.404948719E-2
1.067361190E1,-3.665083554E-3,1.985253533E-3,-1.527118124E-2
1.068276477E1,-8.399149403E-3,-1.191152167E-2,-1.466033421E-2
1.069191763E1,-1.634016447E-2,-1.924168877E-2,-1.527118124E-2
1.070107050E1,-1.939439960E-2,-1.985253580E-2,-1.542389300E-2
1.071022336E1,-1.343864016E-2,-1.252236869E-2,-1.160609815E-2
1.071937623E1,-1.099525020E-2,-4.123218823E-3,-7.941014133E-3
1.072852909E1,-9.162709117E-3,1.374406274E-3,-9.162709117E-3
1.073768196E1,-6.719320081E-3,1.527118147E-4,-9.162709117E-3
1.074683482E1,-3.054236295E-3,-4.581354442E-4,-1.099525020E-2
1.075598769E1,-2.443389036E-3,1.374406274E-3,-1.160609815E-2
1.076514055E1,-1.832541777E-3,4.886778072E-3,-1.160609815E-2
1.077429342E1,-4.275931045E-3,7.941014133E-3,-1.282779220E-2
1.078344628E1,-4.886778072E-3,6.719320081E-3,-1.160609815E-2
1.079259914E1,-7.941014133E-3,1.374406274E-3,-1.282779220E-2
1.080175201E1,-1.343864016E-2,-5.344913341E-3,-1.221694518E-2
1.081090487E1,-1.908897609E-2,-5.344913341E-3,-8.704573847E-3
1.082005774E1,-2.336490713E-2,2.443389036E-3,-4.428642802E-3
1.082921060E1,-2.473931387E-2,7.941014133E-3,-1.527118147E-4
1.083836347E1,-2.168507688E-2,1.527118124E-2,4.734066315E-3
1.084751633E1,-1.496575773E-2,2.611372061E-2,4.734066315E-3
1.085666920E1,-6.566607859E-3,3.939964995E-2,7.941014133E-3
1.086582206E1,1.527118147E-4,5.024218559E-2,1.099525020E-2
1.087497492E1,-1.221694518E-3,6.108472496E-2,1.038440317E-2
1.088412779E1,-1.832541777E-3,6.459710002E-2,7.330167107E-3
1.089328065E1,-1.832541777E-3,5.925218388E-2,3.054236295E-3
1.090243352E1,1.527118147E-4,4.718795046E-2,-6.108472589E-4
1.091158638E1,-9.162708884E-4,3.634541109E-2,-5.497625098E-3
1.092073925E1,-5.803049076E-3,3.084778599E-2,-9.162709117E-3
1.092989211E1,-7.482878864E-3,2.657185495E-2,-1.038440317E-2
1.093904498E1,-9.468132630E-3,2.901524492E-2,-1.038440317E-2
1.094819784E1,-1.007897966E-2,3.084778599E-2,-1.099525020E-2
1.095735071E1,-8.857285604E-3,2.779355086E-2,-1.343864016E-2
1.096650357E1,-7.482878864E-3,2.596100792E-2,-1.710372418E-2
1.097565644E1,-5.650337320E-3,2.657185495E-2,-1.893626526E-2
1.098480930E1,-3.817795310E-3,3.023693897E-2,-1.710372418E-2
1.099396217E1,-7.635590737E-4,3.390202299E-2,-1.527118124E-2
1.100311503E1,1.679830020E-3,3.329117596E-2,-1.588202827E-2
1.101226789E1,3.512371797E-3,3.145863488E-2,-1.710372418E-2
1.102142076E1,1.679830020E-3,3.390202299E-2,-1.954711229E-2
1.103057362E1,-2.137965523E-3,4.413371533E-2,-2.382304333E-2
1.103972649E1,-4.734066315E-3,5.543438718E-2,-2.626643144E-2
1.104887935E1,-7.788302377E-3,6.032116711E-2,-2.626643144E-2
1.105803222E1,-9.009997360E-3,6.154286116E-2,-2.580829710E-2
1.106718508E1,-6.566607859E-3,6.154286116E-2,-2.443389036E-2
1.107633795E1,-3.512371797E-3,6.032116711E-2,-2.199050039E-2
1.108549081E1,1.985253533E-3,5.909947306E-2,-1.771457121E-2
1.109464368E1,1.068982668E-2,6.337540597E-2,-1.466033421E-2
1.110379654E1,1.786728203E-2,7.543963939E-2,-1.145338640E-2
1.111294940E1,2.031067200E-2,8.811471611E-2,-1.084253844E-2
1.112210227E1,2.199050039E-2,9.529217333E-2,-7.177455351E-3
1.113125513E1,2.321219631E-2,9.590301663E-2,-5.344913341E-3
1.114040800E1,2.565558441E-2,9.300149232E-2,-4.123218823E-3
1.114956086E1,3.191677108E-2,8.704573661E-2,-4.734066315E-3
1.115871373E1,3.512371704E-2,7.910472155E-2,-6.566607859E-3
1.116786659E1,3.649812192E-2,7.131642103E-2,-1.191152167E-2
1.117701946E1,3.161134571E-2,6.276455522E-2,-1.206423342E-2
1.118617232E1,1.863084175E-2,5.558710173E-2,-1.267508045E-2
1.119532519E1,2.137965523E-3,5.192201585E-2,-1.954711229E-2
1.120447805E1,-5.955760833E-3,5.543438718E-2,-2.321219631E-2
1.121363092E1,-2.290677279E-3,6.093201414E-2,-2.687728032E-2
1.122278378E1,1.985253533E-3,6.566607952E-2,-2.932066843E-2
1.123193664E1,3.206948051E-3,6.994201243E-2,-3.054236248E-2
1.124108951E1,1.985253533E-3,7.299624383E-2,-3.054236248E-2
1.125024237E1,1.985253533E-3,7.177454978E-2,-3.054236248E-2
1.125939524E1,2.596100792E-3,7.177454978E-2,-2.993151546E-2
1.126854810E1,3.817795310E-3,6.933116168E-2,-3.054236248E-2
1.127770097E1,5.192201585E-3,6.505523622E-2,-2.870982140E-2
1.128685378E1,1.007897966E-2,5.848862603E-2,-2.977880463E-2
1.129600670E1,1.695101149E-2,5.375456065E-2,-2.855710872E-2
1.130515951E1,2.489202656E-2,5.253286287E-2,-2.855710872E-2
1.131431242E1,3.054236248E-2,5.253286287E-2,-2.733541466E-2
1.132346524E1,3.542914242E-2,5.619794875E-2,-2.535016090E-2
1.133261815E1,3.603998944E-2,5.925218388E-2,-2.229592577E-2
1.134177102E1,3.344388679E-2,6.337540597E-2,-2.183778957E-2
1.135092388E1,2.855710872E-2,6.704048812E-2,-2.122694254E-2
1.136007670E1,2.351761982E-2,7.299624383E-2,-2.122694254E-2
1.136922961E1,1.969982497E-2,7.971556485E-2,-2.183778957E-2
1.137838248E1,1.969982497E-2,8.261708915E-2,-2.305948362E-2
1.138753534E1,1.786728203E-2,8.261708915E-2,-2.428117767E-2
1.139668821E1,1.236965694E-2,7.666133344E-2,-2.611372061E-2
1.140584107E1,5.039489828E-3,6.749862432E-2,-2.748812735E-2
1.141499394E1,-2.901524538E-3,5.971032009E-2,-3.054236248E-2
1.142414675E1,-1.068982668E-2,5.008947477E-2,-3.298575059E-2
1.143329966E1,-1.374406368E-2,4.214845970E-2,-3.619270027E-2
1.144245253E1,-1.313321572E-2,3.497100621E-2,-3.787253052E-2
1.145160539E1,-1.053711493E-2,2.535016090E-2,-3.909422457E-2
1.146075826E1,-6.719320081E-3,2.046338283E-2,-3.787253052E-2
1.146991107E1,-4.886778072E-3,1.801999472E-2,-3.848337755E-2
1.147906394E1,1.221694518E-3,1.511846948E-2,-3.848337755E-2
1.148821685E1,9.926267900E-3,1.328592747E-2,-3.771981969E-2
1.149736966E1,1.924168877E-2,7.941014133E-3,-3.649812192E-2
1.150652253E1,2.794626169E-2,3.665083554E-3,-3.573456407E-2
1.151567545E1,3.649812192E-2,1.527118147E-4,-3.268032894E-2
1.152482826E1,4.214845970E-2,-6.566607859E-3,-3.206948191E-2
1.153398112E1,4.657710344E-2,-1.313321572E-2,-3.374931216E-2
1.154313399E1,5.024218559E-2,-2.275406010E-2,-3.924693540E-2
1.155228685E1,5.344913527E-2,-3.008422814E-2,-4.107947648E-2
1.156143972E1,5.344913527E-2,-3.313846514E-2,-4.169032723E-2
1.157059258E1,5.039490014E-2,-2.886253223E-2,-3.863608837E-2
1.157974545E1,4.535540938E-2,-1.740914769E-2,-3.863608837E-2
1.158889831E1,4.153761268E-2,-9.620844387E-3,-3.939964995E-2
1.159805118E1,4.153761268E-2,-4.581354442E-4,-4.001049697E-2
1.160720404E1,4.214845970E-2,6.108472589E-3,-4.611896724E-2
1.161635690E1,4.382828996E-2,1.206423342E-2,-4.795150831E-2
1.162550977E1,4.504998401E-2,1.863084175E-2,-4.917320609E-2
1.163466263E1,4.932591692E-2,1.817270555E-2,-5.024218559E-2
1.164381550E1,5.680879578E-2,7.330167107E-3,-5.207473040E-2
1.165296836E1,6.566607952E-2,-7.177455351E-3,-5.573981255E-2
1.166212123E1,7.925742865E-2,-2.229592577E-2,-5.803048983E-2
1.167127409E1,9.483403713E-2,-2.825168520E-2,-5.787777901E-2
1.168042696E1,1.127013192E-1,-3.481829539E-2,-5.772506446E-2
1.168957982E1,1.337755471E-1,-4.077405483E-2,-5.573981255E-2
1.169873269E1,1.553079188E-1,-5.039490014E-2,-5.375456065E-2
1.170788555E1,1.788255423E-1,-6.291726977E-2,-4.871506989E-2
1.171703842E1,2.067717910E-1,-7.742489129E-2,-4.535540938E-2
1.172619128E1,2.432699203E-1,-9.361234307E-2,-3.542914242E-2
1.173534414E1,2.883199155E-1,-1.085781008E-1,-3.084778599E-2
1.174449701E1,3.446705639E-1,-1.308740228E-1,-2.550287358E-2
1.175364987E1,4.175141156E-1,-1.644706279E-1,-1.710372418E-2
1.176280274E1,5.103628635E-1,-2.009687424E-1,-2.290677279E-3
1.177195560E1,6.197045445E-1,-2.380777150E-1,2.412846684E-2
1.178110847E1,7.417212725E-1,-2.629697323E-1,6.108472496E-2
1.179026133E1,8.748859763E-1,-2.848075330E-1,1.078145429E-1
1.179941420E1,1.018435121E0,-3.055763543E-1,1.656923145E-1
1.180856706E1,1.171910524E0,-3.321481943E-1,2.321219593E-1
1.181771992E1,1.343253136E0,-3.701734245E-1,3.156553209E-1
1.182687279E1,1.527729034E0,-4.356867969E-1,4.056025743E-1
1.183602565E1,1.718618751E0,-5.205945969E-1,4.986040890E-1
1.184517852E1,1.918060422E0,-6.109999418E-1,5.996993184E-1
1.185433138E1,2.133689404E0,-7.145385742E-1,6.977402568E-1
1.186348425E1,2.374668837E0,-8.295305967E-1,7.831062078E-1
1.187263716E1,2.633667946E0,-9.318475127E-1,8.423583508E-1
1.188178998E1,2.860750437E0,-9.808679819E-1,8.684720993E-1
1.189094284E1,3.012087822E0,-9.414683580E-1,8.677085042E-1
1.190009571E1,3.073630810E0,-8.354863524E-1,8.136485219E-1
1.190924857E1,3.046447992E0,-6.537593007E-1,7.333221436E-1
1.191838868E1,2.925958395E0,-4.355340898E-1,6.474980712E-1
1.192755430E1,2.720713615E0,-3.301629424E-1,5.683933496E-1
1.193670717E1,2.470571756E0,-3.849864900E-1,5.160132051E-1
1.194584727E1,2.251277685E0,-6.639909744E-1,4.622586668E-1
1.195501289E1,2.120556355E0,-8.557969928E-1,4.637857676E-1
1.196416576E1,2.056111813E0,-9.729269743E-1,4.610369802E-1
1.197331862E1,2.036870241E0,-1.012784719E0,4.321744442E-1
1.198247149E1,2.031372547E0,-9.906415343E-1,3.796415627E-1
1.199162435E1,2.027707577E0,-9.590302110E-1,3.087832928E-1
1.200077722E1,2.029845476E0,-9.628480077E-1,2.586938143E-1
1.200993008E1,2.033357859E0,-9.941539168E-1,2.403683960E-1
1.201908295E1,2.022973299E0,-1.023169160E0,2.470877171E-1
1.202823581E1,1.996554255E0,-1.030957460E0,2.628170252E-1
1.203738868E1,1.960514307E0,-1.018282413E0,2.899997234E-1
1.204654154E1,1.918976665E0,-9.910996556E-1,3.190149665E-1
1.205569440E1,1.869803429E0,-9.494093657E-1,3.474193811E-1
1.206484727E1,1.816354275E0,-9.121476412E-1,3.597890437E-1
1.207400013E1,1.769929886E0,-8.947384953E-1,3.594835997E-1
1.208315300E1,1.734348059E0,-8.955020905E-1,3.408527672E-1
1.209230586E1,1.689450860E0,-9.077190161E-1,3.118375242E-1
1.210145873E1,1.637986898E0,-9.260444641E-1,2.779355049E-1
1.211061154E1,1.590493560E0,-9.002361298E-1,2.525853515E-1
1.211976446E1,1.549261332E0,-8.251019120E-1,2.315111160E-1
1.212891727E1,1.522689462E0,-7.379034758E-1,2.037175596E-1
1.213807013E1,1.504211426E0,-6.730009913E-1,1.809635013E-1
1.214722300E1,1.475043416E0,-6.351284385E-1,1.702736765E-1
1.215637586E1,1.421441555E0,-6.381826997E-1,1.675248593E-1
1.216552873E1,1.373642802E0,-6.678087711E-1,1.721062213E-1
1.217468159E1,1.312710762E0,-6.846070886E-1,1.747023165E-1
1.218383446E1,1.248571754E0,-6.775823236E-1,1.711899489E-1
1.219298732E1,1.194664478E0,-6.505523324E-1,1.605001241E-1
1.220214019E1,1.141062737E0,-6.429167390E-1,1.441599578E-1
1.221129305E1,1.092347622E0,-6.453601122E-1,1.420219839E-1
1.222044592E1,1.037524104E0,-6.539120078E-1,1.403421611E-1
1.222959878E1,9.743013978E-1,-6.671979427E-1,1.459924877E-1
1.223875164E1,9.064973593E-1,-6.720846891E-1,1.485885978E-1
1.224790451E1,8.460234404E-1,-6.662816405E-1,1.395785958E-1
1.225705737E1,7.884510756E-1,-6.332958937E-1,1.197260618E-1
1.226621024E1,7.290462255E-1,-5.935907960E-1,1.131594554E-1
1.227536310E1,6.792621613E-1,-5.473191738E-1,1.255291104E-1
1.228451597E1,6.166502833E-1,-5.141806602E-1,1.385096163E-1
1.229366883E1,5.372401476E-1,-5.239542127E-1,1.495048702E-1
1.230282170E1,4.595098495E-1,-5.317425132E-1,1.612636745E-1
1.231197456E1,3.941491842E-1,-5.349494815E-1,1.730224788E-1
1.232112742E1,3.422271907E-1,-5.144860744E-1,1.847812980E-1
1.233028029E1,2.887780368E-1,-4.723376334E-1,1.777565479E-1
1.233943315E1,2.316638231E-1,-4.213318825E-1,1.614163816E-1
1.234858602E1,1.714953631E-1,-3.738385141E-1,1.530172378E-1
1.235773888E1,1.082726792E-1,-3.359659910E-1,1.495048702E-1
1.236689175E1,5.375456065E-2,-2.854183912E-1,1.557660550E-1
1.237604461E1,5.344913341E-3,-1.944021434E-1,1.681357026E-1
1.238519748E1,-5.283828825E-2,-1.047603041E-1,1.737860441E-1
1.239435034E1,-1.186570823E-1,-5.054761097E-2,1.806580722E-1
1.240350321E1,-1.896680743E-1,-3.558185324E-2,1.892099380E-1
1.241265607E1,-2.525853515E-1,-4.214845970E-2,2.023431510E-1
1.242180894E1,-2.498365343E-1,-7.238540053E-2,2.145601064E-1
1.243096180E1,-1.600419879E-1,-1.215586066E-1,2.017323077E-1
1.244010190E1,-3.008422814E-2,-1.595838517E-1,1.582094431E-1
1.244926753E1,6.978929788E-2,-1.427855492E-1,1.105633527E-1
1.245842034E1,1.293469071E-1,-9.804098308E-2,8.597674966E-2
1.246757321E1,1.571404636E-1,-9.743013978E-2,8.674030751E-2
1.247672607E1,1.798945218E-1,-1.708845198E-1,9.361234307E-2
1.248587894E1,1.998997629E-1,-2.925958335E-1,1.177408099E-1
1.249501904E1,1.832541823E-1,-3.666610718E-1,1.214058921E-1
1.250418466E1,1.275143623E-1,-3.037438095E-1,8.429691941E-2
1.251333758E1,8.735115826E-2,-1.244601309E-1,-2.290677279E-3
1.252249039E1,1.029277667E-1,3.558185324E-2,-7.742489129E-2
1.253164326E1,1.575985998E-1,8.185353130E-2,-1.227803007E-1
1.254079612E1,2.174616307E-1,5.864133686E-2,-9.972081333E-2
1.254994899E1,2.199050188E-1,1.010952219E-1,-2.535016090E-2
1.255910185E1,8.979454637E-2,2.076880634E-1,4.214845970E-2
1.256825472E1,-1.382041872E-1,1.966928244E-1,6.551336497E-2
1.257740758E1,-3.332171738E-1,7.879929990E-2,5.451811850E-2
1.258656045E1,-4.566083252E-1,2.977880463E-2,5.971032009E-2
1.259571336E1,-5.861079693E-1,1.591257155E-1,8.246438205E-2
1.260486618E1,-7.721109390E-1,5.077667832E-1,6.688777357E-2
1.261401904E1,-9.694145918E-1,8.260182142E-1,6.108472589E-3
1.262317190E1,-1.147171140E0,9.309312105E-1,-3.130592033E-2
1.263231201E1,-1.296217918E0,9.103151560E-1,-9.162709117E-3
1.264147763E1,-1.373490095E0,7.658497691E-1,5.390727147E-2
1.265063050E1,-1.384332657E0,5.618267655E-1,1.308740228E-1
1.265977060E1,-1.365090966E0,3.782671690E-1,1.947075576E-1
1.266893623E1,-1.345849276E0,3.219164908E-1,2.614426315E-1
1.267808909E1,-1.362647533E0,4.601207078E-1,3.156553209E-1
1.268722920E1,-1.386623263E0,5.854970813E-1,3.312319219E-1
1.269639482E1,-1.386317849E0,6.186355352E-1,3.318427801E-1
1.270554768E1,-1.342184186E0,6.332958937E-1,3.565820754E-1
1.271470055E1,-1.274838209E0,5.967977643E-1,4.138490260E-1
1.272385342E1,-1.238034725E0,5.706840754E-1,4.964661002E-1
1.273300628E1,-1.236965656E0,5.512896776E-1,5.795413256E-1
1.274214638E1,-1.211157441E0,3.906368315E-1,6.555918455E-1
1.275131201E1,-1.163969398E0,1.824906170E-1,7.244648337E-1
1.276046487E1,-1.135259628E0,-3.359659761E-2,7.744016051E-1
1.276961774E1,-1.091278672E0,-2.565558553E-1,7.875348330E-1
1.277877055E1,-1.018740535E0,-4.523324072E-1,7.747070193E-1
1.278792342E1,-9.752176404E-1,-6.042806506E-1,7.256865501E-1
1.279707628E1,-1.001636744E0,-6.473453641E-1,6.474980712E-1
1.280622914E1,-1.045923233E0,-6.226060390E-1,5.525113344E-1
1.281538201E1,-1.073869467E0,-5.601469278E-1,4.752391577E-1
1.282452211E1,-1.098456025E0,-3.964398801E-1,4.213318825E-1
1.283368774E1,-1.115559816E0,-1.876828223E-1,3.739912212E-1
1.284284060E1,-1.108687758E0,4.718795046E-2,3.109212518E-1
1.285199347E1,-1.125486016E0,3.142809272E-1,2.134911120E-1
1.286114633E1,-1.174201131E0,5.265503526E-1,8.536590636E-2
1.287029914E1,-1.207797766E0,6.940752268E-1,-3.222219273E-2
1.287945201E1,-1.226734042E0,8.425110579E-1,-1.288887709E-1
1.288860487E1,-1.262315869E0,9.422318935E-1,-2.153236568E-1
1.289775774E1,-1.291636586E0,1.020114899E0,-2.875563502E-1
1.290691060E1,-1.340198874E0,1.105328083E0,-3.741439581E-1
1.291606347E1,-1.383721709E0,1.183822036E0,-4.758500159E-1
1.292521633E1,-1.403574347E0,1.254527569E0,-5.761816502E-1
1.293436920E1,-1.404185176E0,1.366923451E0,-6.697940230E-1
1.294352211E1,-1.404643297E0,1.530477762E0,-7.492041588E-1
1.295267492E1,-1.421441555E0,1.717549801E0,-8.073873520E-1
1.296182779E1,-1.461146593E0,1.904010892E0,-8.732061386E-1
1.297098065E1,-1.477181435E0,2.068939686E0,-9.181034565E-1
1.298013352E1,-1.460993886E0,2.190650940E0,-9.297095537E-1
1.298928638E1,-1.447708011E0,2.296174765E0,-9.187142849E-1
1.299843925E1,-1.431520581E0,2.338475943E0,-9.026795626E-1
1.300759211E1,-1.417471051E0,2.346416950E0,-8.825215697E-1
1.301674498E1,-1.419609070E0,2.297091007E0,-8.640434742E-1
1.302589784E1,-1.420219898E0,2.203784227E0,-8.273926377E-1
1.303505071E1,-1.418387294E0,2.126817465E0,-7.754706144E-1
1.304420357E1,-1.416554809E0,2.068176031E0,-6.934643388E-1
1.305335644E1,-1.433963895E0,1.980061412E0,-5.818319917E-1
1.306250930E1,-1.457939744E0,1.849645495E0,-4.695888162E-1
1.307166211E1,-1.507876515E0,1.727628708E0,-3.568875194E-1
1.308081498E1,-1.553995371E0,1.578582048E0,-2.397575527E-1
1.308996784E1,-1.562089205E0,1.391662717E0,-1.243074164E-1
1.309912071E1,-1.564379811E0,1.194817185E0,-2.657185495E-2
1.310827362E1,-1.590035439E0,9.484930634E-1,9.162708884E-4
1.311742644E1,-1.579956412E0,5.916055441E-1,-4.947862774E-2
1.312656654E1,-1.509403586E0,1.907370538E-1,-1.236965731E-1
1.313573216E1,-1.388455868E0,-1.475196183E-1,-2.105895877E-1
1.314488503E1,-1.266744494E0,-3.362714052E-1,-2.840439677E-1
1.315402513E1,-1.227802992E0,-3.297048211E-1,-3.289412558E-1
1.316319076E1,-1.220472813E0,-9.300149232E-2,-3.706315756E-1
1.317234362E1,-1.225664973E0,3.184041381E-1,-4.356867969E-1
1.318149649E1,-1.236965656E0,7.110261917E-1,-4.964661002E-1
1.319064935E1,-1.241699815E0,9.181034565E-1,-5.338805318E-1
1.319980222E1,-1.229635477E0,9.553651214E-1,-5.564818382E-1
1.320894232E1,-1.210393786E0,8.872556686E-1,-5.671716928E-1
1.321810795E1,-1.176491857E0,7.342383862E-1,-5.650337338E-1
1.322726081E1,-1.133885264E0,5.108210444E-1,-5.468609929E-1
1.323641362E1,-1.101968408E0,2.959555089E-1,-5.154023767E-1
1.324556649E1,-1.084559321E0,1.985253543E-1,-4.755446017E-1
1.325471940E1,-1.062263370E0,2.396048307E-1,-4.381301999E-1
1.326387222E1,-1.035233378E0,3.680354655E-1,-4.202629030E-1
1.327302508E1,-1.007745266E0,4.770717025E-1,-4.372139275E-1
1.328217795E1,-9.655967951E-1,5.372401476E-1,-4.694361091E-1
1.329133081E1,-9.009997249E-1,5.668662786E-1,-4.879142344E-1
1.330048368E1,-8.316685557E-1,5.958815217E-1,-4.953971207E-1
1.330963654E1,-7.466080785E-1,6.682668924E-1,-4.923428893E-1
1.331878940E1,-6.555918455E-1,7.481352091E-1,-4.808894992E-1
1.332794227E1,-5.373928547E-1,7.670714259E-1,-4.414898455E-1
1.333709513E1,-3.497100472E-1,6.809419990E-1,-3.460449576E-1
1.334623524E1,-1.026223376E-1,4.789042473E-1,-1.982199401E-1
1.335540086E1,1.467560530E-1,2.147128135E-1,-3.573456407E-2
1.336455373E1,3.379512429E-1,-7.177454978E-2,1.007898003E-1
1.337370659E1,4.856235683E-1,-3.599417508E-1,1.960819662E-1
1.338285946E1,6.815528274E-1,-6.726955175E-1,2.745758295E-1
1.339201227E1,9.801044464E-1,-1.007592559E0,3.545968235E-1
1.340115243E1,1.375475287E0,-1.271783948E0,4.112529159E-1
1.341031800E1,1.834985137E0,-1.457176089E0,4.280512035E-1
1.341947092E1,2.354663372E0,-1.571099162E0,3.848337829E-1
1.342862373E1,2.901066303E0,-1.569877505E0,3.019112647E-1
1.343777659E1,3.412650824E0,-1.468782187E0,2.243336588E-1
1.344692946E1,3.786489487E0,-1.362036705E0,2.108950168E-1
1.345608232E1,3.974019527E0,-1.366159916E0,3.271087110E-1
1.346523519E1,3.979517221E0,-1.593089700E0,5.325061083E-1
1.347438805E1,3.788627386E0,-1.856517553E0,7.615737915E-1
1.348354092E1,3.431281805E0,-1.826738715E0,9.579612017E-1
1.349269378E1,3.100355148E0,-1.492910743E0,1.126402378E0
1.350184664E1,2.989639282E0,-1.259108901E0,1.297134161E0
1.351098675E1,3.054999828E0,-1.274074674E0,1.455190897E0
1.352015237E1,3.128301620E0,-1.383874416E0,1.572931647E0
1.352930518E1,3.119138718E0,-1.499935389E0,1.637070656E0
1.353844534E1,3.053167343E0,-1.713884711E0,1.644095421E0
1.354761092E1,2.993609667E0,-2.041451454E0,1.577513099E0
1.355676378E1,2.967954159E0,-2.436669827E0,1.456565261E0
1.356590388E1,2.978491306E0,-2.853573084E0,1.298203111E0
1.357506951E1,2.991624355E0,-3.201603174E0,1.098914266E0
1.358422242E1,2.997427464E0,-3.280097008E0,8.967237473E-1
1.359336248E1,3.031482220E0,-3.013004065E0,7.643226385E-1
1.360252810E1,3.071492672E0,-2.493631124E0,6.891884208E-1
1.361168097E1,3.074394226E0,-1.805206418E0,6.227588058E-1
1.362082107E1,3.031329632E0,-1.083032131E0,5.535803437E-1
1.362998670E1,2.945963621E0,-4.705050886E-1,4.926483035E-1
1.363913956E1,2.816922188E0,-2.122694254E-2,4.650074840E-1
1.364827966E1,2.659781694E0,2.461714447E-1,4.888305068E-1
1.365744529E1,2.486912012E0,3.460449576E-1,5.173876286E-1
1.366659815E1,2.346722364E0,3.042019308E-1,5.225798488E-1
1.367573826E1,2.249750376E0,1.893626451E-1,4.834856093E-1
1.368490388E1,2.149571419E0,7.269082218E-2,4.066715539E-1
1.369405670E1,2.026027679E0,-8.078455180E-2,3.301629424E-1
1.370320961E1,1.884921908E0,-2.771719396E-1,2.840439677E-1
1.371236242E1,1.738318563E0,-4.691306949E-1,2.478512824E-1
1.372151529E1,1.583010674E0,-5.937435627E-1,2.046338320E-1
1.373065545E1,1.385554314E0,-6.261184216E-1,1.708845198E-1
1.373982107E1,1.163205862E0,-6.349757314E-1,1.363716573E-1
1.374897388E1,9.405520558E-1,-6.010736823E-1,1.134648770E-1
1.375812675E1,7.371399403E-1,-5.201364160E-1,1.058292910E-1
1.376727961E1,5.447230339E-1,-4.511106908E-1,9.223793447E-2
1.377643248E1,3.545968235E-1,-4.022429287E-1,6.872031838E-2
1.378558534E1,1.808107942E-1,-3.833066523E-1,4.306473210E-2
1.379473821E1,2.214321308E-2,-4.210264683E-1,1.221694518E-2
1.380389107E1,-1.261399537E-1,-5.002838969E-1,-6.566607859E-3
1.381304394E1,-2.672456801E-1,-5.902311802E-1,4.734066315E-3
1.382219680E1,-3.946073353E-1,-6.270347238E-1,4.230117425E-2
1.383134967E1,-5.161659122E-1,-4.987567961E-1,8.719844371E-2
1.384048977E1,-6.248967648E-1,-2.704526186E-1,1.180462316E-1
1.384965534E1,-7.214106321E-1,-3.054236248E-2,1.299577504E-1
1.385880821E1,-8.206732869E-1,1.789782494E-1,1.278197914E-1
1.386796107E1,-9.272661209E-1,3.275668323E-1,1.093416587E-1
1.387711394E1,-1.039967418E0,3.929274976E-1,8.399149776E-2
1.388626680E1,-1.161984205E0,3.981196880E-1,5.635065958E-2
1.389541966E1,-1.288582325E0,3.820849657E-1,2.977880463E-2
1.390457253E1,-1.354401112E0,3.177932799E-1,-2.000524849E-2
1.391372539E1,-1.168245435E0,1.933331639E-1,-6.215370819E-2
1.392286550E1,-7.513421178E-1,1.823379099E-1,-9.086353332E-2
1.393203112E1,-3.194731176E-1,4.216373265E-1,-1.191152185E-1
1.394118399E1,-1.692046970E-1,4.225535989E-1,-9.116895497E-2
1.395032409E1,-2.583884001E-1,-1.823379099E-1,-4.672981426E-2
1.395948972E1,-4.512633979E-1,-5.477772951E-1,-6.413896102E-3
1.396864258E1,-9.840749502E-1,-1.772984117E-1,2.687728032E-2
1.397778269E1,-1.611720443E0,3.016058207E-1,8.246438205E-2
1.398694826E1,-1.605459332E0,2.273878902E-1,1.944021434E-1
1.399610112E1,-1.357455373E0,9.361234307E-2,2.687727809E-1
1.400524128E1,-1.317902923E0,2.299840003E-1,2.819060087E-1
1.401440685E1,-1.501767993E0,5.002838969E-1,3.072561622E-1
1.402355972E1,-1.714190125E0,6.969767213E-1,3.092414141E-1
1.403269982E1,-1.816354275E0,5.413633585E-1,3.067980409E-1
1.404186545E1,-1.769471765E0,2.582356930E-1,3.031329513E-1
1.405101831E1,-1.687160134E0,2.443389036E-2,2.757975459E-1
1.406015842E1,-1.677539229E0,-8.108997345E-2,2.606790662E-1
1.406932404E1,-1.701820493E0,-1.420219839E-1,2.806843221E-1
1.407847690E1,-1.696017385E0,-2.628170252E-1,3.504736125E-1
1.408761701E1,-1.668376565E0,-3.654393852E-1,4.398100376E-1
1.409678263E1,-1.611567736E0,-4.259132445E-1,5.251759291E-1
1.410593545E1,-1.536891699E0,-3.984251320E-1,5.946598053E-1
1.411507560E1,-1.452289343E0,-3.463504016E-1,6.012263894E-1
1.412424123E1,-1.377307892E0,-2.971771955E-1,5.328115225E-1
1.413339404E1,-1.341878772E0,-2.512109280E-1,3.914003670E-1
1.414254690E1,-1.333479524E0,-2.151709497E-1,2.179197669E-1
1.415169977E1,-1.343863964E0,-1.495048702E-1,4.382828996E-2
1.416085263E1,-1.342336893E0,-4.993676394E-2,-1.052184403E-1
1.417000550E1,-1.342947721E0,1.490467340E-1,-1.969982386E-1
1.417915836E1,-1.371046662E0,4.098785222E-1,-2.333436459E-1
1.418831123E1,-1.395938754E0,6.471926570E-1,-2.409792393E-1
1.419745133E1,-1.405559540E0,8.280034661E-1,-2.290677279E-1
1.420661696E1,-1.388455868E0,9.756757617E-1,-2.260134816E-1
1.421576982E1,-1.357913494E0,1.071578860E0,-2.264716178E-1
1.422492263E1,-1.319735527E0,1.095707297E0,-2.328855246E-1
1.423407550E1,-1.314085126E0,1.088377118E0,-2.542651594E-1
1.424322836E1,-1.317597508E0,1.085322857E0,-2.738122940E-1
1.425238123E1,-1.329356313E0,1.164733052E0,-2.843494117E-1
1.426153414E1,-1.352873921E0,1.254374862E0,-3.101576865E-1
1.427068696E1,-1.376849771E0,1.416707516E0,-3.935383558E-1
1.427983982E1,-1.387234092E0,1.572015405E0,-4.535540938E-1
1.428899268E1,-1.392884493E0,1.598434567E0,-4.818057716E-1
1.429814555E1,-1.420219898E0,1.565143347E0,-4.946335554E-1
1.430729842E1,-1.440225124E0,1.538571477E0,-5.150969625E-1
1.431645128E1,-1.418540001E0,1.521620512E0,-5.300627351E-1
1.432560414E1,-1.342489600E0,1.502378821E0,-5.416688323E-1
1.433475701E1,-1.207645059E0,1.528645277E0,-5.328115225E-1
1.434390987E1,-1.099219680E0,1.543763757E0,-5.399889946E-1
1.435306274E1,-1.081657767E0,1.527423620E0,-5.699204803E-1
1.436221560E1,-1.104717255E0,1.550177574E0,-5.987830162E-1
1.437136842E1,-1.084712029E0,1.614011168E0,-6.291726828E-1
1.438052128E1,-1.013242841E0,1.679677248E0,-6.274928451E-1
1.438967420E1,-9.770501852E-1,1.709303379E0,-6.187883019E-1
1.439882701E1,-1.003927469E0,1.671430826E0,-6.261184216E-1
1.440797987E1,-1.041189194E0,1.577818513E0,-6.404733658E-1
1.441713274E1,-1.037218690E0,1.469393134E0,-6.384881139E-1
1.442628560E1,-1.007134438E0,1.408155680E0,-6.155813336E-1
1.443543847E1,-9.822424054E-1,1.356386304E0,-5.818319917E-1
1.444459133E1,-9.622371197E-1,1.253458619E0,-5.657972693E-1
1.445374414E1,-9.370396733E-1,1.042563558E0,-5.506787896E-1
1.446289701E1,-9.433009028E-1,8.293778896E-1,-5.250232220E-1
1.447204987E1,-9.805625677E-1,7.227849960E-1,-5.056288242E-1
1.448120274E1,-1.001178622E0,6.800256968E-1,-4.905103445E-1
1.449035560E1,-1.018740535E0,6.956022978E-1,-4.845545888E-1
1.449950847E1,-1.026986957E0,6.607840061E-1,-4.772244096E-1
1.450866133E1,-1.022558331E0,5.638120174E-1,-4.619532526E-1
1.451781420E1,-1.027139664E0,4.427115619E-1,-4.294256270E-1
1.452696706E1,-1.031720996E0,3.096995652E-1,-3.921639323E-1
1.453611993E1,-1.019656777E0,1.911951900E-1,-3.694098890E-1
1.454527279E1,-9.880454540E-1,1.073564067E-1,-3.684936166E-1
1.455441289E1,-9.283351302E-1,1.298050433E-1,-3.918585181E-1
1.456357847E1,-8.936695457E-1,1.881409585E-1,-4.301891923E-1
1.457273133E1,-8.359444737E-1,3.092414141E-1,-4.640912116E-1
1.458187144E1,-7.305732965E-1,3.715478480E-1,-4.419479966E-1
1.459103706E1,-5.728220344E-1,4.124746025E-1,-3.675773442E-1
1.460018998E1,-3.680354655E-1,3.510844707E-1,-2.782409191E-1
1.460933003E1,-1.325538605E-1,9.147437662E-2,-1.634016484E-1
1.461849565E1,1.159082651E-1,-1.951656938E-1,-3.008422814E-2
1.462764852E1,4.025483429E-1,-4.074351192E-1,9.910997003E-2
1.463680138E1,7.655443549E-1,-5.722111464E-1,1.780619770E-1
1.464595425E1,1.192831993E0,-7.379034758E-1,1.818797737E-1
1.465510711E1,1.653105378E0,-8.819107413E-1,1.241547018E-1
1.466425998E1,2.121625185E0,-9.278770089E-1,5.726693198E-2
1.467341284E1,2.529365778E0,-8.104416132E-1,4.291202128E-2
1.468256565E1,2.796764135E0,-5.028799772E-1,1.307213157E-1
1.469170576E1,2.929776192E0,-4.327852726E-1,3.129065037E-1
1.470087138E1,2.961540222E0,-7.299624681E-1,5.691569448E-1
1.471002425E1,2.921376944E0,-1.066233873E0,8.556442857E-1
1.471916435E1,2.857543468E0,-1.269798756E0,1.092194915E0
1.472832998E1,2.816769361E0,-1.425870180E0,1.274532795E0
1.473748284E1,2.834636688E0,-1.614011168E0,1.401894450E0
1.474663571E1,2.897095919E0,-1.679219127E0,1.468934894E0
1.475578857E1,2.955584526E0,-1.676164865E0,1.471225619E0
1.476494144E1,2.989486456E0,-2.067412615E0,1.419150949E0
1.477408154E1,3.004146814E0,-2.290524483E0,1.344322085E0
1.478324711E1,2.981087446E0,-2.587396383E0,1.272394896E0
1.479239998E1,2.925194740E0,-2.753088713E0,1.136481285E0
1.480154008E1,2.857848883E0,-2.656269312E0,9.662076235E-1
1.481070571E1,2.836316586E0,-2.448275805E0,8.186880350E-1
1.481985857E1,2.853573084E0,-2.187291384E0,6.989619732E-1
1.482899868E1,2.889154911E0,-1.904316306E0,6.099309921E-1
1.483816430E1,2.905342340E0,-1.620119691E0,5.419742465E-1
1.484731717E1,2.879381180E0,-1.293774486E0,4.932591617E-1
1.485645727E1,2.821808815E0,-9.101623893E-1,4.480564594E-1
1.486562289E1,2.740260839E0,-5.115845799E-1,4.094203711E-1
1.487477576E1,2.652604103E0,-2.177670449E-1,3.828485310E-1
1.488392857E1,2.584952831E0,-7.559234649E-2,3.567348123E-1
1.489308144E1,2.532267332E0,-4.031591862E-2,3.379512429E-1
1.490223430E1,2.453620672E0,-5.436540768E-2,3.153499067E-1
1.491137440E1,2.348249674E0,-1.232384369E-1,2.982461751E-1
1.492054003E1,2.248986959E0,-2.447970361E-1,2.744231224E-1
1.492969289E1,2.144379377E0,-3.770454824E-1,2.279987335E-1
1.493883300E1,2.014116049E0,-4.660764635E-1,1.612636745E-1
1.494799862E1,1.854074121E0,-5.244123936E-1,1.062874198E-1
1.495715149E1,1.670514584E0,-5.948125124E-1,6.536065787E-2
1.496630435E1,1.479319334E0,-6.409314871E-1,3.909422457E-2
1.497545722E1,1.286749721E0,-6.244385839E-1,2.916795574E-2
1.498461003E1,1.080436110E0,-5.572454333E-1,2.519745007E-2
1.499376289E1,8.576295376E-1,-4.624113739E-1,1.924168877E-2
1.500291581E1,6.311579347E-1,-3.555130959E-1,1.023169141E-2
1.501206868E1,3.979669809E-1,-2.596100867E-1,-7.330167107E-3
1.502120873E1,1.724116355E-1,-1.774511337E-1,-3.084778599E-2
1.503037440E1,-1.343864016E-2,-1.211004704E-1,-5.680879578E-2
1.503952722E1,-1.824906170E-1,-1.088835225E-1,-5.558710173E-2
1.504866732E1,-3.492519259E-1,-1.517955512E-1,-1.511846948E-2
1.505783295E1,-4.857762754E-1,-2.174616307E-1,2.733541466E-2
1.506698581E1,-5.873296261E-1,-2.524326444E-1,5.833591148E-2
1.507613868E1,-6.656708121E-1,-2.452551723E-1,9.330692142E-2
1.508529154E1,-7.262973785E-1,-2.446443290E-1,1.166718230E-1
1.509444440E1,-7.956285477E-1,-2.018850148E-1,1.252236813E-1
1.510359722E1,-8.872556686E-1,-9.483403713E-2,1.136175916E-1
1.511275008E1,-9.978190064E-1,2.657185495E-2,9.071081877E-2
1.512190295E1,-1.103342891E0,1.215586066E-1,6.184828654E-2
1.513105581E1,-1.190235853E0,2.020377368E-1,2.687728032E-2
1.514020868E1,-1.201231122E0,2.796153426E-1,-2.382304333E-2
1.514936154E1,-1.059972763E0,3.681881726E-1,-7.055285573E-2
1.515850164E1,-8.599202037E-1,4.900522232E-1,-1.314848661E-1
1.516766727E1,-6.313106418E-1,4.445441067E-1,-1.427855492E-1
1.517682013E1,-4.778352678E-1,1.595838517E-1,-1.939439960E-2
1.518596024E1,-4.514161348E-1,-1.675248593E-1,1.368297935E-1
1.519512586E1,-4.998257756E-1,-2.929012477E-1,1.890572309E-1
1.520427868E1,-7.258392572E-1,1.695101112E-1,1.670667231E-1
1.521341883E1,-1.049435616E0,8.203678727E-1,1.374406368E-1
1.522258440E1,-1.156944752E0,9.588775039E-1,1.713426560E-1
1.523173727E1,-1.083948493E0,6.284091473E-1,2.264716178E-1
1.524087737E1,-1.086697221E0,4.291202128E-1,2.657185495E-1
1.525004300E1,-1.243837714E0,2.431172132E-1,3.697153032E-1
1.525919586E1,-1.528645277E0,2.209739983E-1,4.123218954E-1
1.526833597E1,-1.725796223E0,5.818320066E-2,4.500417113E-1
1.527750154E1,-1.772984147E0,-2.834331393E-1,4.928010404E-1
1.528665440E1,-1.702431321E0,-5.531222224E-1,5.691569448E-1
1.529579451E1,-1.591562510E0,-6.639909744E-1,6.604785919E-1
1.530496013E1,-1.422357798E0,-8.365553021E-1,6.891884208E-1
1.531411305E1,-1.164427638E0,-9.802571535E-1,6.459710002E-1
1.532326586E1,-8.918370008E-1,-8.861866593E-1,5.494571328E-1
1.533241873E1,-7.331694365E-1,-6.484143734E-1,4.167505503E-1
1.534157159E1,-7.215633392E-1,-4.278984964E-1,2.657185495E-1
1.535071170E1,-8.021951914E-1,-1.562241912E-1,1.038440317E-1
1.535987732E1,-8.790091872E-1,1.009425074E-1,-6.795676053E-2
1.536903013E1,-9.220739603E-1,3.093941510E-1,-2.270824611E-1
1.537818300E1,-9.639169574E-1,6.397097707E-1,-3.394783735E-1
1.538733586E1,-1.004996419E0,9.973608851E-1,-4.071297050E-1
1.539648878E1,-1.001942158E0,1.162900448E0,-4.553866386E-1
1.540562883E1,-9.724688530E-1,1.267049909E0,-4.883723855E-1
1.541479446E1,-9.744541049E-1,1.344627500E0,-4.963133931E-1
1.542394732E1,-9.985825419E-1,1.363258362E0,-4.940227270E-1
1.543310018E1,-1.045465112E0,1.433200359E0,-4.969242513E-1
1.544225305E1,-1.081352353E0,1.446944475E0,-4.842491746E-1
1.545140592E1,-1.103495598E0,1.427244663E0,-4.605788291E-1
1.546055873E1,-1.141215444E0,1.430757046E0,-4.578300118E-1
1.546971159E1,-1.206728816E0,1.461910248E0,-4.882196784E-1
1.547886446E1,-1.294996142E0,1.577971220E0,-5.213581324E-1
1.548801732E1,-1.349819779E0,1.632031202E0,-5.369347334E-1
1.549717019E1,-1.385554314E0,1.637986898E0,-5.396835804E-1
1.550632305E1,-1.425564766E0,1.615538239E0,-5.289937258E-1
1.551547592E1,-1.458397865E0,1.590798974E0,-5.413633585E-1
1.552462878E1,-1.466186166E0,1.636459827E0,-5.531222224E-1
1.553378164E1,-1.458092451E0,1.685327530E0,-5.586197972E-1
1.554293446E1,-1.479166627E0,1.716022611E0,-5.673243999E-1
1.555208732E1,-1.520704269E0,1.692352295E0,-5.949652195E-1
1.556124018E1,-1.568808436E0,1.694032192E0,-6.204680800E-1
1.557039305E1,-1.586370349E0,1.723505497E0,-6.193991303E-1
1.557954592E1,-1.561936498E0,1.737555027E0,-5.844281316E-1
1.558869878E1,-1.526812673E0,1.727323294E0,-5.706840754E-1
1.559785164E1,-1.528492570E0,1.718924165E0,-5.847335458E-1
1.560700451E1,-1.528339863E0,1.657839417E0,-6.146650314E-1
1.561615737E1,-1.499935389E0,1.576596737E0,-6.296308041E-1
1.562531019E1,-1.429840684E0,1.601946950E0,-6.316160560E-1
1.563446305E1,-1.384790778E0,1.581025362E0,-6.294780970E-1
1.564361592E1,-1.375017166E0,1.390593767E0,-6.322268844E-1
1.565276878E1,-1.350888729E0,1.174811959E0,-6.288672686E-1
1.566192164E1,-1.300035715E0,1.072495103E0,-6.259657145E-1
1.567107451E1,-1.270562291E0,1.021947503E0,-6.258130074E-1
1.568022737E1,-1.228566527E0,9.274188280E-1,-6.181774139E-1
1.568938024E1,-1.130983710E0,7.637118101E-1,-5.983248949E-1
1.569853310E1,-1.002094984E0,5.392253995E-1,-5.825955868E-1
1.570768597E1,-9.127585292E-1,3.362714052E-1,-5.879405141E-1
1.571683878E1,-8.845068216E-1,2.247917950E-1,-6.132906675E-1
1.572599170E1,-8.812998533E-1,2.168507725E-1,-6.334486008E-1
1.573514451E1,-9.035958052E-1,2.307475507E-1,-6.244385839E-1
1.574429737E1,-9.396358132E-1,2.344126403E-1,-5.899257660E-1
1.575345024E1,-9.836167693E-1,1.670667231E-1,-5.454866290E-1
1.576260310E1,-1.014159203E0,5.451811850E-2,-4.969242513E-1
1.577175597E1,-1.024696231E0,-2.794626169E-2,-4.627167881E-1
1.578090883E1,-1.020573020E0,-8.154810965E-2,-4.466820657E-1
1.579006164E1,-9.976662993E-1,-9.300149232E-2,-4.489727318E-1
1.579921451E1,-9.350544214E-1,-5.619794875E-2,-4.749337435E-1
1.580836737E1,-8.299887180E-1,-9.223793447E-2,-4.734066129E-1
1.581750748E1,-6.459710002E-1,-8.200624585E-2,-4.068242610E-1
1.582667310E1,-3.912476599E-1,-1.252236869E-2,-3.006895781E-1
1.583582597E1,-1.061347127E-1,-1.385096163E-1,-1.391204596E-1
1.584496607E1,2.469350100E-1,-4.301891923E-1,5.467082933E-2
1.585413170E1,6.981984377E-1,-8.064711094E-1,2.480039895E-1
1.586328451E1,1.192831993E0,-1.186570764E0,4.043808877E-1
1.587242466E1,1.666085839E0,-1.470003963E0,4.660764635E-1
1.588159024E1,2.106353998E0,-1.552010179E0,4.233171642E-1
1.589074315E1,2.506000996E0,-1.398534775E0,3.484883606E-1
1.589988321E1,2.792182922E0,-1.034927964E0,3.026748300E-1
1.590904883E1,2.932524920E0,-6.122216582E-1,3.326063454E-1
1.591820170E1,2.977269650E0,-5.664080977E-1,4.526378214E-1
1.592734180E1,2.960776567E0,-9.066500664E-1,6.688777208E-1
1.593650742E1,2.929928780E0,-1.371046662E0,9.254335761E-1
1.594566029E1,2.924889326E0,-1.746106863E0,1.149919987E0
1.595480039E1,2.924125910E0,-1.774511337E0,1.273769259E0
1.596396602E1,3.003841400E0,-2.024958611E0,1.294690728E0
1.597311883E1,3.113946676E0,-2.128649950E0,1.258345366E0
1.598227170E1,3.100660801E0,-1.981283069E0,1.194511771E0
1.599142456E1,3.037896156E0,-1.878049850E0,1.103037477E0
1.600057742E1,2.965205193E0,-1.868123651E0,1.045770526E0
1.600971753E1,2.940465927E0,-1.906301618E0,1.018740535E0
1.601888315E1,2.927485466E0,-1.951656938E0,9.588775039E-1
1.602803602E1,2.871134758E0,-1.821699262E0,7.782194018E-1
1.603718883E1,2.925500154E0,-2.185764313E0,7.470661998E-1
1.604634170E1,2.998496532E0,-2.357259512E0,6.152759194E-1
1.605549456E1,3.020487070E0,-2.077949762E0,5.273138881E-1
1.606463466E1,3.016669273E0,-1.572626233E0,4.920374751E-1
1.607380029E1,2.960165739E0,-9.400939345E-1,4.588989913E-1
1.608295315E1,2.874341726E0,-3.480302393E-1,4.150707126E-1
1.609209326E1,2.769734144E0,7.956285775E-2,3.651339412E-1
1.610125888E1,2.638860226E0,3.261924386E-1,3.371876776E-1
1.611041175E1,2.491493225E0,3.888042867E-1,3.660502136E-1
1.611955180E1,2.351914644E0,3.147390485E-1,4.060607255E-1
1.612871742E1,2.257385969E0,1.438545287E-1,3.871244490E-1
1.613787029E1,2.197217703E0,-6.123743951E-2,3.356605768E-1
1.614701039E1,2.124068737E0,-2.504473627E-1,2.570139766E-1
1.615617602E1,2.014574289E0,-4.550811946E-1,1.782146841E-1
1.616532888E1,1.847813010E0,-6.678087711E-1,1.223221645E-1
1.617448175E1,1.644095421E0,-8.333483934E-1,9.895725548E-2
1.618363461E1,1.429077148E0,-9.168817401E-1,9.880454093E-2
1.619278748E1,1.246739268E0,-9.327637553E-1,9.620844573E-2
1.620194029E1,1.099983215E0,-9.173398614E-1,7.253811508E-2
1.621109315E1,9.402466416E-1,-8.883246183E-1,4.520269856E-2
1.622024602E1,7.637118101E-1,-8.440381885E-1,1.893626526E-2
1.622939888E1,5.638120174E-1,-7.992936373E-1,-1.985253580E-2
1.623855175E1,3.686463237E-1,-7.527165413E-1,-6.398624927E-2
1.624770461E1,1.801999360E-1,-6.797202826E-1,-1.044548824E-1
1.625685748E1,-8.551862091E-3,-5.764871240E-1,-1.320957243E-1
1.626601034E1,-1.948602796E-1,-4.196520746E-1,-1.414111406E-1
1.627516315E1,-3.849864900E-1,-2.396048307E-1,-1.337755471E-1
1.628431602E1,-6.006155610E-1,-1.169772521E-1,-1.067455560E-1
1.629346888E1,-8.273926377E-1,-4.428642802E-3,-7.910472155E-2
1.630262175E1,-1.010035992E0,1.430909634E-1,-4.138490185E-2
1.631176185E1,-1.132816195E0,2.767138183E-1,-4.428642802E-3
1.632092748E1,-1.221694469E0,3.370349705E-1,2.473931387E-2
1.633008034E1,-1.269340634E0,3.538332880E-1,4.581354558E-2
1.633923321E1,-1.291789293E0,4.268295169E-1,6.566607952E-2
1.634838607E1,-1.255443811E0,5.763344169E-1,7.375980914E-2
1.635753888E1,-1.006523609E0,8.086090684E-1,6.322269142E-2
1.636667899E1,-5.755708218E-1,1.156333804E0,3.176405653E-2
1.637584461E1,-8.643488586E-2,1.008050680E0,-2.382304333E-2
1.638499748E1,1.718007922E-1,-1.062874198E-1,1.345391124E-1
1.639413758E1,-1.601946950E-1,-9.240592122E-1,3.074088693E-1
1.640330321E1,-1.109451294E0,-2.681619525E-1,2.837385535E-1
1.641245607E1,-2.093220949E0,7.710419297E-1,4.353813827E-1
1.642159618E1,-2.257844210E0,1.340046167E0,7.024743557E-1
1.643076175E1,-1.894084692E0,1.566365123E0,7.959339619E-1
1.643991461E1,-1.525438309E0,1.283237338E0,6.636855602E-1
1.644905472E1,-1.324011445E0,4.268295169E-1,5.815265775E-1
1.645822034E1,-1.371504784E0,-5.650337040E-2,5.686988235E-1
1.646737321E1,-1.539335132E0,-2.351761907E-1,5.554128885E-1
1.647651331E1,-1.674943209E0,-5.700731874E-1,5.028799772E-1
1.648567894E1,-1.719687700E0,-9.113841057E-1,4.440859556E-1
1.649483180E1,-1.705485582E0,-9.820896983E-1,4.271349311E-1
1.650398461E1,-1.674485087E0,-8.741224408E-1,4.401154518E-1
1.651313748E1,-1.644858956E0,-7.711946368E-1,3.889569938E-1
1.652229034E1,-1.572931647E0,-6.937697530E-1,2.721324563E-1
1.653143050E1,-1.467407823E0,-5.916055441E-1,1.415638477E-1
1.654059607E1,-1.373948216E0,-3.683409095E-1,3.100049868E-2
1.654974894E1,-1.303853512E0,-8.964183182E-2,-7.009471953E-2
1.655890180E1,-1.272547603E0,1.933331639E-1,-1.763821393E-1
1.656805467E1,-1.270562291E0,4.424061179E-1,-2.883199155E-1
1.657720753E1,-1.264606595E0,6.491779089E-1,-3.939964771E-1
1.658636039E1,-1.250862479E0,8.773293495E-1,-4.613423944E-1
1.659551321E1,-1.249488115E0,1.147323847E0,-4.712686539E-1
1.660466607E1,-1.239103675E0,1.407239318E0,-4.304946065E-1
1.661381894E1,-1.214517117E0,1.532768488E0,-3.704788685E-1
1.662297180E1,-1.194664478E0,1.563768983E0,-3.203893900E-1
1.663212461E1,-1.178018928E0,1.626533508E0,-2.951919436E-1
1.664127748E1,-1.147018433E0,1.663947940E0,-2.889307439E-1
1.665043034E1,-1.105786204E0,1.610498786E0,-2.959555089E-1
1.665958321E1,-1.067455530E0,1.604390383E0,-2.987042964E-1
1.666873612E1,-1.062110662E0,1.617065430E0,-2.950392365E-1
1.667788894E1,-1.077076435E0,1.635696292E0,-2.993151546E-1
1.668704180E1,-1.109298587E0,1.665169597E0,-3.222219348E-1
1.669619466E1,-1.117239594E0,1.602405071E0,-3.374931216E-1
1.670534753E1,-1.094943762E0,1.508945465E0,-3.342861533E-1
1.671450039E1,-1.080283403E0,1.407697558E0,-3.523061574E-1
1.672365321E1,-1.091889501E0,1.267202616E0,-3.755183518E-1
1.673280612E1,-1.098608851E0,1.121362805E0,-3.956763148E-1
1.674195894E1,-1.089598775E0,1.082726717E0,-4.187358022E-1
1.675111180E1,-1.057071209E0,1.112810969E0,-4.369085133E-1
1.676026466E1,-1.029583097E0,1.147629261E0,-4.532486796E-1
1.676941753E1,-1.016907930E0,1.112658262E0,-4.671454430E-1
1.677857039E1,-1.052642584E0,1.057223916E0,-4.764608741E-1
1.678772321E1,-1.083032131E0,1.073411345E0,-4.804313779E-1
1.679687607E1,-1.067608237E0,1.218029380E0,-4.761554301E-1
1.680602894E1,-1.004080176E0,1.341115117E0,-4.744756222E-1
1.681518180E1,-9.623898268E-1,1.373642802E0,-4.834856093E-1
1.682433467E1,-1.021031141E0,1.340962410E0,-5.198310018E-1
1.683348753E1,-1.104717255E0,1.249029875E0,-5.569399595E-1
1.684264039E1,-1.118308663E0,1.188708782E0,-5.558710098E-1
1.685179326E1,-1.102732062E0,1.169619799E0,-5.306735635E-1
1.686094612E1,-1.094943762E0,1.180462360E0,-5.160132051E-1
1.687009894E1,-1.111436605E0,1.102732062E0,-5.270084739E-1
1.687925180E1,-1.145491362E0,9.072608948E-1,-5.424323678E-1
1.688840466E1,-1.153585076E0,7.904363275E-1,-5.503733754E-1
1.689755753E1,-1.154043198E0,7.824953198E-1,-5.583143830E-1
1.690671039E1,-1.136939406E0,7.385143638E-1,-5.781669021E-1
1.691586321E1,-1.111589313E0,5.920637250E-1,-5.870242119E-1
1.692501612E1,-1.113879919E0,3.594835997E-1,-5.764871240E-1
1.693416899E1,-1.103495598E0,8.002099395E-2,-5.555655956E-1
1.694332180E1,-1.069593549E0,-1.435490996E-1,-5.422796607E-1
1.695247466E1,-1.033553600E0,-2.530434728E-1,-5.376983285E-1
1.696162753E1,-1.002247691E0,-2.970244884E-1,-5.380037427E-1
1.697076763E1,-9.623898268E-1,-2.747285664E-1,-5.511369109E-1
1.697993326E1,-9.150491953E-1,-1.789782494E-1,-5.723638535E-1
1.698908607E1,-8.687775135E-1,4.520269856E-2,-5.996993184E-1
1.699822618E1,-8.225058317E-1,2.501419485E-1,-6.134433746E-1
1.700739180E1,-7.609629631E-1,3.046600819E-1,-5.667135715E-1
1.701654466E1,-6.386408210E-1,2.244863659E-1,-4.656183124E-1
1.702568477E1,-4.343124032E-1,8.307522535E-2,-3.767400384E-1
1.703485039E1,-2.089097649E-1,-7.360709459E-2,-2.944283783E-1
1.704400326E1,1.084253844E-2,-2.325800955E-1,-1.811162084E-1
1.705315607E1,2.757975459E-1,-4.149180055E-1,-6.184828654E-2
1.706230894E1,6.197045445E-1,-6.694886088E-1,4.031591862E-2
1.707146180E1,1.011104941E0,-9.872818589E-1,1.262926757E-1
1.708060190E1,1.421136141E0,-1.247808218E0,1.873773932E-1
1.708976753E1,1.827960372E0,-1.379751205E0,2.008160353E-1
1.709892039E1,2.182709932E0,-1.326454878E0,1.490467340E-1
1.710806050E1,2.439571142E0,-1.061652541E0,6.994201243E-2
1.711722612E1,2.591977596E0,-5.932853818E-1,4.871506989E-2
1.712637894E1,2.670013428E0,-2.620534599E-1,1.522536725E-1
1.713551904E1,2.708343983E0,-3.605526090E-1,3.578037918E-1
1.714468466E1,2.686964273E0,-7.379034758E-1,6.436802745E-1
1.715383753E1,2.620382071E0,-1.165191174E0,9.610154629E-1
1.716297763E1,2.559755325E0,-1.557049632E0,1.251473308E0
1.717214326E1,2.577470064E0,-1.896222591E0,1.448471546E0
1.718129612E1,2.679939747E0,-2.157207012E0,1.520246148E0
1.719044894E1,2.792793751E0,-2.305948496E0,1.498561025E0
1.719960185E1,2.860597610E0,-2.420024157E0,1.439308882E0
1.720875466E1,2.873578310E0,-2.587243557E0,1.358829737E0
1.721789477E1,2.849297047E0,-2.729265451E0,1.258039951E0
1.722706039E1,2.796916962E0,-2.803483486E0,1.113116384E0
1.723621326E1,2.742398739E0,-2.810966492E0,9.142856598E-1
1.724535336E1,2.722851753E0,-2.733388662E0,6.887302995E-1
1.725451894E1,2.741635323E0,-2.458202124E0,4.993676245E-1
1.726367180E1,2.797833204E0,-1.993347287E0,3.778090179E-1
1.727281196E1,2.853420258E0,-1.439156175E0,3.321481943E-1
1.728197753E1,2.847922564E0,-8.021951914E-1,3.168770075E-1
1.729113039E1,2.779355049E0,-2.118112892E-1,3.000787199E-1
1.730028326E1,2.653825998E0,1.777565479E-1,2.786990702E-1
1.730943612E1,2.498365402E0,4.059080184E-1,2.756448388E-1
1.731858894E1,2.330534935E0,5.027272701E-1,2.780882120E-1
1.732772904E1,2.198439360E0,4.549284875E-1,2.753393948E-1
1.733689467E1,2.147738934E0,2.799207568E-1,2.422009408E-1
1.734604753E1,2.153236628E0,5.008947477E-2,1.618745178E-1
1.735520039E1,2.138423443E0,-1.853921413E-1,7.330167294E-2
1.736435326E1,2.079934835E0,-3.804051280E-1,3.359660041E-3
1.737350612E1,1.979908705E0,-5.332696438E-1,-4.718795046E-2
1.738265899E1,1.853615999E0,-6.708629727E-1,-8.032641560E-2
1.739181185E1,1.694184899E0,-7.580614686E-1,-9.620844573E-2
1.740096466E1,1.511999726E0,-7.896727920E-1,-9.620844573E-2
1.741011753E1,1.309809208E0,-7.905890942E-1,-1.000262350E-1
1.741927039E1,1.099525094E0,-7.728744745E-1,-1.101052165E-1
1.742842326E1,8.871029615E-1,-7.189671993E-1,-1.165191159E-1
1.743757612E1,7.111788988E-1,-6.380299330E-1,-1.178935245E-1
1.744672894E1,5.528167486E-1,-5.551074743E-1,-1.324011385E-1
1.745588185E1,3.981196880E-1,-4.789042473E-1,-1.525591016E-1
1.746503472E1,2.371614426E-1,-3.810159862E-1,-1.831014603E-1
1.747418753E1,7.742489129E-2,-2.916795611E-1,-2.092151791E-1
1.748334039E1,-8.475505561E-2,-2.093679011E-1,-2.226538211E-1
1.749249326E1,-2.412846684E-1,-1.469087601E-1,-2.165453583E-1
1.750164612E1,-3.810159862E-1,-1.127013192E-1,-1.869192570E-1
1.751079894E1,-5.111264586E-1,-4.642439261E-2,-1.440072358E-1
1.751995180E1,-6.410841942E-1,5.070032179E-2,-8.567132801E-2
1.752910467E1,-7.514948249E-1,1.036913246E-1,-3.344388679E-2
1.753825753E1,-8.263236284E-1,1.175880954E-1,3.359660041E-3
1.754739763E1,-8.687775135E-1,1.572931707E-1,2.748812735E-2
1.755656326E1,-9.055810571E-1,2.020377368E-1,5.039490014E-2
1.756571607E1,-9.304730892E-1,2.194468826E-1,6.352811307E-2
1.757485623E1,-8.026533127E-1,2.750339806E-1,6.077930331E-2
1.758402180E1,-4.347705245E-1,5.480827093E-1,5.528167635E-2
1.759317472E1,-4.230117425E-2,1.019809484E0,2.580829710E-2
1.760232753E1,4.138490185E-2,1.048061132E0,1.241547018E-1
1.761148039E1,-2.615953386E-1,4.234698713E-1,1.805053651E-1
1.762063326E1,-8.945857882E-1,-2.890834510E-1,6.902574003E-2
1.762978612E1,-1.730835676E0,-4.083513916E-1,1.188097894E-1
1.763893894E1,-1.986322522E0,-9.651386738E-2,4.483618736E-1
1.764809180E1,-1.589271903E0,6.804838181E-1,8.206732869E-1
1.765723190E1,-1.449693203E0,1.815590739E0,8.861866593E-1
1.766639753E1,-1.635390878E0,1.930888176E0,6.795675755E-1
1.767555039E1,-1.524980187E0,1.098150611E0,4.714213610E-1
1.768470326E1,-1.349972486E0,1.049130186E-1,3.658975065E-1
1.769385612E1,-1.381583810E0,-5.688515306E-1,3.881934285E-1
1.770300894E1,-1.517039180E0,-7.539382577E-1,4.362976551E-1
1.771216185E1,-1.531088710E0,-8.382351398E-1,4.398100376E-1
1.772131466E1,-1.463131905E0,-9.254335761E-1,4.428642690E-1
1.773046753E1,-1.426175594E0,-8.693883419E-1,4.625640810E-1
1.773960763E1,-1.416249394E0,-7.182036638E-1,4.314108789E-1
1.774877326E1,-1.418387294E0,-5.523586273E-1,3.190149665E-1
1.775792607E1,-1.406781197E0,-3.408527672E-1,1.606528312E-1
1.776707894E1,-1.399451017E0,-4.840964451E-2,9.162709117E-3
1.777623185E1,-1.398992896E0,2.391466945E-1,-1.131594554E-1
1.778538467E1,-1.410446286E0,4.569137394E-1,-2.147128135E-1
1.779453753E1,-1.430757046E0,6.319214702E-1,-3.023693860E-1
1.780369039E1,-1.453511000E0,8.003626466E-1,-3.649812341E-1
1.781284321E1,-1.480235577E0,9.724688530E-1,-3.854446113E-1
1.782199607E1,-1.507876515E0,1.174353838E0,-3.680354655E-1
1.783114894E1,-1.556133389E0,1.393189907E0,-3.318427801E-1
1.784030180E1,-1.581483603E0,1.508945465E0,-3.046600819E-1
1.784945466E1,-1.583926916E0,1.588508248E0,-2.938175201E-1
1.785860753E1,-1.585454106E0,1.681967974E0,-2.889307439E-1
1.786776039E1,-1.589119196E0,1.690977931E0,-2.964136302E-1
1.787691321E1,-1.593395114E0,1.614927411E0,-3.249707520E-1
1.788606607E1,-1.586981177E0,1.544221878E0,-3.689517379E-1
1.789521894E1,-1.593547821E0,1.544069171E0,-4.239279926E-1
1.790437180E1,-1.624701023E0,1.611873150E0,-4.778352678E-1
1.791352466E1,-1.687770963E0,1.629740477E0,-5.021164417E-1
1.792267753E1,-1.720909476E0,1.559187651E0,-4.993676245E-1
1.793183034E1,-1.724421859E0,1.515359282E0,-4.724903405E-1
1.794098321E1,-1.734806180E0,1.498561025E0,-4.407263100E-1
1.795013607E1,-1.742136359E0,1.496728539E0,-4.529432356E-1
1.795928894E1,-1.745343328E0,1.506807446E0,-4.640912116E-1
1.796844180E1,-1.745801449E0,1.476265073E0,-4.450022280E-1
1.797759466E1,-1.730530262E0,1.423274159E0,-4.283566475E-1
1.798674753E1,-1.742899895E0,1.425717473E0,-4.211791754E-1
1.799590034E1,-1.753742456E0,1.460688472E0,-4.231644273E-1
1.800505321E1,-1.699987888E0,1.476265073E0,-4.563029110E-1
1.801420607E1,-1.662420869E0,1.566517830E0,-5.196782947E-1
1.802335894E1,-1.647149682E0,1.614469290E0,-5.922164321E-1
1.803251180E1,-1.594922185E0,1.604084849E0,-6.578825116E-1
1.804166467E1,-1.531394124E0,1.556286097E0,-7.128587365E-1
1.805081748E1,-1.464353561E0,1.512305140E0,-7.569924593E-1
1.805997034E1,-1.387844920E0,1.592936993E0,-7.944068313E-1
1.806912321E1,-1.308434844E0,1.752673507E0,-8.202151656E-1
1.807827607E1,-1.214211583E0,1.844453335E0,-8.147175312E-1
1.808742894E1,-1.128998399E0,1.750077367E0,-7.921161652E-1
1.809658180E1,-1.103648305E0,1.506807446E0,-7.598940134E-1
1.810573466E1,-1.133885264E0,1.229635477E0,-7.250757217E-1
1.811488748E1,-1.116170645E0,1.020725727E0,-6.998782754E-1
1.812404039E1,-1.052337170E0,8.238802552E-1,-6.748335361E-1
1.813319321E1,-9.703308940E-1,6.053496599E-1,-6.368082762E-1
1.814234607E1,-8.640434742E-1,4.111002088E-1,-5.864133835E-1
1.815149894E1,-7.519529462E-1,1.824906170E-1,-5.262449384E-1
1.816065175E1,-6.757497787E-1,-1.003316641E-1,-4.645493329E-1
1.816980461E1,-6.300889254E-1,-3.442124426E-1,-4.040754735E-1
1.817895748E1,-5.934380889E-1,-4.811949134E-1,-3.524588645E-1
1.818811034E1,-5.427377820E-1,-5.708367825E-1,-3.190149665E-1
1.819726321E1,-4.740174711E-1,-6.218425035E-1,-2.983988822E-1
1.820641607E1,-3.846810758E-1,-6.216897964E-1,-2.892361879E-1
1.821556888E1,-2.658712566E-1,-6.184828281E-1,-2.809897363E-1
1.822472175E1,-1.137702987E-1,-6.609367132E-1,-2.750339806E-1
1.823387461E1,5.680879578E-2,-6.491779089E-1,-2.793098986E-1
1.824302748E1,2.232646793E-1,-5.893148780E-1,-2.727433145E-1
1.825218034E1,3.691044450E-1,-5.673243999E-1,-2.472404242E-1
1.826132045E1,5.193728805E-1,-5.633538961E-1,-2.113531530E-1
1.827048602E1,7.062921524E-1,-5.548020005E-1,-1.294996142E-1
1.827963888E1,9.541434050E-1,-5.635066032E-1,2.122694254E-2
1.828879175E1,1.246281147E0,-6.420004964E-1,1.901262105E-1
1.829794461E1,1.523911238E0,-8.710681796E-1,3.228327632E-1
1.830709748E1,1.754505992E0,-1.176186442E0,3.735330999E-1
1.831623758E1,1.975327373E0,-1.333174109E0,3.507790267E-1
1.832540315E1,2.167133331E0,-1.254527569E0,3.277195692E-1
1.833455602E1,2.275253296E0,-9.649859667E-1,3.680354655E-1
1.834369612E1,2.309613466E0,-7.215633392E-1,4.889832437E-1
1.835286175E1,2.278307676E0,-7.307260633E-1,6.407787800E-1
1.836201461E1,2.267770529E0,-1.029583097E0,8.191461563E-1
1.837115472E1,2.368712902E0,-1.518566251E0,1.027903199E0
1.838032034E1,2.578844309E0,-2.020071983E0,1.211768270E0
1.838947321E1,2.821961641E0,-2.307933569E0,1.307671309E0
1.839862602E1,2.987195730E0,-2.301672459E0,1.293469071E0
1.840777888E1,3.012851477E0,-2.170493126E0,1.220320106E0
1.841693175E1,2.986126900E0,-2.116585732E0,1.137092113E0
1.842607185E1,2.991777182E0,-2.214626789E0,1.045006990E0
1.843523742E1,2.993151665E0,-2.389787197E0,9.388722181E-1
1.844439029E1,2.946269035E0,-2.466906548E0,8.177717924E-1
1.845353039E1,2.873425484E0,-2.342751980E0,7.078192830E-1
1.846269602E1,2.813867807E0,-2.024958611E0,6.051968932E-1
1.847184888E1,2.782103777E0,-1.479930162E0,5.361711979E-1
1.848098899E1,2.779965878E0,-8.780929446E-1,5.167768002E-1
1.849015461E1,2.792488337E0,-4.104893506E-1,5.195255876E-1
1.849930742E1,2.792182922E0,-9.636115283E-2,5.102101564E-1
1.850846029E1,2.770650387E0,5.589252338E-2,4.805840850E-1
1.851761315E1,2.735068560E0,1.267508119E-1,4.375193417E-1
1.852676602E1,2.670318842E0,2.090624720E-1,4.132381678E-1
1.853590612E1,2.573346853E0,2.353289127E-1,3.880407214E-1
1.854507175E1,2.486300945E0,2.024958730E-1,3.405473530E-1
1.855422456E1,2.418191671E0,1.418692768E-1,2.619007528E-1
1.856336466E1,2.354205370E0,2.870982140E-2,1.803526580E-1
1.857253029E1,2.270519257E0,-1.722589284E-1,1.255291104E-1
1.858168315E1,2.165606260E0,-4.167505503E-1,9.132166207E-2
1.859083602E1,2.056264639E0,-6.508577466E-1,5.283828825E-2
1.859998888E1,1.942188859E0,-8.426637650E-1,2.107422985E-2
1.860914170E1,1.790546060E0,-9.630007148E-1,5.497625098E-3
1.861829456E1,1.604390383E0,-1.032637239E0,2.443389036E-3
1.862744742E1,1.401894450E0,-1.060125470E0,-8.857285604E-3
1.863660029E1,1.199704051E0,-1.064095974E0,-2.916795574E-2
1.864575315E1,9.973608851E-1,-1.030652046E0,-4.886778072E-2
1.865490602E1,8.000571728E-1,-9.468132257E-1,-6.994201243E-2
1.866405883E1,6.013791561E-1,-8.405258060E-1,-9.513945878E-2
1.867321170E1,4.202629030E-1,-7.673768401E-1,-1.117850468E-1
1.868236456E1,2.388412803E-1,-7.304205894E-1,-1.339282542E-1
1.869151742E1,3.909422457E-2,-7.151494026E-1,-1.676775664E-1
1.870067029E1,-1.827960461E-1,-6.397097707E-1,-1.870719790E-1
1.870982315E1,-4.204156399E-1,-4.737120569E-1,-1.754658818E-1
1.871897597E1,-6.545228362E-1,-2.171562016E-1,-1.345391124E-1
1.872811607E1,-8.623636365E-1,1.177408099E-1,-7.696675509E-2
1.873728170E1,-1.029124975E0,4.685198367E-1,3.970507067E-3
1.874643456E1,-1.144422293E0,7.018635273E-1,8.002099395E-2
1.875558742E1,-1.219251156E0,7.157602906E-1,1.259872466E-1
1.876474029E1,-1.261399627E0,5.832064152E-1,1.605001241E-1
1.877389310E1,-1.298661232E0,4.436278343E-1,2.037175596E-1
1.878304597E1,-1.392426372E0,5.068505406E-1,2.420482337E-1
1.879219883E1,-1.485122442E0,8.362498879E-1,2.003578991E-1
1.880135170E1,-1.355164647E0,1.419609070E0,4.260659590E-2
1.881049180E1,-1.002247691E0,1.477944970E0,-1.620272398E-1
1.881965743E1,-6.690304875E-1,1.934858710E-1,-4.321744293E-2
1.882881024E1,-7.360709310E-1,-8.828269839E-1,2.617480457E-1
1.883795034E1,-1.385554314E0,-1.288887709E-1,5.430431962E-1
1.884711597E1,-2.294800520E0,1.789935231E0,8.026533127E-1
1.885626883E1,-2.416511774E0,2.383220673E0,6.438329816E-1
1.886540894E1,-1.933637023E0,1.523453116E0,3.315373361E-1
1.887457456E1,-1.501920700E0,5.412106514E-1,2.956500649E-1
1.888372737E1,-1.345543742E0,1.771457046E-1,5.228852630E-1
1.889286748E1,-1.528339863E0,4.114056230E-1,6.827745438E-1
1.890203310E1,-1.753895164E0,2.053973973E-1,6.531484127E-1
1.891118597E1,-1.703500271E0,-6.003101468E-1,4.886777997E-1
1.892033883E1,-1.511083364E0,-1.293774486E0,2.950392365E-1
1.892949164E1,-1.432589531E0,-1.398382068E0,1.679829955E-1
1.893864451E1,-1.412126184E0,-1.169619799E0,8.979454637E-2
1.894778461E1,-1.366923451E0,-9.187142849E-1,-1.191152167E-2
1.895695024E1,-1.299424887E0,-6.291726828E-1,-1.349972486E-1
1.896610310E1,-1.280641317E0,-2.457133085E-1,-2.444916219E-1
1.897524321E1,-1.278503299E0,1.782146841E-1,-3.413109183E-1
1.898440878E1,-1.268882513E0,5.931326747E-1,-4.257605374E-1
1.899356164E1,-1.259719729E0,9.784246087E-1,-4.863871336E-1
1.900271451E1,-1.288887739E0,1.287513256E0,-5.173876286E-1
1.901186737E1,-1.340962410E0,1.467560530E0,-5.131117105E-1
1.902102024E1,-1.395022392E0,1.570641041E0,-4.822639227E-1
1.903016034E1,-1.404185176E0,1.609429836E0,-4.378247857E-1
1.903932592E1,-1.366465330E0,1.630198598E0,-3.782671690E-1
1.904847878E1,-1.310572743E0,1.567739487E0,-3.303156495E-1
1.905763164E1,-1.251626015E0,1.433047652E0,-3.022166789E-1
1.906678451E1,-1.241394401E0,1.325233102E0,-2.832804024E-1
1.907593737E1,-1.260788798E0,1.292094707E0,-2.918322682E-1
1.908509024E1,-1.273463845E0,1.342947721E0,-3.292466700E-1
1.909424305E1,-1.282321095E0,1.386165142E0,-3.758237660E-1
1.910339592E1,-1.276670814E0,1.324011445E0,-4.202629030E-1
1.911254878E1,-1.287513256E0,1.240630746E0,-4.569137394E-1
1.912170164E1,-1.319430113E0,1.244143128E0,-4.778352678E-1
1.913085451E1,-1.336381078E0,1.269493341E0,-4.824166298E-1
1.914000737E1,-1.331036210E0,1.296523333E0,-4.804313779E-1
1.914916018E1,-1.325538516E0,1.313932419E0,-4.993676245E-1
1.915831305E1,-1.304922462E0,1.291025639E0,-5.370874405E-1
1.916746592E1,-1.267202616E0,1.246891975E0,-5.770979524E-1
1.917661878E1,-1.220930934E0,1.175728321E0,-5.986303091E-1
1.918577164E1,-1.181684017E0,1.143200636E0,-6.172611713E-1
1.919492446E1,-1.153279662E0,1.149156451E0,-6.433748603E-1
1.920407732E1,-1.141520858E0,1.167787194E0,-6.743753552E-1
1.921323018E1,-1.143964171E0,1.254985690E0,-7.276718020E-1
1.922238305E1,-1.156944752E0,1.416860223E0,-7.773031592E-1
1.923153592E1,-1.177408099E0,1.520856977E0,-8.098307252E-1
1.924068878E1,-1.176186442E0,1.601030707E0,-8.264763355E-1
1.924984164E1,-1.164122105E0,1.637070656E0,-8.397622705E-1
1.925899446E1,-1.165343881E0,1.635848999E0,-8.417475224E-1
1.926814732E1,-1.162442327E0,1.640888453E0,-8.196043372E-1
1.927730018E1,-1.146713018E0,1.584843159E0,-7.950177193E-1
1.928645305E1,-1.100135922E0,1.476570487E0,-7.727217674E-1
1.929560592E1,-1.038745761E0,1.339435339E0,-7.427902818E-1
1.930475873E1,-9.981244206E-1,1.183516622E0,-7.009472251E-1
1.931391159E1,-1.010646820E0,9.956810474E-1,-6.581879258E-1
1.932306446E1,-1.077381849E0,8.414421082E-1,-6.291726828E-1
1.933221732E1,-1.124569774E0,7.383615971E-1,-6.111527085E-1
1.934137019E1,-1.108229637E0,6.421532035E-1,-5.992411375E-1
1.935052305E1,-1.084559321E0,5.169295073E-1,-5.758762360E-1
1.935967586E1,-1.077992678E0,3.258870244E-1,-5.555655956E-1
1.936882873E1,-1.068677306E0,9.575030953E-2,-5.369347334E-1
1.937798159E1,-1.055849433E0,-1.041494608E-1,-5.129590034E-1
1.938713446E1,-1.036302328E0,-2.264716178E-1,-5.034908652E-1
1.939628732E1,-9.956810474E-1,-2.318165302E-1,-4.921901822E-1
1.940544018E1,-9.194778204E-1,-1.357607991E-1,-4.656183124E-1
1.941458029E1,-8.052493930E-1,8.704573847E-3,-4.117110670E-1
1.942374586E1,-6.517740488E-1,1.261399537E-1,-3.472666740E-1
1.943289873E1,-4.465293586E-1,1.779092699E-1,-2.987042964E-1
1.944203883E1,-1.834068894E-1,6.826218218E-2,-2.223484069E-1
1.945120446E1,1.495048702E-1,-9.239064902E-2,-1.563768983E-1
1.946035732E1,4.967715442E-1,-2.284568697E-1,-1.036913246E-1
1.946951013E1,7.966975570E-1,-3.884988427E-1,2.901524538E-3
1.947866305E1,1.050504565E0,-5.809157491E-1,1.568350345E-1
1.948781586E1,1.307213187E0,-8.305995464E-1,3.158080280E-1
1.949696873E1,1.582552552E0,-1.068219185E0,4.370612204E-1
1.950612159E1,1.901567459E0,-1.286902428E0,5.010474920E-1
1.951527440E1,2.260440350E0,-1.441141367E0,5.019637346E-1
1.952441451E1,2.528449535E0,-1.408919215E0,4.873034060E-1
1.953358013E1,2.685742617E0,-1.172826767E0,5.175403357E-1
1.954273300E1,2.782562017E0,-1.001331329E0,5.938962698E-1
1.955187310E1,2.813715219E0,-1.015838981E0,7.119424939E-1
1.956103873E1,2.779660463E0,-1.147934675E0,8.767185211E-1
1.957019154E1,2.740108013E0,-1.308587551E0,1.082879424E0
1.957933164E1,2.755837440E0,-1.513832211E0,1.291942000E0
1.958849727E1,2.830666304E0,-1.747481346E0,1.448318839E0
1.959765013E1,2.925500154E0,-1.908592224E0,1.513832211E0
1.960680300E1,2.985363245E0,-1.988613248E0,1.518718958E0
1.961595581E1,2.973604441E0,-2.057333469E0,1.514901161E0
1.962510868E1,2.928401709E0,-2.240587711E0,1.502531528E0
1.963424883E1,2.882130146E0,-2.483246803E0,1.437018156E0
1.964341440E1,2.822572470E0,-2.648328304E0,1.290872931E0
1.965256727E1,2.769581556E0,-2.699792147E0,1.096928954E0
1.966170737E1,2.728807449E0,-2.656727552E0,8.962656260E-1
1.967087295E1,2.680550575E0,-2.488286257E0,7.096518278E-1
1.968002581E1,2.655047655E0,-2.190345526E0,5.920637250E-1
1.968916597E1,2.637333155E0,-1.641041160E0,5.719057322E-1
1.969833154E1,2.527991295E0,-7.406523228E-1,6.455128193E-1
1.970748440E1,2.383984089E0,1.104106456E-1,7.171346545E-1
1.971663722E1,2.400476933E0,2.539597452E-1,7.331694365E-1
1.972579008E1,2.464768648E0,1.504211426E-1,7.482879162E-1
1.973494295E1,2.323204756E0,3.855973184E-1,8.289197087E-1
1.974408305E1,2.388260126E0,-1.285833418E-1,6.392516494E-1
1.975324868E1,2.465074062E0,-6.945333481E-1,4.173613787E-1
1.976240154E1,2.179808378E0,-3.648285270E-1,4.114056230E-1
1.977154164E1,2.046185493E0,-4.480564594E-1,4.318690002E-1
1.978070727E1,2.079324007E0,-9.037485123E-1,3.775036037E-1
1.978986008E1,2.021446228E0,-1.142284393E0,2.899997234E-1
1.979900018E1,1.848881960E0,-1.131899953E0,2.576248348E-1
1.980816581E1,1.693268657E0,-1.144269586E0,2.284568697E-1
1.981731868E1,1.535059214E0,-1.173437595E0,2.070772201E-1
1.982647149E1,1.365701795E0,-1.181684017E0,1.870719790E-1
1.983562435E1,1.188097954E0,-1.161526084E0,1.667613089E-1
1.984477722E1,1.011868477E0,-1.094485521E0,1.466033459E-1
1.985393008E1,8.263236284E-1,-1.003774762E0,1.299577504E-1
1.986308295E1,6.534538269E-1,-8.950439692E-1,1.078145429E-1
1.987223576E1,5.012001991E-1,-7.525638342E-1,8.597674966E-2
1.988138868E1,3.408527672E-1,-5.764871240E-1,5.848862603E-2
1.989054149E1,1.685938388E-1,-3.930802047E-1,1.679829881E-2
1.989969435E1,6.566607859E-3,-2.338017821E-1,-2.901524492E-2
1.990884722E1,-1.516428292E-1,-1.021642014E-1,-6.200099736E-2
1.991800003E1,-3.180987239E-1,3.008422814E-2,-7.421794534E-2
1.992715295E1,-4.986040890E-1,1.637070626E-1,-5.909947306E-2
1.993630581E1,-6.742226481E-1,2.809897363E-1,-3.176405653E-2
1.994545862E1,-8.377770185E-1,3.651339412E-1,-5.497625098E-3
1.995461149E1,-9.952229261E-1,3.946073353E-1,2.260134928E-2
1.996376435E1,-1.130983710E0,3.293993771E-1,3.817795217E-2
1.997291717E1,-1.252236843E0,2.328855246E-1,6.551336497E-2
1.998207008E1,-1.381431103E0,1.719534993E-1,1.014006436E-1
1.999121013E1,-1.521925926E0,1.644706279E-1,1.272089481E-1
2.000037576E1,-1.654021621E0,2.389939874E-1,1.372879148E-1
2.000952862E1,-1.714342833E0,3.804051280E-1,1.067455560E-1
2.001866873E1,-1.500240922E0,6.542174220E-1,5.925218388E-2
2.002783435E1,-9.860602021E-1,1.172368646E0,-2.290677279E-3
2.003698717E1,-4.161396921E-1,1.492452621E0,-4.672981426E-2
2.004612727E1,-2.973299026E-1,9.802571535E-1,4.917320609E-2
2.005529289E1,-4.511106908E-1,-2.809897438E-2,5.314370990E-2
2.006444576E1,-1.064706802E0,-4.834856093E-1,4.169032723E-2
2.007358581E1,-1.823837161E0,-3.283303976E-2,1.887518018E-1
2.008275144E1,-1.681357026E0,2.266243398E-1,3.629959822E-1
2.009190430E1,-1.385859728E0,3.953709006E-1,5.505260825E-1
2.010104440E1,-1.528797984E0,9.713998437E-1,6.100836992E-1
2.011021003E1,-1.805359125E0,1.112505555E0,6.056550741E-1
2.011936289E1,-1.946922898E0,8.176190853E-1,5.767925382E-1
2.012850300E1,-1.906912446E0,2.721324563E-1,5.323534012E-1
2.013766857E1,-1.753437042E0,-3.112266660E-1,4.514161348E-1
2.014682144E1,-1.622410297E0,-7.821899056E-1,3.585673273E-1
2.015596154E1,-1.532310367E0,-1.057376623E0,3.203893900E-1
2.016512711E1,-1.447555304E0,-1.114490867E0,3.307738006E-1
2.017427998E1,-1.395938754E0,-9.426900148E-1,3.229855001E-1
2.018342008E1,-1.372421026E0,-6.386408210E-1,2.533488870E-1
2.019258571E1,-1.380056620E0,-2.968717813E-1,1.548497826E-1
2.020173857E1,-1.405864954E0,9.086353332E-2,5.543438718E-2
2.021089138E1,-1.403727055E0,5.227325559E-1,-1.939439960E-2
2.022004425E1,-1.397771239E0,9.202414155E-1,-7.207997888E-2
2.022919711E1,-1.413347840E0,1.223221660E0,-1.023169160E-1
2.023834998E1,-1.437323570E0,1.358066201E0,-1.148392856E-1
2.024750284E1,-1.458397865E0,1.368908763E0,-1.131594554E-1
2.025665571E1,-1.461146593E0,1.340656996E0,-1.058292910E-1
2.026580857E1,-1.438392639E0,1.338213682E0,-1.136175916E-1
2.027496138E1,-1.405559540E0,1.405559540E0,-1.482831687E-1
2.028411425E1,-1.348445296E0,1.443584800E0,-1.795890927E-1
2.029326711E1,-1.287055135E0,1.439767003E0,-2.304421216E-1
2.030241998E1,-1.238492846E0,1.417929173E0,-2.936648130E-1
2.031157279E1,-1.210393786E0,1.412278891E0,-3.576510847E-1
2.032072565E1,-1.210852027E0,1.427091956E0,-4.216373265E-1
2.032987852E1,-1.236812949E0,1.449693203E0,-4.865398407E-1
2.033903138E1,-1.286291599E0,1.433811188E0,-5.448757410E-1
2.034818420E1,-1.320346355E0,1.379445791E0,-5.720584393E-1
2.035733706E1,-1.351652265E0,1.385859728E0,-5.960342288E-1
2.036648998E1,-1.385096192E0,1.424190402E0,-6.323796511E-1
2.037564279E1,-1.419914484E0,1.464964390E0,-6.728482842E-1
2.038479565E1,-1.443432093E0,1.504058719E0,-7.030851841E-1
2.039394852E1,-1.446028233E0,1.584690452E0,-7.134696245E-1
2.040310133E1,-1.451525807E0,1.719076872E0,-6.965186000E-1
2.041225420E1,-1.466186166E0,1.825975180E0,-6.589514613E-1
2.042140706E1,-1.461757541E0,1.874843001E0,-6.449019909E-1
2.043055992E1,-1.441599488E0,1.901262045E0,-6.557445526E-1
2.043971274E1,-1.410140872E0,1.902483821E0,-6.762079000E-1
2.044886560E1,-1.358066201E0,1.872399569E0,-6.832326651E-1
2.045801847E1,-1.292858243E0,1.807497025E0,-6.772769094E-1
2.046717133E1,-1.200620294E0,1.700904250E0,-6.751389503E-1
2.047632420E1,-1.093416572E0,1.574000716E0,-6.817055345E-1
2.048547706E1,-9.973608851E-1,1.451067686E0,-7.090409398E-1
2.049462987E1,-8.993198872E-1,1.342031479E0,-7.540909648E-1
2.050378274E1,-8.034168482E-1,1.238492846E0,-7.698202729E-1
2.051293560E1,-7.463026643E-1,1.118003249E0,-7.612683773E-1
2.052208847E1,-7.408050299E-1,1.052489877E0,-7.514948249E-1
2.053124133E1,-7.750124335E-1,1.066233873E0,-7.389724851E-1
2.054039414E1,-8.212841153E-1,1.055544019E0,-7.038487792E-1
2.054954706E1,-8.215895891E-1,9.321529269E-1,-6.529957056E-1
2.055869987E1,-8.014315963E-1,7.365291119E-1,-6.168029904E-1
2.056785274E1,-8.134958148E-1,5.438067913E-1,-5.972558856E-1
2.057700560E1,-8.412894011E-1,4.129327536E-1,-5.795413256E-1
2.058615847E1,-8.805363178E-1,3.032856584E-1,-5.595360994E-1
2.059531128E1,-9.208522439E-1,1.899735034E-1,-5.427377820E-1
2.060446414E1,-9.494093657E-1,5.451811850E-2,-5.312843919E-1
2.061361701E1,-9.788827300E-1,-8.658760041E-2,-5.343386531E-1
2.062275711E1,-9.869764447E-1,-2.067717910E-1,-5.526640415E-1
2.063192274E1,-9.642223716E-1,-2.848075330E-1,-5.199837089E-1
2.064107560E1,-8.976400495E-1,-3.272614181E-1,-4.366030693E-1
2.065021565E1,-7.838697433E-1,-3.374931216E-1,-3.562766612E-1
2.065938128E1,-6.215370893E-1,-2.484621257E-1,-2.979407609E-1
2.066853409E1,-3.828485310E-1,-5.986303091E-2,-2.756448388E-1
2.067768696E1,-6.734590977E-2,6.306997687E-2,-2.325800955E-1
2.068683982E1,3.124483824E-1,4.275931045E-3,-1.565296054E-1
2.069599268E1,6.981984377E-1,-1.473668963E-1,-9.437590092E-2
2.070514555E1,1.017671585E0,-3.316900730E-1,-3.283303976E-2
2.071429836E1,1.271631241E0,-5.117372870E-1,3.573456407E-2
2.072345123E1,1.501767993E0,-6.966713071E-1,1.131594554E-1
2.073260409E1,1.756033182E0,-9.092461467E-1,1.884463727E-1
2.074175696E1,2.044353008E0,-1.129151106E0,2.382304370E-1
2.075090982E1,2.351456642E0,-1.292552829E0,2.527380586E-1
2.076004992E1,2.646342993E0,-1.313779712E0,2.260134816E-1
2.076921550E1,2.892209053E0,-1.156333804E0,1.922641695E-1
2.077836842E1,3.045378923E0,-8.898517489E-1,1.718007922E-1
2.078750847E1,3.048127890E0,-6.499415040E-1,1.661504507E-1
2.079667409E1,2.911756277E0,-5.024218559E-1,2.017323077E-1
2.080582690E1,2.758586168E0,-4.618005157E-1,3.381039500E-1
2.081496701E1,2.666042805E0,-5.635066032E-1,5.737382770E-1
2.082413263E1,2.617327690E0,-7.715001106E-1,8.525900841E-1
2.083328550E1,2.572736025E0,-1.020573020E0,1.139535546E0
2.084242560E1,2.541429996E0,-1.274685502E0,1.364174604E0
2.085159118E1,2.557617426E0,-1.488634825E0,1.492605329E0
2.086074404E1,2.646801233E0,-1.719687700E0,1.549719453E0
2.086988414E1,2.755226612E0,-1.993652701E0,1.564685225E0
2.087904977E1,2.835247517E0,-2.308238983E0,1.519635320E0
2.088820263E1,2.839370728E0,-2.644968748E0,1.389219403E0
2.089734268E1,2.773399353E0,-2.874494553E0,1.161220670E0
2.090650831E1,2.725600481E0,-2.929165363E0,9.080244303E-1
2.091566118E1,2.726822138E0,-2.829902649E0,6.954495907E-1
2.092480128E1,2.768054247E0,-2.606179714E0,5.320479870E-1
2.093396690E1,2.800887346E0,-2.226232767E0,4.373666346E-1
2.094311972E1,2.803025246E0,-1.618897915E0,4.149180055E-1
2.095225982E1,2.765305519E0,-8.643488884E-1,4.695888162E-1
2.096142545E1,2.672609568E0,-1.229330078E-1,5.477772951E-1
2.097057831E1,2.542957067E0,4.662291706E-1,5.702258945E-1
2.097971842E1,2.410097837E0,7.985301018E-1,5.355603099E-1
2.098888399E1,2.281972647E0,8.926005363E-1,4.674508572E-1
2.099803685E1,2.158428907E0,8.096780181E-1,4.103366435E-1
2.100717696E1,2.057486296E0,5.876350403E-1,3.799470067E-1
2.101634258E1,1.992583752E0,2.788517773E-1,3.539859951E-1
2.102549539E1,1.922489047E0,-9.926267900E-3,3.177932799E-1
2.103464826E1,1.847965717E0,-2.515163720E-1,2.533488870E-1
2.104380112E1,1.766264796E0,-4.747810364E-1,1.863084137E-1
2.105295399E1,1.658450365E0,-6.656708121E-1,1.356080920E-1
2.106210685E1,1.523147583E0,-8.153283596E-1,1.104106456E-1
2.107125967E1,1.374100924E0,-9.138274789E-1,1.038440317E-1
2.108041258E1,1.218334913E0,-9.254335761E-1,1.039967462E-1
2.108956539E1,1.040425539E0,-8.842014074E-1,1.101052165E-1
2.109871826E1,8.423583508E-1,-7.983773947E-1,1.024696305E-1
2.110787112E1,6.334486008E-1,-6.975875497E-1,7.101099193E-2
2.111702399E1,4.289674759E-1,-6.468872428E-1,3.833066672E-2
2.112617685E1,2.377723008E-1,-6.189410090E-1,8.246437646E-3
2.113532966E1,6.291726977E-2,-5.512896776E-1,-1.557660475E-2
2.114448253E1,-1.076618284E-1,-4.225535989E-1,-3.023693897E-2
2.115363534E1,-3.006895781E-1,-2.667875290E-1,-3.603998944E-2
2.116278821E1,-4.995203316E-1,-9.712471068E-2,-2.107422985E-2
2.117192836E1,-6.959077120E-1,1.401894391E-1,2.443389036E-2
2.118109394E1,-8.724426031E-1,4.010212123E-1,8.643488586E-2
2.119024680E1,-9.994988441E-1,6.016845703E-1,1.262926757E-1
2.119939961E1,-1.030652046E0,6.360446811E-1,1.316375881E-1
2.120855253E1,-9.193251133E-1,5.546492934E-1,9.025268257E-2
2.121770534E1,-6.310052276E-1,6.675033569E-1,1.343864016E-2
2.122684545E1,-2.812951505E-1,1.058598280E0,-1.198787764E-1
2.123601107E1,-7.986827940E-2,1.120751977E0,-1.948602796E-1
2.124516388E1,-2.884726226E-1,5.470137000E-1,-1.097997949E-1
2.125431675E1,-7.656970620E-1,-9.590301663E-2,-4.917320609E-2
2.126346961E1,-1.500393629E0,-8.460234851E-2,6.704048812E-2
2.127262248E1,-2.037939072E0,3.052709103E-1,2.883199155E-1
2.128176258E1,-1.833305359E0,7.853968740E-1,4.402681589E-1
2.129092821E1,-1.523605824E0,1.146254897E0,4.750864506E-1
2.130008102E1,-1.547123432E0,1.039051175E0,3.272614181E-1
2.130922112E1,-1.568044901E0,7.204943299E-1,2.486148328E-1
2.131838675E1,-1.532310367E0,4.181249440E-1,2.692309320E-1
2.132753956E1,-1.515053868E0,6.627693027E-2,2.721324563E-1
2.133669243E1,-1.521925926E0,-3.093941510E-1,2.118112892E-1
2.134584529E1,-1.533990145E0,-5.887040496E-1,1.429382563E-1
2.135499815E1,-1.552926421E0,-6.688777208E-1,1.398840249E-1
2.136415097E1,-1.572626233E0,-5.711421967E-1,1.982199401E-1
2.137330383E1,-1.579498291E0,-4.155288339E-1,2.273878902E-1
2.138245670E1,-1.556896925E0,-3.228327632E-1,1.939440072E-1
2.139160956E1,-1.530630469E0,-2.507528067E-1,1.256818175E-1
2.140076242E1,-1.509250879E0,-1.328592747E-1,5.238015205E-2
2.140991524E1,-1.505433083E0,1.588202827E-2,-2.596100792E-3
2.141906810E1,-1.491230845E0,1.699682474E-1,-3.374931216E-2
2.142822097E1,-1.464353561E0,3.429907262E-1,-4.596625641E-2
2.143737383E1,-1.456412554E0,4.894413650E-1,-3.252761811E-2
2.144652664E1,-1.466949701E0,6.088619828E-1,5.803049076E-3
2.145567951E1,-1.486496806E0,6.946860552E-1,7.024743408E-2
2.146483237E1,-1.521467805E0,7.310314775E-1,1.346918195E-1
2.147398524E1,-1.529561520E0,7.197307944E-1,1.670667231E-1
2.148313810E1,-1.515970230E0,7.088882327E-1,1.786728203E-1
2.149229092E1,-1.496117592E0,7.070556879E-1,1.557660550E-1
2.150144378E1,-1.446791768E0,7.226322889E-1,1.035386100E-1
2.151059664E1,-1.396702290E0,7.290462255E-1,4.779879749E-2
2.151974951E1,-1.361120462E0,7.192726731E-1,-1.740914769E-2
2.152890232E1,-1.347834468E0,7.201889157E-1,-8.322793990E-2
2.153805518E1,-1.332410574E0,7.404996157E-1,-1.455343664E-1
2.154720805E1,-1.347987175E0,8.438854814E-1,-1.968455315E-1
2.155636092E1,-1.369672298E0,9.646805525E-1,-2.600682080E-1
2.156551378E1,-1.393953443E0,1.086849928E0,-3.139754832E-1
2.157466659E1,-1.414416790E0,1.184280157E0,-3.594835997E-1
2.158381946E1,-1.428313613E0,1.254527569E0,-4.127800465E-1
2.159297232E1,-1.425106645E0,1.264606595E0,-4.633276463E-1
2.160212519E1,-1.400214672E0,1.253000498E0,-5.022691488E-1
2.161127800E1,-1.391204596E0,1.237271070E0,-5.352548957E-1
2.162043086E1,-1.377613306E0,1.239561796E0,-5.662553906E-1
2.162958373E1,-1.342184186E0,1.278045177E0,-5.867187977E-1
2.163873659E1,-1.285069942E0,1.316681266E0,-6.047387719E-1
2.164788946E1,-1.222916245E0,1.345543742E0,-6.250494719E-1
2.165704232E1,-1.169619799E0,1.399909258E0,-6.528429985E-1
2.166619513E1,-1.146102190E0,1.482220888E0,-6.960604787E-1
2.167534800E1,-1.151905179E0,1.599045396E0,-7.359182239E-1
2.168450086E1,-1.181836724E0,1.716938972E0,-7.643226385E-1
2.169365368E1,-1.183516622E0,1.699377060E0,-7.838697433E-1
2.170280654E1,-1.161678791E0,1.607139111E0,-7.994463444E-1
2.171195940E1,-1.111131191E0,1.550024867E0,-8.046385646E-1
2.172111227E1,-1.038593054E0,1.497644782E0,-7.979192138E-1
2.173026513E1,-9.713998437E-1,1.418998241E0,-7.826480269E-1
2.173941795E1,-9.347490072E-1,1.321262598E0,-7.811209559E-1
2.174857081E1,-9.093988538E-1,1.241852522E0,-7.968502641E-1
2.175772368E1,-8.854231238E-1,1.182142138E0,-8.075400591E-1
2.176687654E1,-8.722898960E-1,1.173132181E0,-8.124268651E-1
2.177602935E1,-8.762603998E-1,1.182752967E0,-7.922688723E-1
2.178518227E1,-9.103151560E-1,1.184738278E0,-7.569924593E-1
2.179433508E1,-9.680401683E-1,1.149919987E0,-7.153021693E-1
2.180348795E1,-9.953756332E-1,1.076465607E0,-6.775823236E-1
2.181264076E1,-9.759812355E-1,9.571976662E-1,-6.413896084E-1
2.182179362E1,-9.338327646E-1,7.881456614E-1,-6.042806506E-1
2.183094649E1,-8.729007244E-1,6.293253899E-1,-5.702258945E-1
2.184009935E1,-7.985301018E-1,4.282039404E-1,-5.499152541E-1
2.184925222E1,-7.214106321E-1,2.037175596E-1,-5.205945969E-1
2.185840503E1,-6.349757314E-1,4.367557913E-2,-4.831801951E-1
2.186755789E1,-5.453338623E-1,-8.078455180E-2,-4.520269632E-1
2.187671076E1,-4.810422063E-1,-1.776038408E-1,-4.233171642E-1
2.188586362E1,-4.448495209E-1,-2.389939874E-1,-4.101839364E-1
2.189501649E1,-4.288147688E-1,-2.641914487E-1,-3.666610718E-1
2.190416930E1,-4.130854607E-1,-2.626643181E-1,-2.939702570E-1
2.191332216E1,-3.741439581E-1,-2.328855246E-1,-2.319692522E-1
2.192247503E1,-3.109212518E-1,-1.517955512E-1,-2.053973973E-1
2.193162789E1,-2.090624720E-1,-1.481304597E-2,-2.170034945E-1
2.194078071E1,-4.963133857E-2,8.170082420E-2,-2.428117841E-1
2.194993357E1,1.638597846E-1,5.131116882E-2,-2.425063550E-1
2.195908644E1,4.072824121E-1,-1.041494608E-1,-1.899735034E-1
2.196823930E1,6.540647149E-1,-3.113794029E-1,-1.105633527E-1
2.197739211E1,8.570187092E-1,-5.095993280E-1,-3.008422814E-2
2.198654498E1,1.016907930E0,-6.936170459E-1,3.894151375E-2
2.199569784E1,1.151599765E0,-8.376243114E-1,1.145338640E-1
2.200485071E1,1.280794024E0,-9.335273504E-1,1.954711229E-1
2.201400352E1,1.417929173E0,-9.823951125E-1,2.678565085E-1
2.202314362E1,1.563005447E0,-9.718579650E-1,3.147390485E-1
2.203230925E1,1.699835181E0,-9.184088707E-1,3.455868363E-1
2.204146211E1,1.821546555E0,-8.820634484E-1,3.713951409E-1
2.205060222E1,1.941425323E0,-9.251281619E-1,3.967452943E-1
2.205976779E1,2.060693264E0,-9.872818589E-1,4.459185004E-1
2.206892065E1,2.190192938E0,-9.608627558E-1,5.328115225E-1
2.207807352E1,2.309766293E0,-8.638907075E-1,6.300889254E-1
2.208722638E1,2.377417564E0,-7.675296068E-1,7.360709310E-1
2.209637920E1,2.360771894E0,-7.592831254E-1,8.733588457E-1
2.210551930E1,2.291898966E0,-8.580876589E-1,1.055544019E0
2.211468493E1,2.253568172E0,-1.083337665E0,1.264301062E0
2.212383779E1,2.297243834E0,-1.450762272E0,1.452289343E0
2.213297784E1,2.418344259E0,-1.823531747E0,1.588355541E0
2.214214347E1,2.575790167E0,-2.085890770E0,1.640430331E0
2.215129633E1,2.696890593E0,-2.240129709E0,1.597365618E0
2.216043644E1,2.742398739E0,-2.306864738E0,1.478097677E0
2.216960201E1,2.737664700E0,-2.409181595E0,1.334548593E0
2.217875487E1,2.712620020E0,-2.578997135E0,1.189777732E0
2.218789498E1,2.679634094E0,-2.728654623E0,1.017518878E0
2.219706060E1,2.652909756E0,-2.744536638E0,8.157865405E-1
2.220621342E1,2.616564274E0,-2.542804480E0,6.523848772E-1
2.221535352E1,2.591825008E0,-2.196759462E0,5.341859460E-1
2.222451914E1,2.574415684E0,-1.803526521E0,4.732539058E-1
2.223367201E1,2.553036213E0,-1.398076653E0,4.575245976E-1
2.224282482E1,2.516079903E0,-9.846857786E-1,4.721849263E-1
2.225197768E1,2.463241577E0,-5.913001299E-1,4.929537475E-1
2.226113055E1,2.384442329E0,-2.515163720E-1,4.897467792E-1
2.227027065E1,2.298465490E0,-5.192201585E-3,4.741701782E-1
2.227943628E1,2.229134321E0,1.186570823E-1,4.303418994E-1
2.228858909E1,2.181182861E0,1.375933439E-1,3.720059693E-1
2.229772920E1,2.139339924E0,8.368607610E-2,3.008422852E-1
2.230689482E1,2.089708567E0,2.137965523E-3,2.463241518E-1
2.231604768E1,2.031067133E0,-1.065928489E-1,2.093679011E-1
2.232518779E1,1.967539072E0,-2.298312783E-1,1.826433241E-1
2.233435336E1,1.911188364E0,-3.300102353E-1,1.579040140E-1
2.234350623E1,1.856670260E0,-4.152234197E-1,1.178935245E-1
2.235265909E1,1.787797213E0,-4.860817194E-1,6.856760383E-2
2.236181190E1,1.703042150E0,-5.665608048E-1,2.718270384E-2
2.237096477E1,1.580261827E0,-6.908682585E-1,1.725643501E-2
2.238011763E1,1.428619027E0,-8.176190853E-1,2.550287358E-2
2.238927050E1,1.307060480E0,-8.997780085E-1,3.741439432E-2
2.239842331E1,1.216349602E0,-9.455915689E-1,3.680354729E-2
2.240757618E1,1.124417067E0,-9.379559755E-1,2.641914412E-2
2.241672904E1,1.023169160E0,-9.159654379E-1,1.527118124E-2
2.242588190E1,9.003888369E-1,-8.968765140E-1,7.177455351E-3
2.243503472E1,7.611156702E-1,-8.362498879E-1,8.551862091E-3
2.244418758E1,6.119162440E-1,-7.545490861E-1,4.886778072E-3
2.245334045E1,4.585935771E-1,-6.264238358E-1,-1.267508045E-2
2.246249331E1,3.074088693E-1,-4.581354558E-1,-2.489202656E-2
2.247164612E1,1.623326540E-1,-2.883199155E-1,-3.527642787E-2
2.248079899E1,3.054236248E-2,-1.392731816E-1,-6.917845458E-2
2.248995185E1,-8.765657991E-2,2.748812549E-3,-1.055238619E-1
2.249910472E1,-1.896680743E-1,1.096470803E-1,-1.382041872E-1
2.250825758E1,-2.832804024E-1,1.829487532E-1,-1.546970755E-1
2.251741045E1,-3.926220834E-1,2.816005945E-1,-1.530172378E-1
2.252656326E1,-5.135698318E-1,4.308000207E-1,-1.333174109E-1
2.253571612E1,-6.383354068E-1,5.803049207E-1,-9.452861547E-2
2.254486899E1,-7.618792653E-1,6.609367132E-1,-5.039490014E-2
2.255402180E1,-8.814526200E-1,6.459710002E-1,-2.290677279E-3
2.256317467E1,-9.862129092E-1,5.404471159E-1,5.192201585E-2
2.257232753E1,-1.091889501E0,3.994941115E-1,1.056765765E-1
2.258148039E1,-1.216044188E0,2.609844804E-1,1.617218107E-1
2.259063326E1,-1.361425877E0,1.542389393E-1,2.089097649E-1
2.259978607E1,-1.531699538E0,7.757759839E-2,2.457133085E-1
2.260893894E1,-1.670667291E0,-1.420219894E-2,2.454078794E-1
2.261809180E1,-1.611262321E0,-1.595838517E-1,2.073826492E-1
2.262723190E1,-1.176033735E0,-3.536805511E-1,1.672194302E-1
2.263639748E1,-4.051444530E-1,-4.025483429E-1,1.525591016E-1
2.264555034E1,3.350497186E-1,-2.560977042E-1,1.467560530E-1
2.265469045E1,5.100574493E-1,-2.623589039E-1,1.724116355E-1
2.266385602E1,2.425063550E-1,-4.723376334E-1,5.283828825E-2
2.267300888E1,-5.497625470E-2,1.757712960E-1,-5.543438718E-2
2.268214899E1,-7.550072074E-1,7.713474035E-1,-2.840439789E-2
2.269131461E1,-1.581483603E0,-1.759240031E-1,3.481829539E-2
2.270046748E1,-1.762294292E0,-1.080436110E0,7.452336699E-2
2.270960758E1,-1.550788522E0,-7.737907767E-1,1.356080920E-1
2.271877315E1,-1.467713237E0,6.387935281E-1,2.878617644E-1
2.272792602E1,-1.594769478E0,2.064205647E0,3.897205591E-1
2.273706612E1,-1.993041873E0,2.506306410E0,3.494046330E-1
2.274623170E1,-2.121778011E0,1.905079842E0,1.443126649E-1
2.275538456E1,-1.779398084E0,8.515210748E-1,-5.283828825E-2
2.276452466E1,-1.544679999E0,1.452289373E-1,-1.721062213E-1
2.277369024E1,-1.529103398E0,-1.798945218E-1,-2.579302490E-1
2.278284310E1,-1.632031202E0,-1.974563748E-1,-2.304421216E-1
2.279198321E1,-1.716786265E0,-1.911951900E-1,-1.426328421E-1
2.280114883E1,-1.704263806E0,-2.606790662E-1,-5.940489471E-2
2.281030164E1,-1.671583533E0,-2.990097404E-1,1.038440317E-2
2.281944175E1,-1.694948435E0,-2.530434728E-1,5.787777901E-2
2.282860737E1,-1.758018374E0,-1.543916464E-1,5.558710173E-2
2.283776024E1,-1.813452840E0,6.658235192E-2,7.330167107E-3
2.284691305E1,-1.849645495E0,3.651339412E-1,-6.398624927E-2
2.285606592E1,-1.867970943E0,5.980194807E-1,-1.583621502E-1
2.286521878E1,-1.844758749E0,7.284353375E-1,-2.363978922E-1
2.287437164E1,-1.813452840E0,8.301414251E-1,-2.802261710E-1
2.288352446E1,-1.783674002E0,9.452861547E-1,-2.922904193E-1
2.289267732E1,-1.743052602E0,1.028514028E0,-2.669402659E-1
2.290183018E1,-1.711899400E0,1.094485521E0,-2.258607745E-1
2.291098305E1,-1.690519810E0,1.176644564E0,-1.934858710E-1
2.292013586E1,-1.687312841E0,1.215891480E0,-1.690519750E-1
2.292928873E1,-1.691894174E0,1.189319611E0,-1.598892659E-1
2.293844159E1,-1.685938478E0,1.130372882E0,-1.452289373E-1
2.294759446E1,-1.656159639E0,1.104564548E0,-1.314848661E-1
2.295674727E1,-1.615080118E0,1.114338160E0,-1.055238619E-1
2.296590013E1,-1.581941724E0,1.114032745E0,-7.666133344E-2
2.297505300E1,-1.548955917E0,1.082115889E0,-7.269082218E-2
2.298420586E1,-1.473821759E0,1.024238110E0,-1.117850468E-1
2.299335868E1,-1.364174604E0,9.283351302E-1,-1.672194302E-1
2.300251154E1,-1.233300567E0,7.904363275E-1,-2.235700935E-1
2.301166440E1,-1.093111157E0,6.444438696E-1,-2.799207568E-1
2.302081727E1,-9.796462655E-1,5.282301903E-1,-3.327590525E-1
2.302997008E1,-9.181034565E-1,4.895940721E-1,-3.804051280E-1
2.303912295E1,-8.857285380E-1,5.515950918E-1,-4.248442650E-1
2.304827581E1,-8.681666851E-1,6.575770974E-1,-4.364503622E-1
2.305742868E1,-8.574768305E-1,7.594358325E-1,-4.205683470E-1
2.306658149E1,-8.745805621E-1,8.269344568E-1,-4.072824121E-1
2.307573435E1,-9.234483242E-1,8.305995464E-1,-4.051444530E-1
2.308488722E1,-9.620844126E-1,8.183826208E-1,-4.121691883E-1
2.309404008E1,-9.619317055E-1,8.002098799E-1,-4.127800465E-1
2.310319289E1,-9.371923804E-1,7.101099491E-1,-3.782671690E-1
2.311234576E1,-9.040539265E-1,5.554128885E-1,-3.272614181E-1
2.312149862E1,-8.600729704E-1,3.839175105E-1,-2.909159958E-1
2.313065144E1,-8.060129285E-1,2.353289127E-1,-2.652604282E-1
2.313980430E1,-7.519529462E-1,1.094943732E-1,-2.324273884E-1
2.314895717E1,-6.978929639E-1,4.046862945E-2,-1.983726472E-1
2.315811003E1,-6.497887969E-1,2.015795931E-2,-1.681357026E-1
2.316726289E1,-6.042806506E-1,1.847812906E-2,-1.409530044E-1
2.317641571E1,-5.709894896E-1,1.496575773E-2,-1.298050433E-1
2.318556857E1,-5.590779781E-1,2.443389036E-3,-1.253764033E-1
2.319472144E1,-5.709894896E-1,2.107422985E-2,-1.261399537E-1
2.320387430E1,-5.935907960E-1,5.894676223E-2,-1.256818175E-1
2.321302711E1,-6.146650314E-1,7.101099193E-2,-1.154501289E-1
2.322217998E1,-6.407787800E-1,9.147437662E-2,-1.119377613E-1
2.323133284E1,-6.507050395E-1,1.824906170E-1,-1.243074164E-1
2.324048571E1,-6.290199757E-1,3.126010895E-1,-1.420219839E-1
2.324963852E1,-5.873296261E-1,4.132381678E-1,-1.594311297E-1
2.325879138E1,-5.328115225E-1,4.627167881E-1,-1.762294322E-1
2.326794425E1,-4.810422063E-1,4.668400288E-1,-1.843231618E-1
2.327709711E1,-4.483618736E-1,4.717268050E-1,-1.902789176E-1
2.328624992E1,-4.283566475E-1,5.042544007E-1,-2.053973973E-1
2.329540279E1,-3.877353072E-1,5.880932212E-1,-2.144073844E-1
2.330455565E1,-3.176405728E-1,6.755970716E-1,-2.017323077E-1
2.331370852E1,-2.316638231E-1,7.084301114E-1,-1.743968874E-1
2.332286133E1,-1.551551968E-1,6.676560640E-1,-1.414111406E-1
2.333201420E1,-9.956810623E-2,5.745018721E-1,-1.067455560E-1
2.334116706E1,-6.917845458E-2,4.811949134E-1,-8.933641016E-2
2.335031987E1,-4.657710344E-2,4.228590131E-1,-7.864658535E-2
2.335947274E1,-1.588202827E-2,3.571929336E-1,-5.283828825E-2
2.336862560E1,1.053711493E-2,2.935121059E-1,-2.687728032E-2
2.337777847E1,1.954711229E-2,2.279987335E-1,-3.665083554E-3
2.338693128E1,1.389677543E-2,1.527118087E-1,1.710372418E-2
2.339608414E1,-1.145338640E-2,1.039967462E-1,3.710897267E-2
2.340523701E1,-4.581354558E-2,7.986827940E-2,4.428642616E-2
2.341438987E1,-7.589777559E-2,6.887302548E-2,4.153761268E-2
2.342354268E1,-1.133121699E-1,4.474456236E-2,3.161134571E-2
2.343269555E1,-1.635543555E-1,1.985253580E-2,1.847812906E-2
2.344184842E1,-2.183778882E-1,6.413896102E-3,8.246437646E-3
2.345100128E1,-2.663294077E-1,3.970507067E-3,-6.719320081E-3
2.346015409E1,-3.132119179E-1,2.550287358E-2,-3.939964995E-2
2.346930696E1,-3.426853120E-1,9.941539168E-2,-7.391251624E-2
2.347845982E1,-3.607053161E-1,2.070772201E-1,-9.972081333E-2
2.348761263E1,-3.791834414E-1,2.803788781E-1,-1.285833418E-1
2.349676550E1,-3.956763148E-1,2.761029601E-1,-1.531699449E-1
2.350591836E1,-4.165978432E-1,2.217375487E-1,-1.759240031E-1
2.351507123E1,-4.364503622E-1,1.626380831E-1,-1.997470558E-1
2.352422404E1,-4.593571424E-1,1.233911440E-1,-2.157817930E-1
2.353337690E1,-4.782933891E-1,9.743013978E-2,-2.232646793E-1
2.354252977E1,-4.859289825E-1,5.879404768E-2,-2.244863659E-1
2.355168263E1,-4.847072959E-1,-1.160609815E-2,-2.086043358E-1
2.356083550E1,-4.747810364E-1,-1.097997949E-1,-1.895153672E-1
2.356998831E1,-4.651601911E-1,-2.157817930E-1,-1.710372269E-1
2.357914118E1,-4.608842432E-1,-2.953446507E-1,-1.629435122E-1
2.358829404E1,-4.439332485E-1,-3.266505599E-1,-1.585148573E-1
2.359744685E1,-4.007157981E-1,-3.355078697E-1,-1.514901221E-1
2.360659972E1,-3.405473530E-1,-3.191677034E-1,-1.394258887E-1
2.361575258E1,-2.738122940E-1,-2.785463631E-1,-1.140757278E-1
2.362490545E1,-1.965401024E-1,-2.470877171E-1,-8.964183182E-2
2.363405831E1,-1.166718230E-1,-2.257080674E-1,-7.635590434E-2
2.364321112E1,-3.939964995E-2,-1.899735034E-1,-6.352811307E-2
2.365236399E1,2.840439789E-2,-1.264453828E-1,-4.657710344E-2
2.366151680E1,8.261708915E-2,-6.490252167E-2,-2.611372061E-2
2.367066972E1,1.204896197E-1,-3.100049868E-2,-1.191152167E-2
2.367982253E1,1.462979168E-1,-2.611372061E-2,-6.872031838E-3
2.368897539E1,1.513374150E-1,-3.038965166E-2,-1.298050396E-2
2.369812821E1,1.568350345E-1,-2.626643144E-2,-1.893626526E-2
2.370728107E1,1.679829955E-1,-3.573456407E-2,-1.649287529E-2
2.371643394E1,1.731752008E-1,-6.887302548E-2,-9.620844387E-3
2.372558680E1,1.772984117E-1,-1.181989461E-1,1.374406274E-3
2.373473961E1,1.690519750E-1,-1.713426560E-1,1.481304597E-2
2.374389248E1,1.386623234E-1,-2.165453583E-1,2.565558441E-2
2.375304534E1,9.697200358E-2,-2.449497581E-1,2.718270384E-2
2.376219821E1,5.680879578E-2,-2.359397560E-1,2.993151546E-2
2.377135102E1,3.680354729E-2,-1.948602796E-1,3.405473381E-2
2.378050388E1,3.008422814E-2,-1.485885978E-1,3.695625812E-2
2.378965675E1,3.038965166E-2,-1.093416587E-1,3.573456407E-2
2.379880961E1,2.718270384E-2,-8.399149776E-2,2.840439789E-2
2.380796243E1,2.458660305E-2,-6.536065787E-2,1.863084175E-2
2.381711529E1,1.466033421E-2,-4.856235534E-2,4.428642802E-3
2.382626815E1,-1.068982761E-3,-2.397575416E-2,-9.773556143E-3
2.383542097E1,-1.359135192E-2,6.108472589E-3,-2.321219631E-2
2.384457383E1,-2.061609551E-2,4.275930673E-2,-3.558185324E-2
2.385372670E1,-3.084778599E-2,9.330692142E-2,-4.779879749E-2
2.386287956E1,-3.985778242E-2,1.462979168E-1,-5.955760926E-2
2.387203237E1,-5.192201585E-2,1.992889196E-1,-6.887302548E-2
2.388118524E1,-5.971032009E-2,2.383831441E-1,-7.314895838E-2
2.389033810E1,-6.536065787E-2,2.492256761E-1,-7.513421029E-2
2.389949092E1,-7.818844914E-2,2.383831441E-1,-7.635590434E-2
2.390864378E1,-8.536590636E-2,2.173089087E-1,-7.406523079E-2
2.391779664E1,-8.948912472E-2,1.884463727E-1,-6.734590977E-2
2.392694951E1,-9.544488788E-2,1.540862173E-1,-5.757235363E-2
2.393610232E1,-1.000262350E-1,1.123958975E-1,-5.085303262E-2
2.394525518E1,-1.039967462E-1,6.963659078E-2,-4.169032723E-2
2.395440805E1,-1.000262350E-1,3.115320951E-2,-3.298575059E-2
2.396356092E1,-8.994726092E-2,7.177455351E-3,-2.565558441E-2
2.397271378E1,-7.253811508E-2,-9.009997360E-3,-1.695101149E-2
2.398186659E1,-5.161659420E-2,-2.229592577E-2,-8.246437646E-3
2.399101946E1,-3.359659761E-2,-2.825168520E-2,-8.704573847E-3
2.400017232E1,-1.939439960E-2,-3.298575059E-2,-1.099525020E-2
2.400932513E1,-5.192201585E-3,-4.382828996E-2,-5.497625098E-3
2.401847800E1,5.344913341E-3,-4.138490185E-2,-4.123218823E-3
2.402763086E1,1.267508045E-2,-2.870982140E-2,-3.512371797E-3
2.403678373E1,2.305948362E-2,-2.153236605E-2,-3.359660041E-3
2.404593654E1,3.649812192E-2,-1.481304597E-2,-5.192201585E-3
2.405508940E1,4.993676394E-2,-3.054236295E-4,-7.482878864E-3
2.406424227E1,5.665608495E-2,1.099525020E-2,-9.926267900E-3
2.407339508E1,5.543438718E-2,1.954711229E-2,-1.298050396E-2
2.408254795E1,5.360184610E-2,1.649287529E-2,-1.175880991E-2
2.409170081E1,5.115845799E-2,8.093725890E-3,-8.704573847E-3
2.410085368E1,4.627167806E-2,5.650337320E-3,-2.748812549E-3
2.411000649E1,4.367557913E-2,1.588202827E-2,3.054236295E-4
2.411915935E1,3.665083647E-2,2.855710872E-2,2.748812549E-3
2.412831222E1,2.809897438E-2,3.817795217E-2,7.635590737E-4
2.413746508E1,1.695101149E-2,4.230117425E-2,-2.901524538E-3
2.414661789E1,1.527118147E-3,3.924693540E-2,-1.160609815E-2
2.415577076E1,-1.618745178E-2,3.863608837E-2,-2.199050039E-2
2.416492362E1,-3.161134571E-2,3.665083647E-2,-3.130592033E-2
2.417407644E1,-4.382828996E-2,3.191677108E-2,-3.451287001E-2
2.418322930E1,-5.665608495E-2,1.679829881E-2,-3.268032894E-2
2.419238216E1,-6.704048812E-2,-0.000000000E0,-3.038965166E-2
2.420153503E1,-8.047912270E-2,-1.634016447E-2,-3.344388679E-2
2.421068784E1,-9.575030953E-2,-2.428117767E-2,-3.909422457E-2
2.421984071E1,-1.097997949E-1,-3.100049868E-2,-4.535540938E-2
2.422899357E1,-1.152974218E-1,-3.817795217E-2,-4.779879749E-2
2.423814638E1,-1.134648770E-1,-4.123219103E-2,-4.779879749E-2
2.424729925E1,-1.053711548E-1,-4.352286831E-2,-4.153761268E-2
2.425645211E1,-9.865183383E-2,-4.657710344E-2,-3.542914242E-2
2.426560498E1,-1.004843712E-1,-5.070032179E-2,-3.481829539E-2
2.427475779E1,-1.033858955E-1,-6.398624927E-2,-3.359659761E-2
2.428391065E1,-1.058292910E-1,-7.543963939E-2,-3.115320951E-2
2.429306352E1,-1.076618284E-1,-8.322793990E-2,-3.115320951E-2
2.430221638E1,-1.087308154E-1,-9.055810422E-2,-3.237490356E-2
2.431136920E1,-1.099525094E-1,-8.506047726E-2,-3.298575059E-2
2.432052206E1,-1.088835225E-1,-7.009471953E-2,-3.237490356E-2
2.432967493E1,-1.041494608E-1,-5.070032179E-2,-2.932066843E-2
2.433882774E1,-9.636115283E-2,-2.657185495E-2,-2.748812735E-2
2.434798060E1,-8.612946421E-2,-6.719320081E-3,-2.748812735E-2
2.435713347E1,-7.452336699E-2,3.512371797E-3,-2.855710872E-2
2.436628633E1,-6.780404598E-2,7.788302377E-3,-2.305948362E-2
2.437543914E1,-5.482354015E-2,6.566607859E-3,-2.290677279E-2
2.438459201E1,-4.672981426E-2,4.275931045E-3,-2.229592577E-2
2.439374487E1,-3.878879920E-2,-6.108472589E-4,-1.985253580E-2
2.440289769E1,-3.374931216E-2,-4.734066315E-3,-1.542389300E-2
2.441205055E1,-3.497100621E-2,-8.399149403E-3,-1.114796288E-2
2.442120342E1,-3.252761811E-2,-1.374406368E-2,-8.704573847E-3
2.443035628E1,-2.932066843E-2,-1.740914769E-2,-8.093725890E-3
2.443950909E1,-3.115320951E-2,-1.618745178E-2,-6.261184346E-3
2.444866196E1,-3.313846514E-2,-1.557660475E-2,-6.872031838E-3
2.445781482E1,-3.374931216E-2,-1.374406368E-2,-5.039489828E-3
2.446696768E1,-3.451287001E-2,-3.512371797E-3,-6.872031838E-3
2.447612050E1,-3.710897267E-2,1.099525020E-2,-7.482878864E-3
2.448527336E1,-4.642439261E-2,2.596100792E-2,-6.413896102E-3
2.449442623E1,-5.512896553E-2,3.497100621E-2,-6.413896102E-3
2.450357904E1,-6.139015034E-2,4.337015375E-2,-9.009997360E-3
2.451273190E1,-6.505523622E-2,4.764608666E-2,-1.328592747E-2
2.452188477E1,-6.872031838E-2,5.176930502E-2,-1.267508045E-2
2.453103763E1,-6.566607952E-2,5.482354015E-2,-1.695101149E-2
2.454019045E1,-5.894676223E-2,5.115845799E-2,-2.000524849E-2
2.454934331E1,-4.902049154E-2,4.275930673E-2,-1.801999472E-2
2.455849618E1,-3.909422457E-2,3.558185324E-2,-1.801999472E-2
2.456764904E1,-3.222219273E-2,3.374931216E-2,-1.847812906E-2
2.457680185E1,-2.733541466E-2,3.313846514E-2,-1.542389300E-2
2.458595472E1,-1.679829881E-2,3.145863488E-2,-1.175880991E-2
2.459510758E1,-3.817795310E-3,2.718270384E-2,-9.162709117E-3
2.460426039E1,5.344913341E-3,2.657185495E-2,-4.275931045E-3
2.461341326E1,1.084253844E-2,2.901524492E-2,7.635590737E-4
2.462256612E1,1.023169141E-2,2.962609194E-2,7.635590737E-4
2.463171899E1,2.901524538E-3,2.840439789E-2,2.443389036E-3
2.464087180E1,-7.635590620E-3,2.840439789E-2,1.221694518E-3
2.465002466E1,-1.695101149E-2,3.145863488E-2,1.068982761E-3
2.465917753E1,-2.244863659E-2,3.695625812E-2,2.290677279E-3
2.466833034E1,-2.260134928E-2,4.413371533E-2,1.679830020E-3
2.467748321E1,-2.504473738E-2,4.947862774E-2,2.290677279E-3
2.468663607E1,-3.191677108E-2,5.436540768E-2,-1.374406274E-3
2.469578888E1,-4.001049697E-2,6.032116711E-2,-4.581354558E-3
2.470494175E1,-5.100574717E-2,6.154286116E-2,-9.468132630E-3
2.471409461E1,-5.711421743E-2,5.070032179E-2,-1.572931744E-2
2.472324748E1,-6.123743951E-2,3.863608837E-2,-2.061609551E-2
2.473240029E1,-5.925218388E-2,2.168507688E-2,-2.046338283E-2
2.474155315E1,-5.360184610E-2,7.330167107E-3,-1.924168877E-2
2.475070602E1,-4.672981426E-2,-2.901524538E-3,-1.679829881E-2
2.475985888E1,-3.924693540E-2,-1.374406368E-2,-1.298050396E-2
2.476901170E1,-2.932066843E-2,-2.336490713E-2,-8.704573847E-3
2.477816456E1,-1.939439960E-2,-2.947338112E-2,-6.108472589E-3
2.478731742E1,-9.009997360E-3,-2.702999115E-2,-1.221694518E-3
2.479647029E1,-1.068982761E-3,-1.969982497E-2,1.832541777E-3
2.480562310E1,7.482878864E-3,-1.130067464E-2,5.039489828E-3
2.481477597E1,1.542389300E-2,-1.068982761E-3,6.261184346E-3
2.482392883E1,1.664558798E-2,6.261184346E-3,8.093725890E-3
2.483308170E1,2.153236605E-2,3.206948051E-3,8.093725890E-3
2.484223451E1,2.962609194E-2,-8.093725890E-3,1.252236869E-2
2.485138737E1,3.038965166E-2,-1.847812906E-2,1.374406368E-2
2.486054018E1,2.428117767E-2,-2.260134928E-2,1.298050396E-2
2.486969305E1,1.695101149E-2,-3.054236248E-2,1.298050396E-2
2.487884592E1,1.450762246E-2,-4.260659590E-2,9.926267900E-3
2.488799873E1,1.404948719E-2,-4.627167806E-2,5.650337320E-3
2.489715164E1,1.084253844E-2,-4.077405483E-2,1.985253533E-3
2.490630446E1,1.328592747E-2,-3.176405653E-2,-4.581354442E-4
2.491545732E1,2.000524849E-2,-2.687728032E-2,1.527118147E-4
2.492461013E1,2.305948362E-2,-2.275406010E-2,-1.068982761E-3
2.493376300E1,2.733541466E-2,-1.786728203E-2,-2.137965523E-3
2.494291586E1,2.855710872E-2,-1.786728203E-2,-1.527118147E-3
2.495206873E1,2.916795574E-2,-2.092151903E-2,-2.137965523E-3
2.496122154E1,2.672456764E-2,-2.214321308E-2,-3.359660041E-3
2.497037440E1,2.244863659E-2,-2.275406010E-2,-5.344913341E-3
2.497952727E1,2.061609551E-2,-2.092151903E-2,-3.512371797E-3
2.498868008E1,1.863084175E-2,-1.786728203E-2,-1.679830020E-3
2.499783295E1,1.740914769E-2,-1.191152167E-2,1.374406274E-3
2.500698581E1,1.603474095E-2,-3.970507067E-3,6.872031838E-3
2.501613862E1,1.664558798E-2,1.985253533E-3,9.926267900E-3
2.502529149E1,1.420219894E-2,1.527118147E-4,1.298050396E-2
2.503444435E1,1.725643501E-2,-5.192201585E-3,9.926267900E-3
2.504359722E1,2.046338283E-2,-5.192201585E-3,8.704573847E-3
2.505275003E1,2.412846684E-2,-2.137965523E-3,6.872031838E-3
2.506190289E1,2.718270384E-2,-5.192201585E-3,6.872031838E-3
2.507105576E1,2.535016090E-2,-1.298050396E-2,6.261184346E-3
2.508020862E1,1.740914769E-2,-1.969982497E-2,5.039489828E-3
2.508936149E1,7.635590620E-3,-1.847812906E-2,1.985253533E-3
2.509851430E1,3.206948051E-3,-1.252236869E-2,-1.221694518E-3
2.510766717E1,1.374406274E-3,-7.024743594E-3,-3.665083554E-3
2.511681998E1,1.985253533E-3,-1.068982761E-3,-3.665083554E-3
2.512597284E1,1.832541777E-3,1.374406274E-3,-1.221694518E-3
2.513512571E1,-1.832541777E-3,-2.901524538E-3,2.443389036E-3
2.514427852E1,-3.665083554E-3,-7.024743594E-3,5.497625098E-3
2.515343138E1,-1.679830020E-3,-1.252236869E-2,7.330167107E-3
2.516258425E1,3.817795310E-3,-1.374406368E-2,8.093725890E-3
2.517173711E1,1.191152167E-2,-1.603474095E-2,8.093725890E-3
2.518088993E1,1.557660475E-2,-1.481304597E-2,6.872031838E-3
2.519004279E1,1.740914769E-2,-1.313321572E-2,5.650337320E-3
2.519919565E1,1.313321572E-2,-1.191152167E-2,4.428642802E-3
2.520834847E1,9.468132630E-3,-1.374406368E-2,3.817795310E-3
2.521750133E1,9.926267900E-3,-1.130067464E-2,4.428642802E-3
2.522665420E1,1.420219894E-2,-3.970507067E-3,2.596100792E-3
2.523580706E1,1.664558798E-2,5.650337320E-3,1.985253533E-3
2.524495987E1,1.649287529E-2,1.466033421E-2,-4.581354442E-4
2.525411274E1,9.773556143E-3,1.939439960E-2,-2.901524538E-3
2.526326560E1,4.275931045E-3,1.588202827E-2,-2.443389036E-3
2.527241842E1,6.108472589E-4,1.404948719E-2,-1.221694518E-3
2.528157128E1,-1.221694518E-3,8.551862091E-3,1.832541777E-3
2.529072414E1,-6.108472589E-4,3.206948051E-3,3.665083554E-3